Model Number: SPM-001-M   
Serial Number: 10144108
Firmware Version: 004.17.6
Exposure Time: 100000.000000us
Data Taken on: 15-01-2021 16:00:08.885
Wavelength	Amplitude
734.756226	0.000000
734.798218	0.000000
734.840271	0.000000
734.882263	0.000000
734.924255	0.000000
734.966248	0.000000
735.008301	0.000000
735.050293	0.000000
735.092285	0.000000
735.134277	0.000000
735.176270	0.000000
735.218262	0.000000
735.260254	0.000000
735.302307	0.000000
735.344299	0.000000
735.386292	0.000000
735.428284	0.000000
735.470276	0.000000
735.512268	0.000000
735.554260	0.000000
735.596252	0.000000
735.638245	0.000000
735.680237	0.000000
735.722290	0.000000
735.764221	0.000000
735.806213	0.000000
735.848206	0.000000
735.890198	0.000000
735.932190	0.000000
735.974182	0.000000
736.016174	0.000000
736.058167	0.000000
736.100159	0.000000
736.142090	0.000000
736.184143	0.000000
736.226074	0.000000
736.268066	0.000000
736.310059	0.000000
736.352051	0.000000
736.393982	0.000000
736.435974	0.000000
736.477966	0.000000
736.519958	0.000000
736.561890	0.000000
736.603943	0.000000
736.645874	0.000000
736.687866	0.000000
736.729797	0.000000
736.771851	0.000000
736.813782	0.000000
736.855713	0.000000
736.897766	0.000000
736.939697	0.000000
736.981628	0.000000
737.023621	0.000000
737.065613	0.000000
737.107544	0.000000
737.149536	0.000000
737.191528	0.000000
737.233459	0.000000
737.275391	0.000000
737.317383	0.000000
737.359375	0.000000
737.401306	0.000000
737.443237	0.000000
737.485291	0.000000
737.527222	0.000000
737.569153	0.000000
737.611084	0.000000
737.653076	0.000000
737.695007	0.000000
737.736938	0.000000
737.778992	0.000000
737.820923	0.000000
737.862854	0.000000
737.904785	0.000000
737.946777	0.000000
737.988708	0.000000
738.030640	0.000000
738.072632	0.000000
738.114563	0.000000
738.156494	0.000000
738.198425	0.000000
738.240417	0.000000
738.282349	0.000000
738.324280	0.000000
738.366272	0.000000
738.408203	0.000000
738.450073	0.000000
738.492004	0.000000
738.533997	0.000000
738.575928	0.000000
738.617859	0.000000
738.659851	0.000000
738.701782	0.000000
738.743652	0.000000
738.785583	0.000000
738.827576	0.000000
738.869507	0.000000
738.911438	0.000000
738.953369	0.000000
738.995300	0.000000
739.037231	0.000000
739.079102	0.000000
739.121094	0.000000
739.163025	0.000000
739.204956	0.000000
739.246887	0.000000
739.288818	0.000000
739.330688	0.000000
739.372620	0.000000
739.414612	0.000000
739.456482	0.000000
739.498413	0.000000
739.540344	0.000000
739.582275	0.000000
739.624207	0.000000
739.666077	0.000000
739.708069	0.000000
739.749939	0.000000
739.791870	0.000000
739.833740	0.000000
739.875732	0.000000
739.917603	0.000000
739.959473	147.160000
740.001465	146.100000
740.043335	146.220000
740.085266	146.580000
740.127136	146.400000
740.169128	145.800000
740.210999	146.480000
740.252869	146.140000
740.294861	145.560000
740.336731	145.560000
740.378601	145.860000
740.420532	146.500000
740.462463	146.900000
740.504333	147.060000
740.546204	146.780000
740.588196	146.280000
740.630066	145.920000
740.671936	145.720000
740.713806	145.440000
740.755798	146.220000
740.797668	147.000000
740.839539	146.320000
740.881470	146.560000
740.923340	146.720000
740.965210	146.820000
741.007141	146.080000
741.049072	146.000000
741.090942	145.880000
741.132812	145.640000
741.174744	145.200000
741.216614	145.320000
741.258484	146.000000
741.300354	146.260000
741.342285	146.260000
741.384155	146.320000
741.426025	146.380000
741.467957	145.980000
741.509827	146.000000
741.551697	146.620000
741.593567	146.240000
741.635498	146.680000
741.677368	146.840000
741.719238	146.560000
741.761169	146.000000
741.803040	146.440000
741.844849	146.020000
741.886719	145.260000
741.928650	145.160000
741.970520	145.240000
742.012390	145.900000
742.054321	146.100000
742.096130	147.060000
742.138000	147.040000
742.179871	147.420000
742.221802	147.340000
742.263672	147.660000
742.305481	147.060000
742.347412	147.140000
742.389282	146.780000
742.431091	146.100000
742.472961	145.620000
742.514893	145.620000
742.556702	146.040000
742.598572	146.260000
742.640503	146.360000
742.682312	146.680000
742.724182	146.580000
742.765991	146.100000
742.807922	146.320000
742.849792	146.720000
742.891602	146.140000
742.933533	147.080000
742.975342	147.220000
743.017212	146.560000
743.059021	146.440000
743.100952	147.000000
743.142761	146.420000
743.184631	146.320000
743.226501	146.940000
743.268372	146.420000
743.310181	146.260000
743.351990	145.660000
743.393921	146.300000
743.435730	145.900000
743.477600	146.820000
743.519470	146.420000
743.561279	147.340000
743.603149	147.300000
743.644958	147.360000
743.686829	146.700000
743.728699	147.020000
743.770508	146.720000
743.812378	145.960000
743.854187	146.380000
743.896057	146.600000
743.937866	146.580000
743.979736	146.520000
744.021545	146.680000
744.063416	146.380000
744.105286	146.660000
744.147095	146.700000
744.188904	146.920000
744.230713	146.760000
744.272583	146.500000
744.314453	146.080000
744.356262	145.760000
744.398132	145.800000
744.439941	145.840000
744.481750	146.000000
744.523560	146.020000
744.565430	146.420000
744.607239	146.140000
744.649048	146.620000
744.690918	146.480000
744.732727	146.380000
744.774536	146.660000
744.816345	146.160000
744.858215	145.520000
744.900024	145.440000
744.941833	145.420000
744.983704	144.780000
745.025513	145.180000
745.067322	145.520000
745.109070	145.440000
745.150940	145.680000
745.192749	145.580000
745.234558	146.040000
745.276428	145.960000
745.318237	145.580000
745.359985	145.520000
745.401794	145.940000
745.443665	145.980000
745.485474	146.040000
745.527283	146.680000
745.569092	146.340000
745.610901	145.920000
745.652710	145.520000
745.694458	145.400000
745.736328	145.340000
745.778137	145.260000
745.819885	145.340000
745.861755	145.380000
745.903564	146.020000
745.945312	145.580000
745.987122	146.180000
746.028992	146.680000
746.070740	146.560000
746.112549	146.240000
746.154358	146.440000
746.196167	146.480000
746.237915	146.000000
746.279724	146.380000
746.321533	146.380000
746.363342	146.320000
746.405090	145.980000
746.446960	146.100000
746.488708	145.740000
746.530518	145.760000
746.572266	146.500000
746.614136	146.780000
746.655884	147.560000
746.697632	147.280000
746.739502	147.340000
746.781250	146.880000
746.823059	146.680000
746.864807	145.820000
746.906616	146.020000
746.948364	145.840000
746.990173	145.760000
747.031982	145.340000
747.073730	145.700000
747.115540	145.900000
747.157288	146.040000
747.199097	146.300000
747.240845	146.280000
747.282654	145.960000
747.324463	146.040000
747.366211	146.280000
747.407959	145.940000
747.449707	146.420000
747.491516	146.740000
747.533325	146.740000
747.575073	146.180000
747.616882	146.440000
747.658630	146.260000
747.700378	146.100000
747.742126	146.080000
747.783936	146.420000
747.825684	146.480000
747.867432	146.300000
747.909241	146.120000
747.950989	146.080000
747.992737	145.960000
748.034485	145.760000
748.076294	145.860000
748.118042	146.100000
748.159790	145.820000
748.201599	145.700000
748.243347	145.960000
748.285095	146.160000
748.326843	146.020000
748.368652	145.440000
748.410339	145.500000
748.452087	145.440000
748.493896	145.220000
748.535645	145.460000
748.577393	145.900000
748.619141	146.300000
748.660889	145.820000
748.702637	145.800000
748.744385	146.000000
748.786194	146.060000
748.827881	145.580000
748.869629	145.920000
748.911377	145.980000
748.953125	145.620000
748.994873	146.080000
749.036621	145.920000
749.078369	146.040000
749.120117	145.640000
749.161865	145.660000
749.203552	145.780000
749.245361	145.460000
749.287109	145.000000
749.328796	145.660000
749.370605	145.760000
749.412292	145.660000
749.454041	146.160000
749.495728	146.700000
749.537537	146.120000
749.579224	146.100000
749.620972	145.680000
749.662720	145.560000
749.704468	145.600000
749.746155	145.700000
749.787903	145.920000
749.829651	146.360000
749.871399	146.360000
749.913086	146.040000
749.954834	146.420000
749.996582	146.300000
750.038269	145.780000
750.079956	145.960000
750.121765	145.660000
750.163452	145.620000
750.205139	145.540000
750.246948	145.440000
750.288635	145.240000
750.330322	145.480000
750.372009	145.040000
750.413818	145.180000
750.455505	145.380000
750.497192	145.500000
750.538940	145.380000
750.580688	146.180000
750.622375	145.760000
750.664062	146.700000
750.705811	146.260000
750.747498	146.820000
750.789185	146.000000
750.830933	146.080000
750.872681	145.380000
750.914368	145.920000
750.956055	145.600000
750.997803	146.040000
751.039490	145.820000
751.081177	145.520000
751.122925	145.180000
751.164612	145.440000
751.206299	145.400000
751.247986	145.340000
751.289734	145.780000
751.331421	145.980000
751.373108	145.680000
751.414856	145.200000
751.456543	145.700000
751.498169	145.720000
751.539856	145.420000
751.581604	145.260000
751.623291	145.440000
751.664978	145.160000
751.706726	144.560000
751.748413	145.220000
751.790039	145.620000
751.831726	145.920000
751.873474	147.520000
751.915161	147.560000
751.956848	147.480000
751.998535	146.980000
752.040222	146.880000
752.081909	145.680000
752.123596	145.900000
752.165283	145.940000
752.206970	146.800000
752.248657	146.980000
752.290283	147.220000
752.332031	147.380000
752.373718	147.460000
752.415344	146.720000
752.457092	146.140000
752.498718	145.800000
752.540405	145.900000
752.582031	145.520000
752.623779	145.840000
752.665466	146.440000
752.707092	146.300000
752.748840	146.240000
752.790466	146.080000
752.832153	145.460000
752.873779	145.080000
752.915527	144.860000
752.957153	144.820000
752.998779	144.980000
753.040527	145.380000
753.082153	145.280000
753.123840	145.500000
753.165466	145.440000
753.207153	145.560000
753.248840	145.640000
753.290466	145.820000
753.332153	146.000000
753.373840	145.960000
753.415466	146.040000
753.457092	146.220000
753.498840	146.380000
753.540466	146.260000
753.582092	146.520000
753.623779	146.440000
753.665466	146.400000
753.707092	146.260000
753.748718	146.280000
753.790405	145.920000
753.832031	145.680000
753.873718	145.460000
753.915405	145.340000
753.957031	145.360000
753.998657	145.500000
754.040283	145.660000
754.081970	146.120000
754.123596	146.060000
754.165222	146.000000
754.206909	146.160000
754.248535	145.840000
754.290222	145.420000
754.331848	145.480000
754.373535	145.440000
754.415161	145.060000
754.456787	145.000000
754.498413	145.040000
754.540039	145.400000
754.581665	145.340000
754.623291	145.460000
754.664978	145.900000
754.706604	145.680000
754.748230	145.440000
754.789917	146.020000
754.831543	146.000000
754.873169	145.900000
754.914734	146.080000
754.956421	145.920000
754.998047	145.400000
755.039673	145.940000
755.081360	146.120000
755.122925	146.320000
755.164551	146.400000
755.206177	146.580000
755.247864	146.060000
755.289429	145.860000
755.331055	145.400000
755.372742	145.360000
755.414307	144.900000
755.455933	145.220000
755.497559	145.880000
755.539185	146.480000
755.580811	146.940000
755.622437	146.740000
755.664062	146.780000
755.705688	145.660000
755.747253	145.200000
755.788879	144.960000
755.830505	145.600000
755.872131	145.520000
755.913757	145.780000
755.955383	145.700000
755.997009	145.840000
756.038574	145.040000
756.080200	145.260000
756.121826	145.420000
756.163391	145.900000
756.205017	145.540000
756.246643	146.020000
756.288269	145.880000
756.329834	146.160000
756.371399	145.740000
756.413086	145.960000
756.454651	145.980000
756.496216	145.840000
756.537903	145.420000
756.579468	145.740000
756.621033	145.560000
756.662659	145.680000
756.704285	145.560000
756.745850	145.580000
756.787415	145.060000
756.829102	145.080000
756.870667	144.900000
756.912231	144.800000
756.953796	145.040000
756.995422	145.260000
757.037048	145.400000
757.078613	145.720000
757.120239	145.400000
757.161804	145.260000
757.203369	145.080000
757.244934	145.140000
757.286560	145.080000
757.328125	145.600000
757.369751	145.500000
757.411377	145.360000
757.452942	145.180000
757.494507	145.000000
757.536072	144.700000
757.577698	145.260000
757.619263	145.500000
757.660828	146.160000
757.702454	145.960000
757.743958	146.200000
757.785522	145.980000
757.827087	146.500000
757.868713	145.740000
757.910278	145.840000
757.951843	145.580000
757.993469	145.300000
758.035034	145.400000
758.076599	145.600000
758.118103	145.760000
758.159729	146.360000
758.201294	146.420000
758.242859	146.400000
758.284485	146.820000
758.325989	147.080000
758.367554	146.600000
758.409119	146.640000
758.450684	146.600000
758.492249	146.440000
758.533813	146.060000
758.575439	146.220000
758.616943	146.300000
758.658508	146.100000
758.700012	146.020000
758.741638	146.600000
758.783203	146.280000
758.824707	146.220000
758.866333	145.760000
758.907837	145.520000
758.949402	145.560000
758.990967	146.140000
759.032532	146.100000
759.074097	146.360000
759.115601	146.240000
759.157227	146.440000
759.198730	146.060000
759.240295	146.740000
759.281799	147.160000
759.323364	147.900000
759.364929	146.860000
759.406433	146.420000
759.448059	145.640000
759.489563	145.060000
759.531067	144.720000
759.572632	144.900000
759.614197	145.240000
759.655762	145.500000
759.697266	145.960000
759.738831	146.140000
759.780334	145.960000
759.821899	146.360000
759.863403	146.440000
759.904968	146.360000
759.946472	145.700000
759.988037	145.920000
760.029602	145.880000
760.071106	145.700000
760.112610	145.480000
760.154175	146.040000
760.195740	146.200000
760.237244	145.860000
760.278748	145.720000
760.320251	146.180000
760.361816	145.600000
760.403320	145.860000
760.444824	146.240000
760.486389	146.640000
760.527893	146.280000
760.569458	146.460000
760.610962	146.480000
760.652527	146.120000
760.694031	145.700000
760.735535	145.980000
760.777100	146.500000
760.818604	146.700000
760.860046	146.540000
760.901550	146.360000
760.943115	145.920000
760.984619	145.820000
761.026123	145.320000
761.067688	145.660000
761.109192	145.920000
761.150696	146.160000
761.192200	145.960000
761.233704	145.840000
761.275208	146.060000
761.316711	145.980000
761.358276	145.860000
761.399780	145.760000
761.441223	146.040000
761.482727	145.740000
761.524292	145.460000
761.565796	145.360000
761.607239	145.580000
761.648804	145.060000
761.690308	145.180000
761.731750	145.080000
761.773254	145.720000
761.814819	145.560000
761.856262	145.840000
761.897766	146.120000
761.939270	146.500000
761.980774	146.020000
762.022278	146.000000
762.063721	145.800000
762.105286	145.580000
762.146729	145.880000
762.188232	146.440000
762.229736	146.320000
762.271240	146.900000
762.312683	146.660000
762.354187	146.540000
762.395691	146.600000
762.437195	146.600000
762.478638	145.720000
762.520203	145.660000
762.561646	145.560000
762.603088	144.740000
762.644592	144.640000
762.686096	145.400000
762.727539	145.380000
762.769043	145.660000
762.810547	145.680000
762.851990	146.220000
762.893494	146.240000
762.934937	146.200000
762.976440	145.900000
763.017944	145.660000
763.059387	145.440000
763.100891	145.100000
763.142334	145.720000
763.183777	145.600000
763.225281	145.860000
763.266785	145.420000
763.308228	145.680000
763.349670	145.620000
763.391174	145.980000
763.432617	146.020000
763.474060	146.520000
763.515564	146.200000
763.557068	145.380000
763.598511	145.120000
763.639954	145.220000
763.681458	144.920000
763.722900	145.240000
763.764343	146.120000
763.805786	146.600000
763.847290	146.840000
763.888733	147.100000
763.930176	146.960000
763.971680	146.900000
764.013123	146.320000
764.054565	146.440000
764.096008	146.620000
764.137451	146.840000
764.178894	146.300000
764.220337	146.560000
764.261841	146.260000
764.303284	145.840000
764.344727	145.420000
764.386169	145.060000
764.427612	145.060000
764.469055	145.440000
764.510498	145.500000
764.552002	145.960000
764.593384	146.320000
764.634827	146.200000
764.676270	145.580000
764.717773	145.540000
764.759155	145.320000
764.800598	145.860000
764.842102	145.680000
764.883484	145.860000
764.924927	145.940000
764.966370	146.020000
765.007812	145.640000
765.049255	146.200000
765.090637	146.800000
765.132141	147.320000
765.173584	146.720000
765.214966	146.940000
765.256409	146.520000
765.297852	146.440000
765.339294	146.060000
765.380676	146.560000
765.422180	146.260000
765.463562	146.280000
765.505005	145.800000
765.546387	145.660000
765.587830	145.520000
765.629272	145.940000
765.670654	145.820000
765.712158	145.980000
765.753540	145.800000
765.794922	146.400000
765.836365	145.780000
765.877808	146.060000
765.919189	146.380000
765.960632	146.680000
766.002075	146.020000
766.043457	146.260000
766.084839	146.100000
766.126282	145.760000
766.167725	146.300000
766.209106	146.360000
766.250488	146.200000
766.291992	146.420000
766.333374	146.220000
766.374756	145.880000
766.416138	145.920000
766.457581	146.340000
766.498962	145.920000
766.540405	145.960000
766.581848	145.860000
766.623230	145.720000
766.664612	145.960000
766.705994	146.420000
766.747437	146.540000
766.788818	146.620000
766.830200	147.440000
766.871643	146.720000
766.913025	146.520000
766.954407	146.100000
766.995789	145.680000
767.037231	144.580000
767.078613	144.960000
767.119995	145.680000
767.161438	145.960000
767.202820	146.120000
767.244141	146.600000
767.285522	146.100000
767.326965	144.940000
767.368347	145.080000
767.409729	145.080000
767.451172	144.980000
767.492554	145.320000
767.533875	145.680000
767.575256	145.200000
767.616699	145.320000
767.658081	145.480000
767.699402	145.360000
767.740845	145.160000
767.782227	145.880000
767.823608	145.740000
767.864929	145.760000
767.906372	145.900000
767.947754	146.760000
767.989075	146.660000
768.030518	146.800000
768.071838	146.580000
768.113220	146.840000
768.154602	146.340000
768.195984	146.080000
768.237366	146.160000
768.278687	146.660000
768.320129	146.360000
768.361450	146.740000
768.402832	146.720000
768.444153	146.880000
768.485596	146.860000
768.526917	147.300000
768.568298	146.880000
768.609680	146.840000
768.651062	146.060000
768.692383	145.900000
768.733765	145.400000
768.775146	145.760000
768.816467	145.920000
768.857849	146.060000
768.899231	146.140000
768.940552	146.960000
768.981934	146.880000
769.023254	147.080000
769.064636	147.260000
769.106018	147.440000
769.147339	147.340000
769.188721	147.020000
769.230042	147.240000
769.271423	147.120000
769.312744	146.660000
769.354126	145.680000
769.395447	145.600000
769.436768	145.180000
769.478210	144.840000
769.519531	144.920000
769.560852	145.480000
769.602173	145.540000
769.643555	145.320000
769.684875	145.720000
769.726196	145.520000
769.767578	145.320000
769.808899	145.460000
769.850220	145.740000
769.891541	145.640000
769.932922	145.680000
769.974243	145.640000
770.015564	145.760000
770.056946	145.460000
770.098267	145.740000
770.139587	145.860000
770.180908	146.020000
770.222290	146.500000
770.263611	146.440000
770.304932	146.200000
770.346313	146.340000
770.387634	146.860000
770.428955	146.480000
770.470215	146.640000
770.511597	146.760000
770.552917	146.860000
770.594238	146.200000
770.635620	146.580000
770.676880	146.600000
770.718201	146.940000
770.759521	146.320000
770.800903	146.000000
770.842163	145.420000
770.883484	145.380000
770.924866	145.260000
770.966125	145.880000
771.007446	146.340000
771.048767	146.080000
771.090088	146.100000
771.131409	145.580000
771.172668	144.800000
771.214050	144.600000
771.255371	145.020000
771.296631	145.440000
771.337952	145.920000
771.379272	146.380000
771.420593	146.760000
771.461853	146.060000
771.503235	145.320000
771.544495	145.020000
771.585815	145.520000
771.627075	145.200000
771.668457	145.540000
771.709717	145.620000
771.751038	145.520000
771.792358	145.220000
771.833618	145.720000
771.874939	146.420000
771.916199	146.360000
771.957520	146.600000
771.998840	146.440000
772.040100	146.080000
772.081421	146.120000
772.122742	146.140000
772.164001	146.280000
772.205261	146.040000
772.246582	145.940000
772.287903	145.120000
772.329163	145.900000
772.370483	145.820000
772.411743	145.960000
772.453064	145.820000
772.494324	145.900000
772.535645	145.820000
772.576904	146.000000
772.618164	146.160000
772.659485	146.500000
772.700745	146.360000
772.742004	146.120000
772.783264	145.760000
772.824646	145.920000
772.865906	145.400000
772.907166	145.720000
772.948486	145.600000
772.989746	145.820000
773.031006	145.960000
773.072266	146.440000
773.113586	146.460000
773.154846	146.260000
773.196045	145.880000
773.237366	145.680000
773.278625	146.100000
773.319885	146.260000
773.361145	146.240000
773.402466	146.360000
773.443726	146.040000
773.484985	145.540000
773.526245	146.060000
773.567505	145.760000
773.608765	145.760000
773.650024	146.120000
773.691345	146.260000
773.732544	145.420000
773.773804	145.820000
773.815125	145.800000
773.856384	145.620000
773.897583	146.000000
773.938843	146.100000
773.980164	145.860000
774.021362	146.180000
774.062622	146.260000
774.103943	146.040000
774.145142	146.140000
774.186401	146.700000
774.227600	146.540000
774.268921	146.460000
774.310181	146.100000
774.351379	146.040000
774.392700	145.940000
774.433899	145.660000
774.475159	145.720000
774.516357	145.400000
774.557678	145.280000
774.598877	145.060000
774.640137	145.220000
774.681335	145.340000
774.722656	145.560000
774.763855	145.580000
774.805054	145.700000
774.846375	145.720000
774.887573	146.080000
774.928833	145.640000
774.970032	145.540000
775.011292	145.500000
775.052551	145.500000
775.093750	144.720000
775.135010	145.200000
775.176208	145.480000
775.217468	145.680000
775.258667	145.680000
775.299927	145.660000
775.341125	145.660000
775.382385	145.640000
775.423645	145.580000
775.464844	145.820000
775.506042	145.720000
775.547241	145.520000
775.588501	144.960000
775.629761	144.180000
775.670959	144.260000
775.712219	144.340000
775.753418	144.440000
775.794617	145.100000
775.835815	145.960000
775.877075	145.380000
775.918274	145.620000
775.959473	145.760000
776.000732	145.180000
776.041931	144.980000
776.083130	144.980000
776.124329	145.060000
776.165588	145.260000
776.206787	145.140000
776.247986	144.740000
776.289246	144.840000
776.330444	144.920000
776.371643	144.920000
776.412842	145.700000
776.454041	145.800000
776.495239	146.160000
776.536438	146.220000
776.577698	146.140000
776.618896	146.100000
776.660034	146.840000
776.701233	146.580000
776.742493	146.440000
776.783691	146.020000
776.824829	145.480000
776.866089	145.440000
776.907288	145.380000
776.948486	145.240000
776.989624	145.300000
777.030884	145.140000
777.072083	144.560000
777.113220	145.240000
777.154480	145.460000
777.195618	145.600000
777.236816	145.700000
777.278015	146.340000
777.319214	146.480000
777.360413	146.480000
777.401550	146.700000
777.442810	147.100000
777.483948	146.300000
777.525146	145.360000
777.566284	145.280000
777.607544	145.060000
777.648682	144.660000
777.689880	144.980000
777.731079	145.480000
777.772217	145.600000
777.813416	145.480000
777.854553	145.560000
777.895813	145.620000
777.936951	145.020000
777.978088	144.400000
778.019348	144.720000
778.060486	145.560000
778.101624	145.300000
778.142822	145.540000
778.184021	146.100000
778.225159	145.640000
778.266296	145.380000
778.307556	145.740000
778.348694	145.880000
778.389832	145.640000
778.430969	146.180000
778.472168	145.660000
778.513367	145.320000
778.554504	145.320000
778.595703	145.300000
778.636841	144.780000
778.677979	145.280000
778.719116	145.260000
778.760315	145.200000
778.801453	145.260000
778.842590	145.560000
778.883850	144.920000
778.924988	145.340000
778.966125	145.320000
779.007263	145.420000
779.048462	145.300000
779.089600	145.520000
779.130676	145.500000
779.171875	145.740000
779.213013	145.740000
779.254150	145.680000
779.295288	145.440000
779.336487	144.880000
779.377625	144.980000
779.418762	145.640000
779.459961	145.620000
779.501038	145.740000
779.542175	145.840000
779.583313	145.540000
779.624512	145.180000
779.665649	144.980000
779.706726	145.260000
779.747925	145.540000
779.789062	145.580000
779.830200	145.820000
779.871277	146.120000
779.912476	146.480000
779.953613	146.200000
779.994690	146.100000
780.035889	145.140000
780.077026	145.300000
780.118103	144.900000
780.159241	145.320000
780.200439	145.600000
780.241516	145.940000
780.282654	145.860000
780.323730	145.700000
780.364929	145.160000
780.406006	145.080000
780.447144	145.520000
780.488281	145.700000
780.529419	145.860000
780.570496	146.440000
780.611633	146.220000
780.652771	145.980000
780.693909	145.500000
780.734985	145.820000
780.776184	145.260000
780.817261	146.080000
780.858337	145.880000
780.899475	145.980000
780.940613	145.280000
780.981689	145.420000
781.022827	144.580000
781.063965	144.680000
781.105042	145.260000
781.146179	145.740000
781.187256	146.400000
781.228394	147.120000
781.269470	147.040000
781.310608	146.420000
781.351746	146.120000
781.392822	145.760000
781.433899	145.140000
781.474976	145.520000
781.516113	145.920000
781.557251	146.200000
781.598328	146.280000
781.639465	146.160000
781.680542	145.900000
781.721619	146.220000
781.762695	145.980000
781.803833	145.720000
781.844910	145.740000
781.885986	146.180000
781.927124	145.700000
781.968201	146.540000
782.009277	146.360000
782.050354	146.820000
782.091492	146.320000
782.132568	146.360000
782.173645	146.060000
782.214783	146.380000
782.255859	147.020000
782.296936	147.580000
782.338013	147.620000
782.379150	146.880000
782.420166	146.400000
782.461243	145.760000
782.502380	145.020000
782.543457	145.680000
782.584534	146.340000
782.625549	146.620000
782.666687	146.360000
782.707764	146.700000
782.748840	146.220000
782.789917	145.540000
782.830994	145.920000
782.872070	146.040000
782.913086	145.840000
782.954224	146.220000
782.995300	146.640000
783.036316	146.600000
783.077454	146.680000
783.118530	146.700000
783.159546	146.280000
783.200623	146.020000
783.241699	145.680000
783.282776	145.540000
783.323853	145.700000
783.364929	145.840000
783.406006	145.980000
783.447021	147.000000
783.488098	146.900000
783.529175	146.880000
783.570251	146.760000
783.611267	147.000000
783.652344	146.180000
783.693420	146.200000
783.734436	146.480000
783.775513	146.260000
783.816589	146.120000
783.857605	146.160000
783.898682	146.820000
783.939758	146.860000
783.980774	146.740000
784.021851	146.920000
784.062866	146.720000
784.103943	146.640000
784.144958	146.100000
784.186035	146.280000
784.227112	148.940000
784.268127	149.020000
784.309143	148.200000
784.350220	148.420000
784.391296	148.540000
784.432312	145.740000
784.473328	145.520000
784.514404	145.680000
784.555420	145.940000
784.596436	146.100000
784.637512	146.180000
784.678589	146.420000
784.719604	146.600000
784.760620	146.300000
784.801697	145.840000
784.842712	145.680000
784.883728	145.780000
784.924744	146.020000
784.965820	146.180000
785.006836	146.340000
785.047852	146.220000
785.088928	146.460000
785.129944	146.200000
785.170959	146.020000
785.211914	145.800000
785.252991	146.160000
785.294006	145.920000
785.335022	146.220000
785.376099	146.180000
785.417114	146.280000
785.458130	146.680000
785.499084	146.560000
785.540161	146.220000
785.581177	146.400000
785.622192	146.600000
785.663208	146.360000
785.704224	146.140000
785.745239	146.080000
785.786255	145.980000
785.827271	145.900000
785.868286	145.800000
785.909302	146.340000
785.950317	146.500000
785.991333	146.320000
786.032349	146.680000
786.073303	146.360000
786.114380	145.860000
786.155334	145.520000
786.196350	145.640000
786.237366	145.740000
786.278381	145.660000
786.319336	146.020000
786.360352	146.320000
786.401367	146.960000
786.442383	147.200000
786.483337	147.340000
786.524414	147.300000
786.565369	147.500000
786.606384	146.860000
786.647339	146.680000
786.688416	146.400000
786.729370	146.500000
786.770325	146.040000
786.811401	146.120000
786.852356	145.720000
786.893311	146.180000
786.934326	145.880000
786.975342	145.940000
787.016296	145.960000
787.057251	145.660000
787.098328	144.940000
787.139282	144.760000
787.180237	144.860000
787.221191	145.020000
787.262268	145.120000
787.303223	145.420000
787.344177	145.620000
787.385193	146.200000
787.426147	146.260000
787.467102	146.780000
787.508057	146.880000
787.549133	147.120000
787.590088	146.900000
787.631042	146.700000
787.672058	146.400000
787.713013	146.560000
787.753967	145.920000
787.794922	145.860000
787.835937	145.580000
787.876892	145.700000
787.917847	145.480000
787.958862	146.040000
787.999817	146.100000
788.040771	146.220000
788.081726	146.420000
788.122681	146.380000
788.163635	146.280000
788.204590	146.060000
788.245605	146.140000
788.286560	146.120000
788.327515	146.400000
788.368469	146.300000
788.409424	145.680000
788.450378	145.820000
788.491333	145.780000
788.532349	146.000000
788.573242	146.160000
788.614197	146.560000
788.655151	146.820000
788.696167	146.400000
788.737061	145.660000
788.778015	145.240000
788.819031	145.540000
788.859924	145.360000
788.900879	145.180000
788.941833	146.040000
788.982788	146.300000
789.023743	146.300000
789.064636	145.960000
789.105652	145.720000
789.146545	145.300000
789.187500	145.460000
789.228455	145.140000
789.269409	145.360000
789.310364	145.500000
789.351257	145.560000
789.392212	145.840000
789.433167	146.480000
789.474060	146.240000
789.515015	146.680000
789.555969	146.620000
789.596924	146.160000
789.637817	145.140000
789.678772	145.260000
789.719727	145.260000
789.760620	145.280000
789.801514	145.220000
789.842529	145.980000
789.883423	145.540000
789.924316	145.300000
789.965332	144.940000
790.006226	144.980000
790.047119	145.020000
790.088013	145.300000
790.128967	145.400000
790.169922	146.000000
790.210815	145.520000
790.251770	145.540000
790.292664	145.500000
790.333557	145.600000
790.374451	145.460000
790.415466	146.020000
790.456360	145.760000
790.497253	145.940000
790.538208	145.600000
790.579102	145.420000
790.619995	145.240000
790.660889	145.720000
790.701843	145.740000
790.742737	145.900000
790.783630	146.260000
790.824585	146.420000
790.865479	146.080000
790.906372	146.520000
790.947266	146.800000
790.988220	146.680000
791.029053	146.740000
791.069946	146.800000
791.110901	146.180000
791.151794	146.320000
791.192688	146.080000
791.233582	146.260000
791.274536	146.500000
791.315369	147.220000
791.356262	146.980000
791.397217	147.480000
791.438110	147.100000
791.478943	146.840000
791.519836	146.320000
791.560791	146.680000
791.601685	146.200000
791.642517	146.680000
791.683472	146.520000
791.724365	146.340000
791.765198	145.780000
791.806091	145.980000
791.846985	145.560000
791.887878	145.800000
791.928772	145.780000
791.969666	145.860000
792.010559	145.980000
792.051392	146.020000
792.092285	145.420000
792.133179	145.520000
792.174072	145.840000
792.214905	145.440000
792.255859	145.820000
792.296692	146.260000
792.337585	146.580000
792.378418	145.820000
792.419373	145.940000
792.460205	145.000000
792.501038	144.560000
792.541992	144.340000
792.582825	144.780000
792.623657	145.000000
792.664551	145.780000
792.705444	146.340000
792.746277	145.920000
792.787170	145.980000
792.828064	145.860000
792.868896	145.840000
792.909729	145.620000
792.950623	146.360000
792.991516	146.440000
793.032349	146.420000
793.073181	146.020000
793.114075	146.400000
793.154968	146.140000
793.195801	146.160000
793.236633	146.440000
793.277527	147.100000
793.318359	146.600000
793.359192	146.580000
793.400085	146.700000
793.440918	146.320000
793.481750	145.700000
793.522583	145.920000
793.563477	145.740000
793.604309	146.220000
793.645142	146.320000
793.686035	146.680000
793.726868	146.500000
793.767700	147.360000
793.808533	146.920000
793.849426	147.260000
793.890259	147.300000
793.931091	147.540000
793.971985	147.460000
794.012817	148.200000
794.053650	148.860000
794.094421	149.100000
794.135315	149.420000
794.176147	150.020000
794.216980	150.160000
794.257874	150.420000
794.298645	150.860000
794.339478	151.440000
794.380310	151.640000
794.421204	152.240000
794.461975	152.080000
794.502808	152.680000
794.543701	152.640000
794.584473	152.340000
794.625305	151.420000
794.666138	150.820000
794.706970	149.780000
794.747803	149.360000
794.788574	148.280000
794.829468	147.500000
794.870239	146.860000
794.911072	146.480000
794.951904	145.740000
794.992737	145.420000
795.033569	145.540000
795.074341	145.480000
795.115234	145.660000
795.156006	145.920000
795.196777	146.140000
795.237610	146.320000
795.278442	146.560000
795.319275	146.660000
795.360046	147.220000
795.400879	147.820000
795.441711	148.300000
795.482483	147.760000
795.523254	147.500000
795.564148	146.880000
795.604919	146.340000
795.645691	145.020000
795.686523	145.520000
795.727356	145.460000
795.768127	145.200000
795.808899	145.140000
795.849792	145.740000
795.890564	145.340000
795.931335	145.440000
795.972107	145.420000
796.012939	145.240000
796.053711	144.900000
796.094543	145.440000
796.135376	145.340000
796.176147	145.880000
796.216919	146.040000
796.257690	146.300000
796.298523	146.120000
796.339294	146.500000
796.380066	146.440000
796.420898	145.980000
796.461670	145.840000
796.502441	145.840000
796.543213	145.460000
796.584045	145.740000
796.624817	146.400000
796.665588	146.480000
796.706421	146.820000
796.747192	146.600000
796.787964	146.120000
796.828674	145.480000
796.869507	145.880000
796.910278	145.440000
796.951050	145.860000
796.991882	145.700000
797.032654	146.220000
797.073364	145.720000
797.114136	145.560000
797.154968	145.680000
797.195740	146.200000
797.236450	146.180000
797.277283	146.160000
797.318054	146.160000
797.358826	145.600000
797.399536	144.960000
797.440369	144.620000
797.481079	144.860000
797.521851	145.340000
797.562683	145.760000
797.603394	146.080000
797.644165	146.540000
797.684875	146.420000
797.725708	145.980000
797.766479	146.120000
797.807190	145.940000
797.848022	146.280000
797.888733	146.480000
797.929504	146.580000
797.970215	145.980000
798.011047	146.440000
798.051758	145.760000
798.092468	145.980000
798.133301	146.340000
798.174011	146.840000
798.214783	146.400000
798.255493	146.840000
798.296265	146.820000
798.337036	147.140000
798.377747	146.900000
798.418518	147.140000
798.459290	146.940000
798.500000	147.020000
798.540710	146.380000
798.581482	146.300000
798.622253	146.040000
798.662964	145.760000
798.703735	145.320000
798.744446	145.340000
798.785156	145.980000
798.825928	146.000000
798.866699	146.100000
798.907410	145.900000
798.948120	145.740000
798.988831	145.160000
799.029602	144.520000
799.070312	144.780000
799.111023	145.300000
799.151794	145.960000
799.192505	146.560000
799.233215	147.180000
799.273926	147.400000
799.314697	147.820000
799.355408	147.660000
799.396118	148.280000
799.436890	148.360000
799.477600	148.200000
799.518311	148.080000
799.559021	148.180000
799.599792	148.160000
799.640503	148.680000
799.681213	149.500000
799.721985	150.860000
799.762634	156.420000
799.803345	167.100000
799.844055	181.680000
799.884827	196.720000
799.925537	210.520000
799.966187	221.680000
800.006958	228.500000
800.047668	231.400000
800.088379	233.080000
800.129028	236.080000
800.169800	240.700000
800.210510	244.800000
800.251160	246.780000
800.291931	247.020000
800.332642	245.860000
800.373291	244.720000
800.414001	244.160000
800.454712	245.180000
800.495422	245.880000
800.536133	246.680000
800.576843	245.160000
800.617554	242.520000
800.658203	239.860000
800.698914	239.620000
800.739624	242.000000
800.780334	245.480000
800.820984	247.820000
800.861755	249.540000
800.902405	248.880000
800.943054	245.880000
800.983765	243.360000
801.024475	242.260000
801.065186	243.660000
801.105835	245.460000
801.146545	247.120000
801.187256	246.280000
801.227905	244.100000
801.268555	240.460000
801.309265	238.620000
801.349976	239.440000
801.390625	240.940000
801.431335	241.820000
801.471985	238.480000
801.512695	229.600000
801.553345	213.940000
801.594055	197.360000
801.634705	184.680000
801.675354	181.540000
801.716064	188.740000
801.756775	201.900000
801.797424	216.080000
801.838074	226.480000
801.878784	231.620000
801.919434	232.080000
801.960083	232.060000
802.000793	232.100000
802.041443	233.060000
802.082092	232.940000
802.122742	232.280000
802.163452	230.800000
802.204102	229.160000
802.244751	227.360000
802.285461	227.120000
802.326111	228.120000
802.366760	229.520000
802.407410	229.840000
802.448120	229.380000
802.488708	229.080000
802.529358	227.820000
802.570068	226.380000
802.610718	225.520000
802.651367	225.500000
802.691956	225.340000
802.732666	225.120000
802.773315	223.100000
802.813965	220.940000
802.854675	219.360000
802.895264	218.360000
802.935913	217.580000
802.976562	217.840000
803.017212	218.040000
803.057861	217.320000
803.098511	215.900000
803.139160	215.020000
803.179810	213.600000
803.220398	212.420000
803.261047	211.760000
803.301758	211.620000
803.342346	211.100000
803.382996	210.500000
803.423645	209.360000
803.464294	208.280000
803.504883	207.220000
803.545532	206.420000
803.586182	205.480000
803.626831	205.720000
803.667419	204.820000
803.708130	203.380000
803.748718	201.860000
803.789307	200.760000
803.829956	198.720000
803.870605	198.560000
803.911194	197.900000
803.951843	197.440000
803.992493	196.780000
804.033081	196.040000
804.073730	195.280000
804.114319	194.580000
804.154968	193.260000
804.195618	192.820000
804.236206	192.220000
804.276855	190.340000
804.317444	188.920000
804.358032	188.240000
804.398682	186.960000
804.439331	186.540000
804.479919	186.480000
804.520508	186.780000
804.561157	186.560000
804.601746	185.940000
804.642334	185.140000
804.682922	184.340000
804.723572	183.020000
804.764221	181.720000
804.804810	181.080000
804.845459	180.060000
804.886047	178.960000
804.926636	178.480000
804.967224	177.100000
805.007874	175.940000
805.048401	174.800000
805.088989	173.080000
805.129639	171.120000
805.170227	169.740000
805.210815	167.540000
805.251404	165.420000
805.292053	164.300000
805.332642	162.580000
805.373230	160.480000
805.413818	158.820000
805.454407	157.040000
805.494995	154.400000
805.535583	152.200000
805.576172	150.580000
805.616760	149.240000
805.657349	148.160000
805.697998	147.580000
805.738525	147.760000
805.779114	147.880000
805.819702	147.480000
805.860291	147.020000
805.900879	147.320000
805.941467	147.040000
805.982056	146.700000
806.022644	146.760000
806.063171	146.740000
806.103760	146.680000
806.144348	145.880000
806.184937	146.200000
806.225525	146.700000
806.266113	146.940000
806.306702	146.980000
806.347229	147.420000
806.387756	147.580000
806.428406	146.980000
806.468933	147.040000
806.509521	146.780000
806.550110	146.820000
806.590698	145.980000
806.631226	145.760000
806.671753	146.320000
806.712402	146.000000
806.752930	146.100000
806.793457	146.220000
806.834106	146.660000
806.874634	145.540000
806.915161	145.960000
806.955688	146.020000
806.996338	146.740000
807.036865	146.180000
807.077393	146.500000
807.117981	146.260000
807.158508	145.800000
807.199097	144.920000
807.239624	145.440000
807.280212	146.020000
807.320740	146.220000
807.361267	146.360000
807.401855	146.560000
807.442383	146.620000
807.482910	146.160000
807.523437	146.440000
807.564087	146.660000
807.604614	146.640000
807.645142	146.740000
807.685730	146.660000
807.726257	146.440000
807.766724	146.940000
807.807251	147.320000
807.847839	146.880000
807.888367	146.660000
807.928894	146.080000
807.969482	145.380000
808.010010	145.120000
808.050537	145.620000
808.091064	145.640000
808.131653	146.980000
808.172119	146.960000
808.212646	146.900000
808.253235	146.620000
808.293762	146.420000
808.334229	145.500000
808.374756	146.220000
808.415344	146.420000
808.455872	146.260000
808.496338	146.600000
808.536926	146.360000
808.577454	145.380000
808.617920	145.020000
808.658447	145.480000
808.699036	145.640000
808.739502	146.220000
808.780029	146.100000
808.820557	146.280000
808.861084	145.780000
808.901611	145.840000
808.942078	145.040000
808.982666	145.720000
809.023132	145.300000
809.063660	145.480000
809.104187	145.020000
809.144714	145.620000
809.185181	145.380000
809.225647	145.960000
809.266235	145.880000
809.306702	146.000000
809.347229	145.700000
809.387756	145.940000
809.428223	145.820000
809.468750	145.940000
809.509216	145.860000
809.549744	145.980000
809.590271	145.400000
809.630737	145.220000
809.671265	145.100000
809.711731	145.160000
809.752258	145.240000
809.792725	145.520000
809.833252	145.780000
809.873718	146.080000
809.914246	146.460000
809.954773	146.400000
809.995239	146.740000
810.035706	146.900000
810.076172	146.240000
810.116699	146.360000
810.157166	146.620000
810.197632	146.180000
810.238159	145.660000
810.278687	145.820000
810.319153	145.740000
810.359619	145.560000
810.400146	145.720000
810.440613	146.460000
810.481079	146.580000
810.521606	146.400000
810.562012	146.060000
810.602478	146.260000
810.642944	145.280000
810.683472	145.600000
810.723938	146.220000
810.764404	146.440000
810.804932	146.300000
810.845398	146.940000
810.885864	146.680000
810.926270	146.220000
810.966797	145.720000
811.007263	145.540000
811.047729	145.600000
811.088196	145.680000
811.128662	145.420000
811.169128	146.120000
811.209595	145.860000
811.250061	145.480000
811.290527	144.920000
811.330994	145.060000
811.371460	144.680000
811.411926	145.060000
811.452393	145.380000
811.492798	146.020000
811.533325	146.120000
811.573730	146.300000
811.614197	146.220000
811.654663	146.720000
811.695129	146.500000
811.735535	146.660000
811.776001	147.060000
811.816467	147.660000
811.856934	147.040000
811.897339	147.200000
811.937866	146.640000
811.978271	146.440000
812.018738	145.980000
812.059143	145.820000
812.099609	145.520000
812.140076	145.680000
812.180481	145.520000
812.221008	145.660000
812.261414	145.860000
812.301819	145.820000
812.342224	145.440000
812.382751	145.160000
812.423157	145.400000
812.463562	145.380000
812.504089	145.600000
812.544495	146.100000
812.584900	146.060000
812.625305	145.800000
812.665771	145.560000
812.706177	145.900000
812.746643	145.740000
812.787109	146.140000
812.827515	146.220000
812.867920	146.280000
812.908325	146.040000
812.948792	145.900000
812.989197	145.740000
813.029602	145.380000
813.070068	145.740000
813.110474	145.240000
813.150879	145.040000
813.191284	145.500000
813.231750	145.380000
813.272156	145.400000
813.312561	146.120000
813.353027	146.200000
813.393433	146.400000
813.433838	146.560000
813.474243	146.620000
813.514709	146.380000
813.555054	147.620000
813.595459	147.040000
813.635925	147.240000
813.676331	147.120000
813.716736	147.320000
813.757080	146.260000
813.797546	145.840000
813.837952	146.480000
813.878357	146.800000
813.918762	146.760000
813.959167	146.860000
813.999573	147.140000
814.039978	146.600000
814.080383	146.140000
814.120789	145.720000
814.161133	145.480000
814.201599	145.760000
814.242004	145.760000
814.282349	145.300000
814.322754	145.680000
814.363159	146.140000
814.403564	146.300000
814.443909	146.060000
814.484375	146.080000
814.524719	146.140000
814.565125	146.080000
814.605469	145.600000
814.645935	146.380000
814.686279	146.540000
814.726685	146.520000
814.767090	146.420000
814.807434	146.760000
814.847839	145.420000
814.888184	145.920000
814.928650	145.540000
814.968994	145.940000
815.009338	145.240000
815.049744	146.080000
815.090149	145.320000
815.130493	145.240000
815.170837	144.900000
815.211304	145.480000
815.251648	145.380000
815.291992	145.620000
815.332397	146.140000
815.372742	146.320000
815.413086	146.200000
815.453491	145.980000
815.493896	146.140000
815.534241	145.540000
815.574585	145.380000
815.614990	145.960000
815.655334	146.280000
815.695679	146.300000
815.736023	146.960000
815.776428	146.760000
815.816772	145.880000
815.857117	146.220000
815.897522	146.400000
815.937866	145.580000
815.978210	145.380000
816.018555	145.960000
816.058960	145.760000
816.099304	145.240000
816.139648	145.460000
816.180054	146.040000
816.220398	145.880000
816.260681	145.520000
816.301025	145.880000
816.341431	146.400000
816.381775	146.320000
816.422119	146.460000
816.462524	146.100000
816.502808	146.140000
816.543152	145.900000
816.583496	145.800000
816.623840	145.660000
816.664185	145.960000
816.704529	145.860000
816.744934	146.000000
816.785217	145.840000
816.825562	145.760000
816.865845	145.980000
816.906250	146.080000
816.946594	145.680000
816.986877	146.120000
817.027283	145.680000
817.067566	145.400000
817.107910	145.300000
817.148193	145.620000
817.188599	145.320000
817.228882	146.040000
817.269226	146.160000
817.309570	146.460000
817.349915	146.460000
817.390198	146.820000
817.430542	146.260000
817.470886	146.220000
817.511169	145.760000
817.551514	145.740000
817.591858	145.300000
817.632202	145.800000
817.672485	145.920000
817.712769	146.220000
817.753113	146.240000
817.793457	146.540000
817.833740	146.520000
817.874084	146.420000
817.914368	146.160000
817.954712	145.960000
817.994995	145.520000
818.035339	144.980000
818.075623	145.340000
818.115906	145.860000
818.156311	145.820000
818.196594	146.440000
818.236877	146.660000
818.277161	146.820000
818.317505	146.380000
818.357788	146.300000
818.398071	145.600000
818.438416	145.340000
818.478699	144.340000
818.518982	144.060000
818.559265	144.180000
818.599609	143.920000
818.639893	144.340000
818.680176	145.300000
818.720459	145.640000
818.760803	145.940000
818.801086	146.920000
818.841370	147.000000
818.881714	146.160000
818.921997	146.120000
818.962219	145.600000
819.002502	145.100000
819.042847	145.000000
819.083130	145.120000
819.123413	145.180000
819.163696	145.380000
819.203979	145.080000
819.244263	145.280000
819.284546	145.560000
819.324829	145.540000
819.365112	145.700000
819.405396	145.960000
819.445679	145.940000
819.485962	145.800000
819.526245	145.780000
819.566467	146.140000
819.606812	146.240000
819.647034	146.180000
819.687317	146.440000
819.727600	146.580000
819.767883	146.480000
819.808167	146.120000
819.848389	146.160000
819.888733	147.060000
819.928955	146.760000
819.969238	146.180000
820.009460	146.200000
820.049805	146.500000
820.090027	145.060000
820.130249	145.380000
820.170593	145.600000
820.210815	145.860000
820.251099	145.240000
820.291321	145.640000
820.331604	145.620000
820.371887	145.680000
820.412109	145.440000
820.452393	145.260000
820.492615	145.300000
820.532898	145.620000
820.573120	145.520000
820.613403	146.120000
820.653625	146.100000
820.693909	146.140000
820.734192	145.980000
820.774414	145.980000
820.814636	145.760000
820.854858	146.700000
820.895142	146.960000
820.935364	146.760000
820.975647	146.980000
821.015930	146.280000
821.056152	146.020000
821.096375	145.840000
821.136597	145.560000
821.176880	145.900000
821.217102	146.520000
821.257324	146.360000
821.297607	146.040000
821.337830	146.380000
821.378052	145.640000
821.418274	145.400000
821.458496	145.360000
821.498718	145.980000
821.538940	145.980000
821.579224	146.440000
821.619446	146.560000
821.659668	146.800000
821.699890	146.720000
821.740112	146.520000
821.780334	146.200000
821.820557	146.420000
821.860840	146.520000
821.901001	146.260000
821.941223	146.160000
821.981445	146.920000
822.021729	146.740000
822.061890	146.480000
822.102112	146.340000
822.142395	147.120000
822.182556	146.440000
822.222778	146.860000
822.262939	146.100000
822.303223	146.300000
822.343445	145.500000
822.383606	145.900000
822.423889	145.060000
822.464050	145.800000
822.504272	145.860000
822.544434	146.420000
822.584717	146.640000
822.624878	147.220000
822.665100	147.320000
822.705322	146.960000
822.745544	146.360000
822.785706	145.960000
822.825867	145.800000
822.866150	145.340000
822.906311	145.400000
822.946533	145.740000
822.986755	145.160000
823.026917	145.080000
823.067139	145.000000
823.107300	145.260000
823.147522	145.600000
823.187683	145.820000
823.227905	146.000000
823.268127	146.620000
823.308289	146.280000
823.348450	145.860000
823.388611	145.980000
823.428894	145.960000
823.469055	145.680000
823.509216	145.800000
823.549438	146.160000
823.589600	146.080000
823.629761	146.320000
823.669922	146.140000
823.710144	145.980000
823.750305	146.160000
823.790466	146.300000
823.830688	146.480000
823.870850	146.560000
823.911011	146.940000
823.951172	146.780000
823.991394	146.980000
824.031555	146.540000
824.071716	146.060000
824.111938	146.000000
824.152100	145.760000
824.192261	145.060000
824.232422	145.140000
824.272644	145.580000
824.312744	145.280000
824.352905	145.720000
824.393127	146.760000
824.433289	146.660000
824.473450	147.020000
824.513550	147.300000
824.553772	146.780000
824.593933	146.300000
824.634094	146.240000
824.674255	146.140000
824.714417	146.600000
824.754578	146.580000
824.794678	146.360000
824.834900	146.380000
824.875061	145.840000
824.915161	145.040000
824.955383	144.580000
824.995483	144.680000
825.035645	144.400000
825.075745	145.340000
825.115967	145.380000
825.156067	145.620000
825.196228	145.400000
825.236389	145.760000
825.276550	145.080000
825.316650	145.520000
825.356812	146.040000
825.396973	146.140000
825.437134	146.480000
825.477234	146.460000
825.517395	145.760000
825.557556	145.880000
825.597656	146.060000
825.637756	145.740000
825.677979	145.780000
825.718079	146.020000
825.758179	145.740000
825.798401	145.600000
825.838501	145.680000
825.878601	145.940000
825.918701	146.360000
825.958923	145.980000
825.999023	146.080000
826.039124	146.300000
826.079285	145.820000
826.119385	145.540000
826.159485	145.640000
826.199646	145.700000
826.239807	145.960000
826.279907	145.440000
826.320007	145.200000
826.360168	145.500000
826.400269	145.680000
826.440369	145.100000
826.480469	146.160000
826.520630	146.340000
826.560730	146.140000
826.600830	146.320000
826.640991	146.420000
826.681091	146.100000
826.721191	146.160000
826.761292	145.840000
826.801453	145.320000
826.841492	145.160000
826.881592	145.400000
826.921753	145.320000
826.961853	145.940000
827.001953	145.860000
827.042053	145.920000
827.082153	146.060000
827.122253	146.040000
827.162354	146.380000
827.202515	146.540000
827.242554	146.440000
827.282654	146.340000
827.322754	146.560000
827.362854	145.900000
827.402954	145.900000
827.443054	145.860000
827.483154	145.420000
827.523254	145.440000
827.563354	145.180000
827.603394	145.040000
827.643555	145.320000
827.683594	145.780000
827.723694	145.860000
827.763794	146.060000
827.803894	146.140000
827.843933	145.860000
827.884033	145.780000
827.924133	145.780000
827.964233	145.440000
828.004272	145.500000
828.044434	145.440000
828.084473	145.380000
828.124512	144.880000
828.164612	145.100000
828.204712	144.980000
828.244751	145.640000
828.284851	145.640000
828.324951	145.780000
828.364990	145.940000
828.405090	146.300000
828.445129	145.720000
828.485229	145.980000
828.525269	146.260000
828.565369	146.640000
828.605469	146.840000
828.645508	147.200000
828.685547	146.380000
828.725586	146.420000
828.765686	146.300000
828.805786	146.100000
828.845825	145.440000
828.885925	146.000000
828.925964	145.140000
828.966003	145.000000
829.006042	144.640000
829.046143	145.400000
829.086182	145.020000
829.126221	145.940000
829.166321	145.960000
829.206360	145.900000
829.246399	145.320000
829.286438	146.000000
829.326538	145.880000
829.366577	145.540000
829.406616	145.900000
829.446655	146.180000
829.486694	145.400000
829.526733	145.380000
829.566772	145.720000
829.606873	145.680000
829.646912	145.820000
829.686890	146.420000
829.726990	146.200000
829.767029	145.840000
829.807068	145.780000
829.847046	145.500000
829.887146	145.460000
829.927185	145.480000
829.967163	145.500000
830.007263	145.580000
830.047302	145.720000
830.087280	145.560000
830.127319	146.220000
830.167419	146.100000
830.207397	145.860000
830.247437	145.760000
830.287476	145.540000
830.327515	144.740000
830.367493	145.380000
830.407532	145.420000
830.447571	145.380000
830.487610	145.200000
830.527588	145.180000
830.567688	145.000000
830.607666	144.900000
830.647705	145.360000
830.687683	145.320000
830.727722	145.640000
830.767761	145.460000
830.807739	145.300000
830.847839	145.100000
830.887817	145.260000
830.927795	144.780000
830.967773	144.680000
831.007874	145.140000
831.047852	144.780000
831.087830	144.960000
831.127930	145.240000
831.167908	144.920000
831.207886	144.840000
831.247864	145.420000
831.287903	145.480000
831.327881	145.240000
831.367920	145.240000
831.407959	144.900000
831.447937	144.460000
831.487915	144.580000
831.527893	145.400000
831.567932	146.080000
831.607910	146.580000
831.647888	146.520000
831.687927	146.420000
831.727905	146.120000
831.767883	146.160000
831.807861	145.820000
831.847900	145.840000
831.887878	145.760000
831.927856	145.780000
831.967896	145.400000
832.007874	145.800000
832.047852	145.980000
832.087769	145.800000
832.127808	145.160000
832.167786	145.240000
832.207764	144.900000
832.247803	146.980000
832.287781	147.620000
832.327698	148.280000
832.367676	148.000000
832.407715	148.080000
832.447693	146.020000
832.487610	145.100000
832.527649	144.600000
832.567627	144.680000
832.607544	144.820000
832.647522	144.420000
832.687561	144.760000
832.727478	145.180000
832.767456	145.280000
832.807434	145.400000
832.847412	145.340000
832.887329	145.540000
832.927307	145.080000
832.967346	145.160000
833.007263	145.020000
833.047241	144.920000
833.087219	144.940000
833.127136	145.000000
833.167114	144.780000
833.207031	144.360000
833.247070	144.920000
833.286987	144.860000
833.326965	145.360000
833.366943	145.800000
833.406860	146.440000
833.446838	146.300000
833.486755	146.220000
833.526733	145.900000
833.566711	145.640000
833.606628	145.520000
833.646606	145.460000
833.686523	145.600000
833.726501	145.700000
833.766418	145.480000
833.806396	145.060000
833.846313	144.760000
833.886230	144.540000
833.926208	144.460000
833.966187	144.500000
834.006104	144.720000
834.046021	145.160000
834.085999	145.580000
834.125916	146.120000
834.165833	146.480000
834.205811	146.200000
834.245728	149.040000
834.285645	148.220000
834.325562	147.860000
834.365540	148.220000
834.405457	148.200000
834.445374	145.220000
834.485352	145.360000
834.525269	145.020000
834.565186	144.080000
834.605103	144.720000
834.645081	145.380000
834.684937	145.500000
834.724854	145.720000
834.764832	146.100000
834.804749	146.200000
834.844666	145.500000
834.884521	145.840000
834.924500	145.960000
834.964417	145.900000
835.004333	145.580000
835.044250	145.340000
835.084167	145.220000
835.124084	145.140000
835.163940	145.180000
835.203918	145.140000
835.243835	145.340000
835.283691	145.260000
835.323669	145.260000
835.363586	145.240000
835.403442	144.800000
835.443359	145.160000
835.483276	145.500000
835.523193	145.600000
835.563049	145.960000
835.603027	146.580000
835.642883	146.600000
835.682800	146.740000
835.722656	146.880000
835.762634	146.740000
835.802490	146.660000
835.842346	146.300000
835.882324	146.240000
835.922180	145.820000
835.962097	145.900000
836.001953	146.320000
836.041870	146.320000
836.081787	146.060000
836.121643	146.320000
836.161560	146.400000
836.201416	145.840000
836.241333	145.540000
836.281189	145.260000
836.321106	145.220000
836.360962	145.000000
836.400879	144.940000
836.440796	144.860000
836.480652	145.220000
836.520508	145.120000
836.560364	144.900000
836.600281	144.760000
836.640137	145.260000
836.679993	145.640000
836.719910	145.680000
836.759827	145.960000
836.799683	146.320000
836.839539	146.060000
836.879456	145.700000
836.919312	145.540000
836.959167	145.560000
836.999023	145.340000
837.038879	145.380000
837.078735	145.220000
837.118591	145.440000
837.158508	145.580000
837.198364	146.140000
837.238220	146.600000
837.278137	146.540000
837.317993	146.760000
837.357788	146.660000
837.397644	146.200000
837.437561	145.700000
837.477417	146.320000
837.517212	146.020000
837.557129	146.120000
837.596985	146.060000
837.636841	146.260000
837.676636	145.840000
837.716553	146.160000
837.756409	146.000000
837.796204	146.100000
837.836121	146.420000
837.875977	146.160000
837.915771	145.940000
837.955627	145.760000
837.995483	146.160000
838.035339	145.720000
838.075134	145.700000
838.115051	145.500000
838.154846	145.980000
838.194702	145.560000
838.234497	145.680000
838.274414	145.920000
838.314209	145.620000
838.354065	144.880000
838.393921	144.520000
838.433716	144.400000
838.473572	144.380000
838.513367	145.320000
838.553284	145.380000
838.593079	145.440000
838.632874	145.120000
838.672729	144.700000
838.712585	144.260000
838.752380	144.760000
838.792175	145.020000
838.832031	145.440000
838.871887	145.920000
838.911682	146.480000
838.951538	146.140000
838.991333	146.260000
839.031128	145.780000
839.070984	145.520000
839.110840	144.980000
839.150635	145.120000
839.190430	144.700000
839.230225	145.400000
839.270081	145.440000
839.309875	144.920000
839.349670	144.920000
839.389526	145.440000
839.429321	144.940000
839.469116	144.620000
839.508911	145.000000
839.548767	145.400000
839.588562	144.920000
839.628357	145.100000
839.668213	145.480000
839.708008	145.580000
839.747803	145.380000
839.787537	145.460000
839.827393	145.980000
839.867187	146.360000
839.906982	146.380000
839.946838	146.140000
839.986633	146.480000
840.026367	146.260000
840.066162	145.880000
840.106018	145.740000
840.145752	145.980000
840.185547	145.860000
840.225342	145.860000
840.265198	145.680000
840.304932	146.040000
840.344727	145.740000
840.384521	145.840000
840.424316	145.700000
840.464111	146.560000
840.503845	146.200000
840.543701	146.440000
840.583435	146.080000
840.623230	146.420000
840.663025	145.660000
840.702820	145.680000
840.742554	145.680000
840.782349	146.240000
840.822144	146.040000
840.861938	146.480000
840.901672	146.520000
840.941528	146.720000
840.981262	146.420000
841.020996	145.980000
841.060791	146.160000
841.100586	145.920000
841.140320	145.400000
841.180115	145.620000
841.219910	145.760000
841.259644	145.500000
841.299377	145.540000
841.339172	145.780000
841.378967	145.280000
841.418701	145.420000
841.458435	145.140000
841.498291	145.320000
841.538025	145.600000
841.577759	145.640000
841.617493	145.520000
841.657288	146.000000
841.697021	146.340000
841.736755	145.780000
841.776550	146.160000
841.816284	146.440000
841.856079	145.860000
841.895813	145.900000
841.935608	146.500000
841.975342	146.400000
842.015076	145.640000
842.054810	146.040000
842.094543	145.260000
842.134277	144.740000
842.174011	144.160000
842.213806	144.920000
842.253540	144.780000
842.293274	144.900000
842.333069	145.560000
842.372803	146.040000
842.412476	145.680000
842.452209	145.920000
842.492004	146.240000
842.531738	145.920000
842.571472	145.640000
842.611206	146.140000
842.650940	145.480000
842.690674	145.600000
842.730347	145.800000
842.770142	146.200000
842.809875	145.880000
842.849548	146.000000
842.889343	146.080000
842.929077	145.780000
842.968750	145.600000
843.008484	145.240000
843.048218	145.420000
843.087952	144.980000
843.127686	144.720000
843.167419	144.940000
843.207153	145.440000
843.246826	145.780000
843.286560	146.000000
843.326294	145.920000
843.365967	145.820000
843.405701	145.620000
843.445435	145.440000
843.485168	145.720000
843.524841	145.820000
843.564514	145.780000
843.604309	145.380000
843.643982	145.440000
843.683655	145.100000
843.723450	144.880000
843.763123	147.240000
843.802795	147.920000
843.842529	147.700000
843.882263	148.260000
843.921936	148.300000
843.961609	145.680000
844.001343	145.380000
844.041077	145.480000
844.080750	144.740000
844.120422	145.440000
844.160156	145.760000
844.199829	146.200000
844.239502	146.300000
844.279236	146.640000
844.318909	148.040000
844.358582	148.080000
844.398254	147.680000
844.437988	147.760000
844.477661	147.520000
844.517334	146.000000
844.557068	145.560000
844.596741	145.940000
844.636414	145.520000
844.676086	145.800000
844.715820	145.400000
844.755493	146.320000
844.795166	146.080000
844.834900	146.180000
844.874573	146.000000
844.914185	145.800000
844.953857	145.240000
844.993591	145.160000
845.033264	145.120000
845.072937	145.020000
845.112610	145.460000
845.152283	145.380000
845.191956	145.660000
845.231567	145.600000
845.271301	145.800000
845.310974	145.960000
845.350586	145.940000
845.390320	145.480000
845.429993	145.560000
845.469604	145.460000
845.509277	144.900000
845.548950	145.580000
845.588623	145.460000
845.628296	145.660000
845.667969	145.560000
845.707642	146.020000
845.747253	145.300000
845.786926	145.200000
845.826599	145.280000
845.866211	145.360000
845.905884	145.140000
845.945557	145.220000
845.985229	145.720000
846.024841	145.180000
846.064453	145.220000
846.104187	145.160000
846.143799	144.960000
846.183411	144.860000
846.223145	145.460000
846.262756	145.560000
846.302368	145.400000
846.342041	145.420000
846.381714	145.400000
846.421326	144.840000
846.460937	144.280000
846.500610	144.660000
846.540283	144.420000
846.579895	144.820000
846.619507	145.140000
846.659180	145.480000
846.698792	145.320000
846.738403	145.500000
846.778076	145.400000
846.817688	145.420000
846.857300	145.360000
846.896912	145.580000
846.936584	145.240000
846.976196	144.960000
847.015808	144.860000
847.055481	145.800000
847.095093	145.500000
847.134705	146.380000
847.174316	146.480000
847.213989	146.760000
847.253601	146.000000
847.293213	145.820000
847.332886	145.660000
847.372498	145.400000
847.412048	144.880000
847.451660	145.040000
847.491333	145.140000
847.530945	145.020000
847.570557	144.920000
847.610168	145.480000
847.649780	145.180000
847.689392	145.380000
847.728943	145.160000
847.768616	145.700000
847.808228	145.700000
847.847778	145.680000
847.887451	145.800000
847.927063	146.080000
847.966614	145.640000
848.006226	145.240000
848.045898	145.460000
848.085449	145.260000
848.125061	144.700000
848.164673	145.500000
848.204285	145.080000
848.243835	145.040000
848.283447	145.060000
848.323059	145.500000
848.362610	144.980000
848.402222	145.640000
848.441833	145.820000
848.481445	146.080000
848.520996	145.980000
848.560547	145.980000
848.600220	145.940000
848.639771	145.880000
848.679321	146.120000
848.718994	146.380000
848.758545	146.420000
848.798096	147.220000
848.837708	146.800000
848.877319	146.840000
848.916870	146.220000
848.956421	146.100000
848.996033	145.020000
849.035645	145.460000
849.075195	144.940000
849.114746	145.380000
849.154358	145.380000
849.193909	145.380000
849.233459	145.320000
849.273071	145.160000
849.312622	144.820000
849.352173	144.580000
849.391724	144.760000
849.431335	144.520000
849.470886	144.860000
849.510437	145.140000
849.550049	145.180000
849.589600	144.960000
849.629150	145.140000
849.668701	144.940000
849.708313	145.200000
849.747864	145.680000
849.787415	145.860000
849.827026	146.040000
849.866577	145.900000
849.906067	145.900000
849.945618	145.640000
849.985229	145.640000
850.024780	145.400000
850.064270	145.280000
850.103882	144.980000
850.143433	144.800000
850.182983	145.140000
850.222473	145.220000
850.262085	145.540000
850.301636	145.420000
850.341125	145.860000
850.380737	146.020000
850.420288	145.860000
850.459778	145.740000
850.499329	146.260000
850.538879	146.060000
850.578430	145.640000
850.617920	145.960000
850.657532	145.920000
850.697021	145.920000
850.736572	145.680000
850.776062	145.680000
850.815674	145.800000
850.855164	146.040000
850.894714	145.620000
850.934265	145.280000
850.973755	145.220000
851.013306	144.700000
851.052795	144.720000
851.092407	144.820000
851.131897	145.520000
851.171387	145.440000
851.210937	147.500000
851.250488	147.340000
851.289978	147.180000
851.329468	146.720000
851.369019	146.480000
851.408569	144.460000
851.448059	144.660000
851.487610	145.180000
851.527100	145.620000
851.566589	146.200000
851.606079	146.980000
851.645691	147.320000
851.685181	147.240000
851.724670	147.040000
851.764221	147.000000
851.803711	146.440000
851.843201	146.100000
851.882690	145.960000
851.922241	145.480000
851.961731	145.540000
852.001221	145.460000
852.040771	146.000000
852.080261	146.120000
852.119751	146.320000
852.159241	146.140000
852.198792	146.000000
852.238220	145.380000
852.277710	145.220000
852.317261	145.520000
852.356750	145.720000
852.396240	145.960000
852.435730	146.180000
852.475220	146.020000
852.514709	146.160000
852.554199	145.840000
852.593750	145.980000
852.633179	145.500000
852.672668	146.000000
852.712158	145.540000
852.751648	145.820000
852.791138	145.520000
852.830627	145.400000
852.870117	144.560000
852.909607	144.640000
852.949036	144.480000
852.988525	144.600000
853.028015	145.220000
853.067505	145.900000
853.106995	145.880000
853.146484	145.860000
853.185974	145.700000
853.225403	145.580000
853.264832	145.040000
853.304382	145.260000
853.343811	145.180000
853.383301	145.500000
853.422791	145.120000
853.462280	145.320000
853.501709	145.140000
853.541138	144.980000
853.580688	144.500000
853.620117	144.680000
853.659546	144.760000
853.699036	145.060000
853.738525	145.160000
853.777954	145.440000
853.817383	145.280000
853.856873	145.460000
853.896362	145.300000
853.935791	145.300000
853.975281	145.380000
854.014709	146.140000
854.054138	145.720000
854.093567	145.720000
854.133057	146.000000
854.172546	145.880000
854.211975	145.340000
854.251465	146.380000
854.290894	146.240000
854.330322	146.300000
854.369751	145.840000
854.409241	145.420000
854.448669	144.440000
854.488098	144.760000
854.527588	144.180000
854.566956	144.700000
854.606384	145.460000
854.645813	145.240000
854.685303	145.020000
854.724731	145.480000
854.764160	145.300000
854.803650	144.660000
854.843079	145.180000
854.882446	144.980000
854.921875	145.100000
854.961365	145.440000
855.000793	145.860000
855.040161	145.660000
855.079651	145.560000
855.119080	145.140000
855.158447	144.920000
855.197876	144.400000
855.237366	144.220000
855.276733	144.840000
855.316162	144.320000
855.355652	144.480000
855.395020	145.360000
855.434448	145.760000
855.473816	145.620000
855.513306	145.980000
855.552673	146.260000
855.592102	146.020000
855.631531	146.100000
855.670959	145.740000
855.710327	145.840000
855.749756	145.640000
855.789185	145.200000
855.828613	145.060000
855.867981	145.360000
855.907410	145.660000
855.946838	144.940000
855.986206	145.520000
856.025574	145.500000
856.065063	145.280000
856.104431	145.180000
856.143799	145.780000
856.183228	145.600000
856.222656	145.880000
856.262024	146.220000
856.301392	145.840000
856.340820	145.440000
856.380249	145.960000
856.419617	146.300000
856.459045	146.040000
856.498413	146.660000
856.537781	147.600000
856.577148	147.000000
856.616577	146.360000
856.655945	146.920000
856.695312	146.740000
856.734741	146.040000
856.774109	146.140000
856.813477	146.240000
856.852844	145.540000
856.892273	145.220000
856.931641	145.400000
856.971008	145.100000
857.010437	145.140000
857.049805	145.320000
857.089172	145.560000
857.128540	145.800000
857.167969	145.680000
857.207336	145.280000
857.246643	144.800000
857.286072	144.700000
857.325439	144.520000
857.364807	144.500000
857.404175	144.480000
857.443542	145.080000
857.482910	145.560000
857.522278	145.160000
857.561646	145.640000
857.601013	145.940000
857.640381	145.700000
857.679687	145.480000
857.719116	145.600000
857.758484	145.120000
857.797791	145.100000
857.837219	145.000000
857.876526	144.660000
857.915894	144.760000
857.955200	145.440000
857.994629	145.240000
858.033936	145.140000
858.073303	144.840000
858.112671	144.520000
858.152039	143.960000
858.191345	143.980000
858.230713	144.220000
858.270081	144.520000
858.309387	144.740000
858.348755	145.040000
858.388123	144.820000
858.427490	144.960000
858.466797	145.080000
858.506104	145.080000
858.545471	144.600000
858.584839	144.940000
858.624146	145.220000
858.663513	145.320000
858.702820	145.460000
858.742187	145.740000
858.781494	145.760000
858.820862	145.500000
858.860168	145.300000
858.899475	145.460000
858.938843	145.160000
858.978210	145.120000
859.017517	145.460000
859.056824	145.540000
859.096130	145.540000
859.135498	145.620000
859.174805	145.740000
859.214172	145.460000
859.253479	145.460000
859.292786	145.180000
859.332092	146.080000
859.371399	145.820000
859.410767	145.320000
859.450073	145.460000
859.489380	145.400000
859.528687	145.080000
859.567993	144.940000
859.607300	144.840000
859.646606	144.800000
859.685974	145.080000
859.725220	144.700000
859.764587	145.420000
859.803894	146.240000
859.843201	146.580000
859.882507	146.620000
859.921753	146.700000
859.961121	146.400000
860.000427	146.300000
860.039734	145.840000
860.079041	0.000000
860.118347	0.000000
860.157593	0.000000
860.196899	0.000000
860.236206	0.000000
860.275513	0.000000
860.314880	0.000000
860.354126	0.000000
860.393433	0.000000
860.432678	0.000000
860.471985	0.000000
860.511292	0.000000
860.550598	0.000000
860.589905	0.000000
860.629150	0.000000
860.668457	0.000000
860.707703	0.000000
860.747009	0.000000
860.786316	0.000000
860.825562	0.000000
860.864929	0.000000
860.904175	0.000000
860.943420	0.000000
860.982666	0.000000
861.021973	0.000000
861.061279	0.000000
861.100525	0.000000
861.139832	0.000000
861.179138	0.000000
861.218384	0.000000
861.257629	0.000000
861.296875	0.000000
861.336182	0.000000
861.375427	0.000000
861.414734	0.000000
861.453979	0.000000
861.493286	0.000000
861.532532	0.000000
861.571777	0.000000
861.611084	0.000000
861.650330	0.000000
861.689636	0.000000
861.728882	0.000000
861.768127	0.000000
861.807312	0.000000
861.846558	0.000000
861.885864	0.000000
861.925110	0.000000
861.964417	0.000000
862.003662	0.000000
862.042908	0.000000
862.082153	0.000000
862.121338	0.000000
862.160645	0.000000
862.199890	0.000000
862.239197	0.000000
862.278381	0.000000
862.317627	0.000000
862.356873	0.000000
862.396057	0.000000
862.435364	0.000000
862.474609	0.000000
862.513855	0.000000
862.553101	0.000000
862.592346	0.000000
862.631531	0.000000
862.670776	0.000000
862.710022	0.000000
862.749268	0.000000
862.788513	0.000000
862.827759	0.000000
862.866943	0.000000
862.906189	0.000000
862.945374	0.000000
862.984680	0.000000
863.023865	0.000000
863.063171	0.000000
863.102356	0.000000
863.141541	0.000000
863.180786	0.000000
863.219971	0.000000
863.259216	0.000000
863.298462	0.000000
863.337708	0.000000
863.376892	0.000000
863.416138	0.000000
863.455322	0.000000
863.494507	0.000000
863.533752	0.000000
863.572937	0.000000
863.612244	0.000000
863.651428	0.000000
863.690613	0.000000
863.729797	0.000000
863.768982	0.000000
863.808228	0.000000
863.847412	0.000000
863.886597	0.000000
863.925842	0.000000
863.965088	0.000000
864.004272	0.000000
864.043457	0.000000
864.082703	0.000000
864.121826	0.000000
864.161011	0.000000
864.200256	0.000000
864.239441	0.000000
864.278625	0.000000
864.317810	0.000000
864.357056	0.000000
864.396240	0.000000
864.435425	0.000000
864.474609	0.000000
864.513794	0.000000
864.552979	0.000000
864.592163	0.000000
864.631409	0.000000
864.670532	0.000000
864.709717	0.000000
864.748962	0.000000
864.788086	0.000000
864.827271	0.000000
864.866455	0.000000
864.905640	0.000000
864.944824	0.000000
864.984009	0.000000
865.023193	0.000000
865.062378	0.000000
865.101501	0.000000
865.140686	0.000000
865.179871	0.000000
865.219055	0.000000
865.258179	0.000000
865.297424	0.000000
865.336548	0.000000
865.375732	0.000000
865.414856	0.000000
865.454041	0.000000
865.493225	0.000000
865.532349	0.000000
865.571594	0.000000
865.610718	0.000000
865.649841	0.000000
865.689026	0.000000
865.728210	0.000000
865.767334	0.000000
865.806458	0.000000
865.845703	0.000000
865.884827	0.000000
865.923950	0.000000
865.963074	0.000000
866.002258	0.000000
866.041443	0.000000
866.080566	0.000000
866.119751	0.000000
866.158875	0.000000
866.197998	0.000000
866.237122	0.000000
866.276306	0.000000
866.315430	0.000000
866.354553	0.000000
866.393738	0.000000
866.432861	0.000000
866.471985	0.000000
866.511108	0.000000
866.550293	0.000000
866.589417	0.000000
866.628540	0.000000
866.667725	0.000000
866.706848	0.000000
866.745972	0.000000
866.785034	0.000000
866.824219	0.000000
866.863342	0.000000
866.902466	0.000000
866.941650	0.000000
866.980713	0.000000
867.019836	0.000000
867.058960	0.000000
867.098145	0.000000
867.137207	0.000000
867.176331	0.000000
867.215515	0.000000
867.254578	0.000000
867.293701	0.000000
867.332764	0.000000
867.371948	0.000000
867.411072	0.000000
867.450134	0.000000
867.489319	0.000000
867.528381	0.000000
867.567505	0.000000
867.606567	0.000000
867.645752	0.000000
867.684814	0.000000
867.723938	0.000000
867.763062	0.000000
867.802185	0.000000
867.841248	0.000000
867.880310	0.000000
867.919495	0.000000
867.958557	0.000000
867.997620	0.000000
868.036804	0.000000
868.075867	0.000000
868.114929	0.000000
868.154053	0.000000
868.193176	0.000000
868.232239	0.000000
868.271301	0.000000
868.310425	0.000000
868.349548	0.000000
868.388611	0.000000
868.427673	0.000000
868.466797	0.000000
868.505859	0.000000
868.544922	0.000000
868.584045	0.000000
868.623108	0.000000
868.662170	0.000000
868.701233	0.000000
868.740356	0.000000
868.779419	0.000000
868.818481	0.000000
868.857605	0.000000
868.896667	0.000000
868.935730	0.000000
868.974792	0.000000
869.013916	0.000000
869.052979	0.000000
869.092041	0.000000
869.131165	0.000000
869.170227	0.000000
869.209229	0.000000
869.248291	0.000000
869.287415	0.000000
869.326477	0.000000
869.365479	0.000000
869.404602	0.000000
869.443665	0.000000
869.482727	0.000000
869.521729	0.000000
869.560852	0.000000
869.599915	0.000000
869.638916	0.000000
869.678040	0.000000
869.717041	0.000000
869.756104	0.000000
869.795166	0.000000
869.834229	0.000000
869.873291	0.000000
869.912292	0.000000
869.951416	0.000000
869.990417	0.000000
870.029480	0.000000
870.068481	0.000000
870.107605	0.000000
870.146606	0.000000
870.185608	0.000000
870.224731	0.000000
870.263733	0.000000
870.302734	0.000000
870.341797	0.000000
870.380859	0.000000
870.419861	0.000000
870.458923	0.000000
870.497986	0.000000
870.536987	0.000000
870.575989	0.000000
870.615051	0.000000
870.654114	0.000000
870.693115	0.000000
870.732117	0.000000
870.771179	0.000000
870.810242	0.000000
870.849243	0.000000
870.888245	0.000000
870.927307	0.000000
870.966309	0.000000
871.005310	0.000000
871.044373	0.000000
871.083374	0.000000
871.122375	0.000000
871.161377	0.000000
871.200439	0.000000
871.239441	0.000000
871.278442	0.000000
871.317505	0.000000
871.356506	0.000000
871.395508	0.000000
871.434448	0.000000
871.473511	0.000000
871.512512	0.000000
871.551514	0.000000
871.590576	0.000000
871.629578	0.000000
871.668518	0.000000
871.707520	0.000000
871.746582	0.000000
871.785522	0.000000
871.824524	0.000000
871.863586	0.000000
871.902588	0.000000
871.941528	0.000000
871.980530	0.000000
872.019531	0.000000
872.058533	0.000000
872.097534	0.000000
872.136536	0.000000
872.175537	0.000000
872.214478	0.000000
872.253479	0.000000
872.292480	0.000000
872.331482	0.000000
872.370422	0.000000
872.409485	0.000000
872.448425	0.000000
872.487427	0.000000
872.526367	0.000000
872.565369	0.000000
872.604370	0.000000
872.643311	0.000000
872.682312	0.000000
872.721313	0.000000
872.760254	0.000000
872.799194	0.000000
872.838257	0.000000
872.877197	0.000000
872.916138	0.000000
872.955139	0.000000
872.994080	0.000000
873.033081	0.000000
873.072021	0.000000
873.111023	0.000000
873.149963	0.000000
873.188904	0.000000
873.227905	0.000000
873.266846	0.000000
873.305786	0.000000
873.344727	0.000000
873.383789	0.000000
873.422729	0.000000
873.461670	0.000000
873.500671	0.000000
873.539551	0.000000
873.578491	0.000000
873.617432	0.000000
873.656433	0.000000
873.695374	0.000000
873.734314	0.000000
873.773315	0.000000
873.812256	0.000000
873.851196	0.000000
873.890076	0.000000
873.929077	0.000000
873.968018	0.000000
874.006958	0.000000
874.045959	0.000000
874.084839	0.000000
874.123779	0.000000
874.162720	0.000000
874.201660	0.000000
874.240601	0.000000
874.279541	0.000000
874.318481	0.000000
874.357422	0.000000
874.396301	0.000000
874.435242	0.000000
874.474243	0.000000
874.513123	0.000000
874.552063	0.000000
874.591003	0.000000
874.629944	0.000000
874.668823	0.000000
874.707764	0.000000
874.746704	0.000000
874.785645	0.000000
874.824524	0.000000
874.863464	0.000000
874.902405	0.000000
874.941284	0.000000
874.980164	0.000000
875.019165	0.000000
875.058044	0.000000
875.096924	0.000000
875.135925	0.000000
875.174805	0.000000
875.213684	0.000000
875.252563	0.000000
875.291565	0.000000
875.330444	0.000000
875.369324	0.000000
875.408264	0.000000
875.447144	0.000000
875.486023	0.000000
875.524902	0.000000
875.563904	0.000000
875.602783	0.000000
875.641663	0.000000
875.680603	0.000000
875.719482	0.000000
875.758362	0.000000
875.797241	0.000000
875.836182	0.000000
875.875061	0.000000
875.913940	0.000000
875.952881	0.000000
875.991699	0.000000
876.030579	0.000000
876.069458	0.000000
876.108337	0.000000
876.147278	0.000000
876.186157	0.000000
876.225098	0.000000
876.263916	0.000000
876.302795	0.000000
876.341675	0.000000
876.380554	0.000000
876.419434	0.000000
876.458313	0.000000
876.497253	0.000000
876.536072	0.000000
876.574951	0.000000
876.613831	0.000000
876.652649	0.000000
876.691589	0.000000
876.730469	0.000000
876.769348	0.000000
876.808228	0.000000
876.847046	0.000000
876.885925	0.000000
876.924744	0.000000
876.963684	0.000000
877.002502	0.000000
877.041443	0.000000
877.080261	0.000000
877.119141	0.000000
877.157959	0.000000
877.196777	0.000000
877.235718	0.000000
877.274536	0.000000
877.313416	0.000000
877.352295	0.000000
877.391113	0.000000
877.429932	0.000000
877.468811	0.000000
877.507690	0.000000
877.546509	0.000000
877.585388	0.000000
877.624207	0.000000
877.663086	0.000000
877.701904	0.000000
877.740723	0.000000
877.779602	0.000000
877.818420	0.000000
877.857300	0.000000
877.896118	0.000000
877.934937	0.000000
877.973755	0.000000
878.012634	0.000000
878.051514	0.000000
878.090332	0.000000
878.129211	0.000000
878.167969	0.000000
878.206787	0.000000
878.245605	0.000000
878.284424	0.000000
878.323303	0.000000
878.362122	0.000000
878.401001	0.000000
878.439819	0.000000
878.478638	0.000000
878.517395	0.000000
878.556213	0.000000
878.595093	0.000000
878.633911	0.000000
878.672729	0.000000
878.711548	0.000000
878.750366	0.000000
878.789185	0.000000
878.827942	0.000000
878.866821	0.000000
878.905640	0.000000
878.944458	0.000000
878.983276	0.000000
879.022034	0.000000
879.060852	0.000000
879.099670	0.000000
879.138489	0.000000
879.177307	0.000000
879.216125	0.000000
879.254944	0.000000
879.293701	0.000000
879.332520	0.000000
879.371277	0.000000
879.410095	0.000000
879.448914	0.000000
879.487732	0.000000
879.526550	0.000000
879.565308	0.000000
879.604065	0.000000
879.642883	0.000000
879.681702	0.000000
879.720459	0.000000
879.759277	0.000000
879.798096	0.000000
879.836853	0.000000
879.875610	0.000000
879.914368	0.000000
879.953247	0.000000
879.992004	0.000000
880.030823	0.000000
880.069580	0.000000
880.108337	0.000000
880.147095	0.000000
880.185852	0.000000
880.224670	0.000000
880.263428	0.000000
880.302246	0.000000
880.341003	0.000000
880.379761	0.000000
880.418518	0.000000
880.457275	0.000000
880.496094	0.000000
880.534851	0.000000
880.573669	0.000000
880.612427	0.000000
880.651184	0.000000
880.689941	0.000000
880.728699	0.000000
880.767517	0.000000
880.806213	0.000000
880.845032	0.000000
880.883789	0.000000
880.922546	0.000000
880.961243	0.000000
881.000000	0.000000
881.038818	0.000000
881.077576	0.000000
881.116333	0.000000
881.155090	0.000000
881.193848	0.000000
881.232544	0.000000
881.271301	0.000000
881.310059	0.000000
881.348816	0.000000
881.387573	0.000000
881.426331	0.000000
881.465088	0.000000
881.503784	0.000000
881.542542	0.000000
881.581299	0.000000
881.619995	0.000000
881.658813	0.000000
881.697510	0.000000
881.736267	0.000000
881.774963	0.000000
881.813721	0.000000
881.852478	0.000000
881.891174	0.000000
881.929993	0.000000
881.968689	0.000000
882.007385	0.000000
882.046082	0.000000
882.084839	0.000000
882.123596	0.000000
882.162292	0.000000
882.201050	0.000000
882.239746	0.000000
882.278503	0.000000
