Model Number: SPM-001-M   
Serial Number: 10090201
Firmware Version: 004.17.6
Exposure Time: 500000.000000us
Data Taken on: 03-03-2021 09:42:19.170
Wavelength	Amplitude
733.770752	0.000000
733.808716	0.000000
733.846619	0.000000
733.884583	0.000000
733.922546	0.000000
733.960449	0.000000
733.998413	0.000000
734.036377	0.000000
734.074219	0.000000
734.112183	0.000000
734.150085	0.000000
734.188049	0.000000
734.226013	0.000000
734.263916	0.000000
734.301819	0.000000
734.339783	0.000000
734.377686	0.000000
734.415588	0.000000
734.453552	0.000000
734.491455	0.000000
734.529419	0.000000
734.567322	0.000000
734.605225	0.000000
734.643127	0.000000
734.681091	0.000000
734.718994	0.000000
734.756897	0.000000
734.794800	0.000000
734.832703	0.000000
734.870667	0.000000
734.908508	0.000000
734.946472	0.000000
734.984375	0.000000
735.022278	0.000000
735.060181	0.000000
735.098083	0.000000
735.135986	0.000000
735.173889	0.000000
735.211792	0.000000
735.249695	0.000000
735.287598	0.000000
735.325439	0.000000
735.363403	0.000000
735.401306	0.000000
735.439148	0.000000
735.477051	0.000000
735.515015	0.000000
735.552856	0.000000
735.590759	0.000000
735.628662	0.000000
735.666504	0.000000
735.704407	0.000000
735.742310	0.000000
735.780212	0.000000
735.818115	0.000000
735.856018	0.000000
735.893860	0.000000
735.931763	0.000000
735.969604	0.000000
736.007507	0.000000
736.045410	0.000000
736.083252	0.000000
736.121094	0.000000
736.158997	0.000000
736.196838	0.000000
736.234741	0.000000
736.272644	0.000000
736.310486	0.000000
736.348389	0.000000
736.386230	0.000000
736.424072	0.000000
736.461975	0.000000
736.499878	0.000000
736.537720	0.000000
736.575562	0.000000
736.613403	0.000000
736.651306	0.000000
736.689148	0.000000
736.726990	0.000000
736.764893	0.000000
736.802734	0.000000
736.840576	0.000000
736.878418	0.000000
736.916321	0.000000
736.954102	0.000000
736.992004	0.000000
737.029846	0.000000
737.067688	0.000000
737.105530	0.000000
737.143372	0.000000
737.181213	0.000000
737.219116	0.000000
737.256897	0.000000
737.294739	0.000000
737.332642	0.000000
737.370422	0.000000
737.408325	0.000000
737.446167	0.000000
737.483948	0.000000
737.521790	0.000000
737.559692	0.000000
737.597473	0.000000
737.635315	0.000000
737.673157	0.000000
737.710999	0.000000
737.748840	0.000000
737.786621	0.000000
737.824463	0.000000
737.862305	0.000000
737.900085	0.000000
737.937927	0.000000
737.975769	0.000000
738.013550	0.000000
738.051392	0.000000
738.089233	0.000000
738.127014	0.000000
738.164856	0.000000
738.202698	0.000000
738.240479	0.000000
738.278320	0.000000
738.316162	0.000000
738.353943	0.000000
738.391785	0.000000
738.429565	0.000000
738.467407	0.000000
738.505188	0.000000
738.542969	0.000000
738.580811	0.000000
738.618652	0.000000
738.656372	0.000000
738.694214	0.000000
738.732056	0.000000
738.769836	0.000000
738.807617	0.000000
738.845459	0.000000
738.883240	0.000000
738.921021	0.000000
738.958862	0.000000
738.996582	0.000000
739.034424	0.000000
739.072205	0.000000
739.109985	0.000000
739.147827	0.000000
739.185547	0.000000
739.223389	0.000000
739.261169	0.000000
739.298889	0.000000
739.336731	0.000000
739.374512	0.000000
739.412292	0.000000
739.450073	0.000000
739.487854	0.000000
739.525635	0.000000
739.563416	0.000000
739.601135	0.000000
739.638977	0.000000
739.676758	0.000000
739.714478	0.000000
739.752258	0.000000
739.790100	0.000000
739.827820	0.000000
739.865601	0.000000
739.903381	0.000000
739.941101	0.000000
739.978882	187.300000
740.016724	184.000000
740.054443	190.400000
740.092224	182.300000
740.130005	182.000000
740.167725	182.500000
740.205505	181.700000
740.243225	192.100000
740.281006	186.600000
740.318787	178.800000
740.356506	191.300000
740.394287	191.000000
740.432068	181.500000
740.469727	178.400000
740.507507	189.600000
740.545288	184.400000
740.583008	189.800000
740.620789	186.400000
740.658569	177.400000
740.696228	185.900000
740.734009	191.500000
740.771790	174.300000
740.809509	190.700000
740.847229	180.700000
740.884949	183.900000
740.922729	178.000000
740.960449	183.200000
740.998169	179.100000
741.035950	181.700000
741.073669	185.600000
741.111389	186.000000
741.149170	194.800000
741.186890	196.300000
741.224609	187.600000
741.262329	185.800000
741.300110	195.000000
741.337769	180.700000
741.375549	179.200000
741.413208	187.100000
741.450989	180.800000
741.488708	182.000000
741.526367	183.000000
741.564148	188.300000
741.601868	189.900000
741.639526	185.800000
741.677307	186.600000
741.715027	187.500000
741.752686	180.900000
741.790466	193.600000
741.828186	187.800000
741.865845	181.100000
741.903564	177.400000
741.941345	184.400000
741.979004	181.200000
742.016724	189.400000
742.054382	185.200000
742.092102	190.100000
742.129822	177.400000
742.167480	184.500000
742.205200	185.000000
742.242920	186.700000
742.280640	189.800000
742.318359	180.800000
742.356079	184.200000
742.393738	189.300000
742.431396	184.400000
742.469116	190.700000
742.506775	175.800000
742.544495	186.800000
742.582214	188.900000
742.619873	185.300000
742.657593	194.100000
742.695251	189.400000
742.732971	184.800000
742.770630	187.000000
742.808289	185.000000
742.846008	184.300000
742.883728	188.800000
742.921326	185.800000
742.959045	182.900000
742.996765	185.000000
743.034424	183.700000
743.072083	182.100000
743.109802	186.100000
743.147400	178.300000
743.185120	187.800000
743.222839	184.100000
743.260437	190.700000
743.298157	186.600000
743.335754	177.600000
743.373474	184.300000
743.411133	179.800000
743.448792	185.600000
743.486450	185.300000
743.524170	177.200000
743.561768	185.300000
743.599487	192.600000
743.637146	196.200000
743.674744	183.600000
743.712463	182.600000
743.750122	185.300000
743.787720	187.900000
743.825439	181.200000
743.863037	183.200000
743.900696	185.100000
743.938416	211.500000
743.976013	183.300000
744.013672	194.600000
744.051331	189.600000
744.088928	194.100000
744.126587	191.700000
744.164307	186.000000
744.201904	181.600000
744.239563	188.900000
744.277222	187.600000
744.314819	184.800000
744.352478	192.400000
744.390137	187.000000
744.427734	188.300000
744.465393	183.300000
744.502991	181.400000
744.540649	188.100000
744.578308	187.400000
744.615906	180.100000
744.653564	175.800000
744.691223	189.100000
744.728821	178.000000
744.766418	185.600000
744.804077	188.300000
744.841675	182.800000
744.879333	179.300000
744.916992	182.800000
744.954529	184.000000
744.992187	191.000000
745.029785	183.800000
745.067444	181.200000
745.105042	186.100000
745.142639	186.700000
745.180298	195.300000
745.217896	181.800000
745.255493	183.100000
745.293152	189.500000
745.330750	190.000000
745.368347	192.700000
745.405945	188.800000
745.443604	186.000000
745.481140	190.400000
745.518799	184.300000
745.556396	190.000000
745.593994	189.100000
745.631592	185.500000
745.669189	181.500000
745.706787	188.100000
745.744385	182.000000
745.781982	188.400000
745.819580	183.000000
745.857178	183.700000
745.894775	186.600000
745.932373	186.900000
745.969971	186.300000
746.007568	178.000000
746.045166	195.300000
746.082764	191.700000
746.120300	188.400000
746.157898	190.700000
746.195557	185.300000
746.233093	180.400000
746.270691	189.700000
746.308228	187.900000
746.345825	190.800000
746.383423	189.500000
746.420959	181.600000
746.458557	182.800000
746.496155	184.400000
746.533691	186.800000
746.571289	181.700000
746.608887	186.200000
746.646423	187.200000
746.684021	185.400000
746.721619	183.500000
746.759155	188.900000
746.796753	179.600000
746.834351	179.400000
746.871826	181.600000
746.909424	191.700000
746.946960	189.000000
746.984558	185.700000
747.022156	184.100000
747.059631	191.300000
747.097229	187.600000
747.134827	183.100000
747.172363	192.700000
747.209900	188.700000
747.247498	181.200000
747.285034	191.300000
747.322571	191.700000
747.360168	182.700000
747.397644	178.800000
747.435242	189.100000
747.472778	192.900000
747.510315	184.000000
747.547913	183.600000
747.585388	191.000000
747.622925	184.500000
747.660522	176.400000
747.697998	183.500000
747.735596	185.500000
747.773132	182.700000
747.810669	184.800000
747.848206	189.100000
747.885742	180.900000
747.923279	180.000000
747.960815	185.700000
747.998352	186.200000
748.035889	190.300000
748.073425	191.200000
748.110901	184.100000
748.148437	180.800000
748.185974	186.600000
748.223511	194.800000
748.261047	188.800000
748.298584	188.100000
748.336060	185.300000
748.373596	187.600000
748.411133	206.100000
748.448608	182.100000
748.486145	189.100000
748.523682	191.800000
748.561218	192.400000
748.598755	187.300000
748.636292	188.700000
748.673706	184.000000
748.711243	193.200000
748.748718	186.800000
748.786255	187.100000
748.823792	187.000000
748.861267	181.200000
748.898804	187.900000
748.936340	187.000000
748.973816	183.300000
749.011292	192.300000
749.048828	186.500000
749.086304	188.400000
749.123840	197.000000
749.161316	181.300000
749.198792	194.800000
749.236328	193.400000
749.273743	186.000000
749.311279	185.200000
749.348816	188.200000
749.386230	187.400000
749.423767	175.100000
749.461304	187.900000
749.498718	187.000000
749.536255	192.300000
749.573730	196.900000
749.611206	191.900000
749.648682	184.800000
749.686218	185.600000
749.723633	189.200000
749.761169	184.200000
749.798645	182.000000
749.836060	184.500000
749.873596	182.800000
749.911011	187.000000
749.948547	191.700000
749.986023	184.900000
750.023437	185.100000
750.060913	179.700000
750.098450	179.900000
750.135864	185.600000
750.173340	186.100000
750.210815	190.700000
750.248291	182.000000
750.285767	186.300000
750.323242	193.100000
750.360657	186.900000
750.398132	181.400000
750.435608	190.200000
750.473022	181.800000
750.510498	182.000000
750.547974	181.500000
750.585449	183.800000
750.622925	176.700000
750.660339	195.100000
750.697815	186.900000
750.735291	185.100000
750.772644	186.500000
750.810120	187.800000
750.847595	188.800000
750.885010	180.300000
750.922485	195.300000
750.959961	186.200000
750.997375	193.300000
751.034851	189.700000
751.072266	190.600000
751.109680	177.800000
751.147156	192.100000
751.184570	188.000000
751.221985	188.300000
751.259460	178.300000
751.296875	185.800000
751.334290	184.500000
751.371765	189.800000
751.409180	188.900000
751.446594	191.700000
751.484070	188.600000
751.521423	187.900000
751.558899	188.300000
751.596375	193.500000
751.633728	192.200000
751.671204	198.800000
751.708618	181.400000
751.746033	188.300000
751.783447	180.300000
751.820801	182.200000
751.858276	189.200000
751.895691	186.200000
751.933105	184.600000
751.970520	182.200000
752.007935	183.700000
752.045349	190.100000
752.082764	186.700000
752.120178	186.100000
752.157532	182.700000
752.195007	184.600000
752.232422	188.900000
752.269775	190.400000
752.307190	190.600000
752.344543	182.100000
752.382019	185.500000
752.419434	184.800000
752.456787	187.900000
752.494202	190.700000
752.531616	188.200000
752.568970	191.400000
752.606384	187.700000
752.643799	188.200000
752.681152	195.500000
752.718567	188.900000
752.755981	179.900000
752.793335	188.900000
752.830750	178.300000
752.868164	191.000000
752.905518	182.400000
752.942932	189.800000
752.980225	181.100000
753.017639	189.800000
753.055054	184.800000
753.092407	187.300000
753.129822	191.300000
753.167175	194.200000
753.204529	185.700000
753.241943	183.600000
753.279358	180.900000
753.316650	189.500000
753.354065	189.300000
753.391479	189.900000
753.428772	193.700000
753.466187	188.500000
753.503479	179.900000
753.540894	184.100000
753.578308	181.300000
753.615601	179.900000
753.653015	185.800000
753.690369	184.600000
753.727722	182.400000
753.765076	178.100000
753.802490	180.400000
753.839783	178.400000
753.877136	183.300000
753.914551	200.200000
753.951843	181.200000
753.989258	190.700000
754.026611	185.800000
754.063904	187.600000
754.101257	181.200000
754.138611	178.700000
754.175964	185.100000
754.213318	196.100000
754.250610	179.700000
754.288025	183.000000
754.325378	180.200000
754.362671	191.600000
754.400024	184.500000
754.437378	194.600000
754.474670	196.100000
754.512085	183.700000
754.549438	187.000000
754.586731	184.700000
754.624084	184.500000
754.661438	181.200000
754.698730	192.800000
754.736084	185.100000
754.773376	183.700000
754.810730	188.700000
754.848083	183.700000
754.885315	190.300000
754.922668	177.700000
754.960022	181.900000
754.997314	189.800000
755.034668	187.500000
755.072021	185.400000
755.109253	183.900000
755.146606	192.800000
755.183960	183.700000
755.221252	193.000000
755.258545	190.800000
755.295898	191.500000
755.333191	193.100000
755.370544	188.300000
755.407776	184.800000
755.445129	187.200000
755.482422	190.500000
755.519714	184.200000
755.557068	180.500000
755.594360	179.100000
755.631653	190.300000
755.668945	195.600000
755.706299	189.200000
755.743530	197.700000
755.780884	194.200000
755.818176	192.900000
755.855408	191.900000
755.892761	187.800000
755.930054	186.800000
755.967346	187.600000
756.004639	189.000000
756.041870	187.900000
756.079224	191.900000
756.116516	183.300000
756.153748	191.500000
756.191040	196.300000
756.228394	190.000000
756.265625	184.100000
756.302917	188.600000
756.340210	185.400000
756.377441	192.200000
756.414795	195.600000
756.452087	188.400000
756.489319	181.800000
756.526611	191.200000
756.563843	188.500000
756.601135	196.800000
756.638428	197.800000
756.675659	188.300000
756.712952	193.300000
756.750244	191.900000
756.787476	191.000000
756.824768	194.700000
756.862061	186.700000
756.899292	235.200000
756.936584	193.300000
756.973816	198.600000
757.011047	201.100000
757.048340	189.000000
757.085632	190.500000
757.122864	205.700000
757.160156	187.200000
757.197327	191.600000
757.234619	195.000000
757.271912	188.100000
757.309082	195.400000
757.346375	186.900000
757.383667	196.900000
757.420837	191.600000
757.458130	191.800000
757.495422	190.400000
757.532593	194.000000
757.569885	184.400000
757.607117	187.400000
757.644348	192.600000
757.681580	204.000000
757.718811	180.400000
757.756042	191.300000
757.793335	189.500000
757.830505	193.600000
757.867798	189.000000
757.905029	189.500000
757.942200	192.500000
757.979492	187.300000
758.016724	191.000000
758.053894	190.300000
758.091187	210.100000
758.128418	191.700000
758.165588	192.600000
758.202820	202.500000
758.240112	191.200000
758.277283	202.600000
758.314514	194.500000
758.351685	188.700000
758.388916	202.500000
758.426147	201.800000
758.463379	203.100000
758.500610	196.400000
758.537842	194.800000
758.575012	199.100000
758.612244	190.000000
758.649475	205.200000
758.686646	187.000000
758.723877	200.600000
758.761108	202.900000
758.798279	193.500000
758.835510	196.800000
758.872742	200.600000
758.909851	197.600000
758.947083	197.400000
758.984253	197.800000
759.021484	200.600000
759.058716	199.900000
759.095886	200.400000
759.133057	195.500000
759.170288	200.200000
759.207458	192.800000
759.244690	206.900000
759.281860	205.700000
759.319031	197.500000
759.356262	195.400000
759.393433	196.700000
759.430603	196.500000
759.467773	195.600000
759.505005	204.800000
759.542175	204.500000
759.579346	197.700000
759.616516	200.800000
759.653687	201.000000
759.690918	196.500000
759.728027	201.100000
759.765259	200.600000
759.802429	204.100000
759.839539	202.900000
759.876770	207.100000
759.913940	210.900000
759.951111	201.800000
759.988281	201.100000
760.025452	198.400000
760.062561	197.900000
760.099792	210.100000
760.136963	204.500000
760.174072	199.600000
760.211243	197.000000
760.248413	198.700000
760.285583	197.900000
760.322754	212.700000
760.359863	207.300000
760.397034	210.700000
760.434204	202.200000
760.471375	202.800000
760.508545	202.000000
760.545715	199.500000
760.582825	197.700000
760.619995	207.500000
760.657166	197.500000
760.694275	209.000000
760.731445	206.200000
760.768555	205.000000
760.805664	208.300000
760.842834	205.000000
760.879944	208.200000
760.917114	204.300000
760.954285	204.200000
760.991394	196.900000
761.028564	210.000000
761.065674	207.400000
761.102783	200.600000
761.139954	209.100000
761.177124	209.100000
761.214172	210.500000
761.251343	204.900000
761.288452	205.900000
761.325562	209.800000
761.362732	202.400000
761.399841	205.300000
761.436951	208.600000
761.474121	203.000000
761.511169	208.000000
761.548340	211.700000
761.585449	210.700000
761.622559	212.100000
761.659668	208.100000
761.696838	214.200000
761.733887	210.300000
761.771057	207.000000
761.808167	206.800000
761.845276	213.400000
761.882385	222.500000
761.919434	211.200000
761.956604	229.200000
761.993713	205.700000
762.030762	218.000000
762.067871	209.300000
762.105042	211.200000
762.142090	217.200000
762.179199	213.700000
762.216309	216.400000
762.253418	228.000000
762.290527	221.600000
762.327637	219.300000
762.364685	208.000000
762.401794	218.000000
762.438904	215.000000
762.475952	210.300000
762.513062	208.700000
762.550110	210.900000
762.587219	223.100000
762.624329	222.600000
762.661377	217.400000
762.698486	216.600000
762.735596	216.600000
762.772644	210.700000
762.809753	206.200000
762.846863	216.400000
762.883911	220.000000
762.921021	218.700000
762.958069	215.800000
762.995117	224.800000
763.032227	223.800000
763.069336	215.700000
763.106323	213.100000
763.143433	212.800000
763.180481	220.100000
763.217590	222.000000
763.254639	216.800000
763.291687	217.200000
763.328735	226.700000
763.365845	219.900000
763.402893	218.000000
763.439941	222.000000
763.477051	225.200000
763.514038	224.400000
763.551147	218.000000
763.588196	222.800000
763.625244	221.000000
763.662292	228.900000
763.699402	231.000000
763.736389	225.300000
763.773499	233.300000
763.810486	227.100000
763.847534	225.200000
763.884644	227.000000
763.921631	223.600000
763.958679	235.100000
763.995728	226.500000
764.032776	233.100000
764.069824	222.200000
764.106873	231.300000
764.143860	235.100000
764.180969	227.600000
764.218018	236.700000
764.255005	227.100000
764.292053	229.900000
764.329102	238.600000
764.366089	239.800000
764.403137	237.400000
764.440125	229.100000
764.477173	233.300000
764.514221	236.000000
764.551208	233.500000
764.588257	229.200000
764.625305	237.900000
764.662292	242.600000
764.699341	245.500000
764.736389	239.800000
764.773376	254.600000
764.810425	241.200000
764.847473	247.400000
764.884399	243.900000
764.921448	252.200000
764.958435	250.300000
764.995483	239.800000
765.032532	256.600000
765.069458	243.000000
765.106506	244.600000
765.143555	241.300000
765.180481	246.300000
765.217529	255.400000
765.254578	239.000000
765.291504	248.200000
765.328552	246.600000
765.365540	243.600000
765.402527	258.400000
765.439575	244.300000
765.476501	241.100000
765.513550	244.000000
765.550537	249.200000
765.587463	254.900000
765.624512	245.700000
765.661499	240.300000
765.698486	255.800000
765.735474	247.200000
765.772461	249.300000
765.809448	259.500000
765.846436	255.400000
765.883423	259.200000
765.920410	253.200000
765.957397	250.300000
765.994385	255.700000
766.031311	266.000000
766.068359	256.600000
766.105286	257.800000
766.142273	263.100000
766.179260	258.400000
766.216187	251.800000
766.253174	251.600000
766.290161	258.700000
766.327148	262.400000
766.364136	262.500000
766.401123	275.900000
766.438049	255.300000
766.475037	270.900000
766.512024	264.100000
766.548950	279.000000
766.585937	271.900000
766.622864	268.700000
766.659790	266.000000
766.696777	257.700000
766.733704	271.300000
766.770691	262.100000
766.807678	276.000000
766.844604	271.400000
766.881531	269.400000
766.918518	276.400000
766.955444	276.500000
766.992432	269.300000
767.029358	273.200000
767.066284	276.400000
767.103271	273.300000
767.140198	304.000000
767.177124	288.400000
767.214050	278.100000
767.251038	279.700000
767.287964	276.400000
767.324890	273.500000
767.361816	278.100000
767.398743	284.300000
767.435730	277.300000
767.472595	281.800000
767.509583	287.800000
767.546509	275.700000
767.583374	281.000000
767.620361	274.300000
767.657288	281.400000
767.694214	282.100000
767.731140	280.000000
767.768066	283.200000
767.804993	285.800000
767.841919	278.600000
767.878845	284.000000
767.915710	292.000000
767.952698	286.000000
767.989563	287.500000
768.026489	288.700000
768.063416	281.900000
768.100281	280.500000
768.137207	293.700000
768.174133	291.100000
768.211060	294.900000
768.247986	290.400000
768.284912	288.200000
768.321777	288.800000
768.358704	287.200000
768.395630	290.000000
768.432495	286.200000
768.469421	291.500000
768.506348	297.600000
768.543152	302.700000
768.580078	300.100000
768.616943	298.500000
768.653870	302.300000
768.690796	301.500000
768.727661	298.700000
768.764587	300.600000
768.801453	295.300000
768.838318	306.500000
768.875244	304.400000
768.912109	308.700000
768.948975	300.600000
768.985901	304.000000
769.022766	301.400000
769.059631	309.000000
769.096558	300.500000
769.133362	303.800000
769.170288	304.200000
769.207214	304.600000
769.244019	310.400000
769.280945	308.100000
769.317810	316.800000
769.354675	311.900000
769.391541	319.300000
769.428406	316.400000
769.465271	325.800000
769.502136	315.200000
769.539062	318.100000
769.575867	318.300000
769.612732	318.000000
769.649597	324.600000
769.686462	324.700000
769.723328	322.700000
769.760193	322.600000
769.797058	324.200000
769.833923	331.800000
769.870728	327.200000
769.907593	329.500000
769.944519	330.300000
769.981323	330.300000
770.018188	335.400000
770.055054	332.500000
770.091858	331.600000
770.128723	339.600000
770.165588	347.000000
770.202393	331.900000
770.239258	344.600000
770.276062	343.000000
770.312927	342.200000
770.349792	348.200000
770.386597	347.700000
770.423462	356.300000
770.460327	363.800000
770.497131	350.400000
770.533997	342.600000
770.570862	357.800000
770.607605	360.100000
770.644470	355.100000
770.681335	356.500000
770.718140	355.400000
770.754944	350.300000
770.791809	351.200000
770.828613	355.500000
770.865479	356.000000
770.902222	366.200000
770.939087	359.300000
770.975952	352.200000
771.012695	357.200000
771.049561	373.300000
771.086365	362.900000
771.123169	359.000000
771.159973	364.300000
771.196838	364.800000
771.233582	367.000000
771.270447	367.500000
771.307251	371.500000
771.344055	367.700000
771.380859	373.100000
771.417664	370.400000
771.454468	378.900000
771.491272	376.100000
771.528076	377.100000
771.564880	376.800000
771.601685	386.900000
771.638428	373.800000
771.675293	382.500000
771.712097	373.300000
771.748840	390.600000
771.785645	382.900000
771.822449	386.300000
771.859253	390.100000
771.896057	386.400000
771.932861	399.300000
771.969604	390.900000
772.006409	378.800000
772.043213	393.500000
772.079956	387.800000
772.116760	380.100000
772.153503	387.100000
772.190308	400.900000
772.227112	391.300000
772.263855	384.800000
772.300659	388.600000
772.337463	399.800000
772.374207	388.200000
772.411011	386.900000
772.447754	389.300000
772.484497	408.100000
772.521301	398.300000
772.558105	399.700000
772.594849	397.600000
772.631592	404.400000
772.668396	402.300000
772.705139	409.100000
772.741882	402.100000
772.778625	416.700000
772.815430	418.800000
772.852173	412.700000
772.888916	420.900000
772.925720	422.600000
772.962463	429.500000
772.999207	422.400000
773.035950	428.600000
773.072754	424.100000
773.109436	419.000000
773.146240	422.100000
773.182922	421.400000
773.219727	430.100000
773.256470	426.300000
773.293152	414.300000
773.329956	420.000000
773.366699	427.600000
773.403381	416.200000
773.440186	425.700000
773.476929	427.600000
773.513611	422.800000
773.550354	424.300000
773.587158	422.100000
773.623840	419.800000
773.660583	430.100000
773.697327	442.200000
773.734009	427.500000
773.770813	428.900000
773.807495	423.900000
773.844238	429.700000
773.880981	445.000000
773.917664	439.700000
773.954407	442.700000
773.991150	434.500000
774.027832	443.700000
774.064575	436.300000
774.101318	441.800000
774.138000	446.000000
774.174744	443.800000
774.211487	444.100000
774.248108	434.000000
774.284851	433.100000
774.321594	440.100000
774.358276	442.800000
774.395020	453.300000
774.431702	451.700000
774.468384	440.800000
774.505127	435.500000
774.541809	447.700000
774.578491	457.700000
774.615234	456.400000
774.651917	448.600000
774.688599	453.500000
774.725342	463.200000
774.762024	459.100000
774.798706	466.400000
774.835449	464.100000
774.872070	474.100000
774.908813	471.700000
774.945496	469.500000
774.982178	469.100000
775.018860	473.100000
775.055542	474.200000
775.092224	473.500000
775.128967	483.200000
775.165588	481.100000
775.202271	474.900000
775.239014	484.900000
775.275635	487.100000
775.312317	480.900000
775.349060	490.000000
775.385681	491.400000
775.422363	481.100000
775.459045	487.100000
775.495667	489.200000
775.532410	492.900000
775.569092	497.100000
775.605713	497.500000
775.642395	494.900000
775.679016	499.000000
775.715698	498.500000
775.752380	500.900000
775.789001	493.500000
775.825684	495.100000
775.862366	504.600000
775.898987	515.300000
775.935669	505.200000
775.972351	529.000000
776.008972	526.400000
776.045654	526.500000
776.082336	517.800000
776.118958	516.000000
776.155640	522.200000
776.192322	530.600000
776.228882	533.500000
776.265564	535.000000
776.302185	532.200000
776.338867	542.100000
776.375488	524.600000
776.412109	540.400000
776.448792	543.300000
776.485413	551.700000
776.522034	544.500000
776.558716	537.700000
776.595337	540.000000
776.631958	544.800000
776.668579	546.600000
776.705261	558.500000
776.741882	551.200000
776.778503	548.900000
776.815186	547.400000
776.851746	555.100000
776.888367	554.700000
776.924988	562.300000
776.961609	551.100000
776.998291	558.400000
777.034851	548.600000
777.071472	563.900000
777.108154	562.700000
777.144714	571.100000
777.181335	570.000000
777.218018	565.000000
777.254578	571.600000
777.291199	570.200000
777.327759	578.400000
777.364380	589.700000
777.401062	593.700000
777.437622	604.700000
777.474243	592.700000
777.510864	596.500000
777.547424	588.400000
777.584045	595.700000
777.620667	598.200000
777.657227	604.000000
777.693848	603.300000
777.730469	616.500000
777.767029	606.800000
777.803650	613.000000
777.840271	610.700000
777.876831	610.600000
777.913452	614.000000
777.950012	594.600000
777.986633	597.700000
778.023193	598.600000
778.059753	594.900000
778.096375	597.200000
778.132996	613.900000
778.169556	604.500000
778.206116	611.200000
778.242737	601.400000
778.279297	610.200000
778.315857	600.000000
778.352478	605.600000
778.389038	618.100000
778.425598	623.000000
778.462219	623.900000
778.498718	621.100000
778.535339	634.100000
778.571838	632.300000
778.608459	635.700000
778.645020	628.900000
778.681580	638.100000
778.718140	636.600000
778.754761	624.900000
778.791260	631.100000
778.827881	644.700000
778.864441	645.700000
778.900940	652.000000
778.937561	647.300000
778.974121	648.900000
779.010620	640.500000
779.047241	642.600000
779.083801	653.100000
779.120300	648.300000
779.156860	651.300000
779.193359	647.100000
779.229980	647.600000
779.266541	654.700000
779.303040	658.000000
779.339600	644.100000
779.376160	643.200000
779.412659	648.000000
779.449219	637.200000
779.485779	647.100000
779.522278	643.300000
779.558838	650.800000
779.595398	651.200000
779.631897	648.500000
779.668457	645.700000
779.705017	652.300000
779.741516	644.900000
779.778076	638.700000
779.814575	644.000000
779.851074	650.700000
779.887634	645.700000
779.924133	656.400000
779.960693	646.100000
779.997253	660.000000
780.033691	665.800000
780.070251	663.300000
780.106812	673.300000
780.143250	672.200000
780.179810	668.500000
780.216370	670.200000
780.252808	677.500000
780.289368	678.500000
780.325867	677.400000
780.362366	674.600000
780.398865	690.900000
780.435364	679.100000
780.471863	697.000000
780.508423	689.700000
780.544861	694.600000
780.581421	701.500000
780.617920	687.400000
780.654419	682.600000
780.690918	690.800000
780.727417	698.700000
780.763916	696.400000
780.800415	705.300000
780.836914	690.500000
780.873352	703.000000
780.909912	693.900000
780.946411	702.700000
780.982849	707.000000
781.019348	717.900000
781.055786	713.900000
781.092346	712.600000
781.128845	720.300000
781.165283	723.200000
781.201782	733.700000
781.238281	739.700000
781.274719	743.000000
781.311218	735.700000
781.347717	745.400000
781.384155	734.300000
781.420654	740.000000
781.457092	749.700000
781.493591	740.300000
781.530090	734.700000
781.566528	738.600000
781.602966	739.200000
781.639465	735.100000
781.675903	731.600000
781.712402	738.300000
781.748901	747.700000
781.785278	738.800000
781.821777	742.300000
781.858276	742.500000
781.894714	764.400000
781.931152	756.600000
781.967651	761.600000
782.004089	755.200000
782.040527	763.400000
782.076965	767.800000
782.113403	772.400000
782.149902	779.400000
782.186340	773.500000
782.222778	792.700000
782.259277	779.000000
782.295654	780.000000
782.332092	788.500000
782.368591	786.300000
782.404968	783.000000
782.441467	791.800000
782.477905	800.000000
782.514282	786.900000
782.550781	807.800000
782.587219	809.000000
782.623596	814.100000
782.660095	813.400000
782.696472	820.800000
782.732910	825.200000
782.769348	827.000000
782.805786	846.400000
782.842224	841.800000
782.878662	839.700000
782.915039	842.100000
782.951477	839.000000
782.987915	831.000000
783.024292	851.600000
783.060730	854.100000
783.097168	839.400000
783.133545	832.500000
783.169983	831.700000
783.206421	822.100000
783.242798	823.500000
783.279236	812.800000
783.315613	813.300000
783.352051	800.800000
783.388489	795.800000
783.424866	791.200000
783.461304	802.200000
783.497681	803.200000
783.534058	798.400000
783.570496	792.600000
783.606934	787.300000
783.643250	801.100000
783.679687	808.600000
783.716125	805.600000
783.752441	815.800000
783.788879	840.900000
783.825317	848.200000
783.861633	857.000000
783.898071	865.900000
783.934448	875.800000
783.970825	887.600000
784.007263	891.200000
784.043579	905.000000
784.080017	903.200000
784.116394	896.100000
784.152710	898.000000
784.189148	902.900000
784.225525	905.300000
784.261902	896.000000
784.298279	887.200000
784.334656	884.000000
784.371033	875.900000
784.407410	869.200000
784.443787	856.300000
784.480164	844.500000
784.516541	822.700000
784.552856	829.000000
784.589233	822.900000
784.625610	819.400000
784.661987	845.700000
784.698364	837.100000
784.734741	833.300000
784.771057	832.600000
784.807434	837.800000
784.843811	857.200000
784.880127	863.800000
784.916504	889.600000
784.952881	895.600000
784.989197	885.300000
785.025574	896.300000
785.061951	906.000000
785.098267	923.200000
785.134644	917.300000
785.170959	917.400000
785.207275	914.500000
785.243652	907.900000
785.279968	898.700000
785.316345	902.300000
785.352722	893.400000
785.388977	888.300000
785.425354	872.400000
785.461731	847.500000
785.498047	844.400000
785.534363	835.300000
785.570679	829.200000
785.606995	839.900000
785.643372	845.500000
785.679687	839.400000
785.716003	829.400000
785.752380	824.400000
785.788635	834.100000
785.825012	856.700000
785.861328	861.100000
785.897644	851.700000
785.933960	871.100000
785.970337	878.200000
786.006592	891.000000
786.042908	899.500000
786.079285	921.500000
786.115540	926.500000
786.151855	924.800000
786.188171	919.500000
786.224487	921.500000
786.260803	913.100000
786.297119	923.600000
786.333435	914.200000
786.369751	904.200000
786.406006	905.200000
786.442322	888.100000
786.478638	879.300000
786.514954	897.200000
786.551270	886.400000
786.587585	894.800000
786.623840	886.200000
786.660156	874.700000
786.696472	863.000000
786.732727	862.100000
786.769043	863.100000
786.805298	862.700000
786.841614	872.800000
786.877930	884.000000
786.914124	862.900000
786.950439	886.700000
786.986755	890.500000
787.023010	902.300000
787.059326	918.900000
787.095642	925.600000
787.131836	937.700000
787.168152	930.000000
787.204468	932.800000
787.240723	947.800000
787.276978	958.600000
787.313293	969.000000
787.349548	964.000000
787.385803	962.500000
787.422058	951.800000
787.458313	949.500000
787.494629	948.200000
787.530823	943.000000
787.567139	928.600000
787.603455	916.400000
787.639648	906.400000
787.675903	911.300000
787.712219	904.800000
787.748413	904.000000
787.784729	913.600000
787.820984	905.900000
787.857178	896.300000
787.893494	898.200000
787.929749	897.800000
787.965942	904.700000
788.002258	924.400000
788.038452	935.700000
788.074707	927.400000
788.110962	934.600000
788.147217	938.400000
788.183472	949.200000
788.219727	963.500000
788.255920	987.300000
788.292175	996.300000
788.328430	991.200000
788.364624	976.400000
788.400879	978.100000
788.437134	981.000000
788.473328	974.300000
788.509583	976.000000
788.545837	965.400000
788.582031	962.800000
788.618286	957.900000
788.654480	956.400000
788.690735	969.100000
788.726990	990.300000
788.763184	984.000000
788.799377	996.700000
788.835632	978.200000
788.871826	999.400000
788.908081	996.600000
788.944336	991.200000
788.980469	1009.100000
789.016724	1000.200000
789.052979	998.500000
789.089111	992.000000
789.125366	1006.500000
789.161621	974.800000
789.197754	999.200000
789.234009	997.400000
789.270142	985.600000
789.306396	972.900000
789.342590	969.100000
789.378784	951.400000
789.414978	944.500000
789.451233	963.800000
789.487366	962.500000
789.523621	966.900000
789.559814	963.200000
789.595947	957.200000
789.632202	960.700000
789.668335	977.900000
789.704529	995.200000
789.740784	1016.300000
789.776917	1019.100000
789.813110	1012.100000
789.849304	1031.400000
789.885498	1026.400000
789.921692	1039.400000
789.957886	1041.400000
789.994019	1059.700000
790.030212	1059.300000
790.066406	1059.200000
790.102539	1052.600000
790.138733	1062.300000
790.174927	1057.900000
790.211060	1073.800000
790.247253	1056.400000
790.283386	1052.600000
790.319580	1036.000000
790.355774	1012.700000
790.391907	1023.500000
790.428101	1036.200000
790.464294	1041.500000
790.500427	1043.400000
790.536621	1025.100000
790.572754	999.900000
790.608887	998.600000
790.645081	1005.000000
790.681274	1018.200000
790.717346	1028.100000
790.753540	1013.700000
790.789734	989.800000
790.825867	971.800000
790.862000	982.400000
790.898132	994.100000
790.934265	996.400000
790.970459	1001.100000
791.006592	992.600000
791.042725	984.700000
791.078918	975.200000
791.114990	975.500000
791.151184	980.800000
791.187317	994.400000
791.223389	986.900000
791.259583	972.900000
791.295715	978.500000
791.331848	981.600000
791.367981	988.400000
791.404114	994.700000
791.440247	1006.500000
791.476379	1012.500000
791.512451	993.800000
791.548584	980.900000
791.584778	971.600000
791.620850	993.900000
791.656982	1000.500000
791.693115	1000.200000
791.729187	1002.100000
791.765381	996.200000
791.801514	996.600000
791.837585	994.300000
791.873718	999.600000
791.909851	1009.200000
791.945923	1023.200000
791.982056	996.800000
792.018188	991.100000
792.054260	994.100000
792.090393	999.600000
792.126465	986.500000
792.162598	985.000000
792.198669	985.500000
792.234741	976.900000
792.270874	964.000000
792.307007	948.700000
792.343079	956.100000
792.379150	963.600000
792.415283	954.700000
792.451355	957.500000
792.487488	933.100000
792.523560	925.000000
792.559631	910.400000
792.595764	866.400000
792.631836	826.600000
792.667908	807.800000
792.703979	791.600000
792.740051	814.100000
792.776184	846.000000
792.812256	851.800000
792.848328	858.200000
792.884399	875.400000
792.920471	886.200000
792.956543	876.000000
792.992615	877.600000
793.028748	871.800000
793.064758	877.100000
793.100830	890.300000
793.136963	915.900000
793.172974	920.300000
793.209045	903.300000
793.245178	914.400000
793.281189	899.900000
793.317261	908.800000
793.353271	909.200000
793.389404	923.900000
793.425476	918.100000
793.461487	908.000000
793.497559	897.200000
793.533630	894.900000
793.569641	895.300000
793.605713	901.200000
793.641785	901.500000
793.677795	916.400000
793.713867	904.000000
793.749878	914.400000
793.785950	917.300000
793.822021	921.600000
793.858032	911.200000
793.894104	925.400000
793.930176	906.400000
793.966187	914.400000
794.002258	907.300000
794.038269	910.200000
794.074280	907.500000
794.110352	933.300000
794.146423	912.500000
794.182373	911.200000
794.218445	898.100000
794.254517	893.700000
794.290466	877.400000
794.326538	893.900000
794.362549	896.200000
794.398560	900.900000
794.434631	908.700000
794.470581	892.700000
794.506653	887.300000
794.542664	888.500000
794.578674	884.100000
794.614685	895.000000
794.650757	888.500000
794.686707	883.700000
794.722778	872.700000
794.758789	882.300000
794.794739	890.400000
794.830811	918.100000
794.866821	936.000000
794.902771	940.500000
794.938843	936.000000
794.974792	929.900000
795.010803	929.900000
795.046814	934.900000
795.082825	923.200000
795.118835	936.700000
795.154846	916.500000
795.190796	920.900000
795.226807	898.800000
795.262817	901.000000
795.298767	904.400000
795.334778	916.200000
795.370850	906.900000
795.406799	907.200000
795.442810	892.200000
795.478821	892.900000
795.514709	886.600000
795.550720	905.300000
795.586670	888.100000
795.622681	894.500000
795.658691	898.100000
795.694641	898.000000
795.730652	888.000000
795.766663	894.400000
795.802551	896.600000
795.838562	913.500000
795.874573	905.500000
795.910522	900.100000
795.946472	895.200000
795.982483	897.800000
796.018433	897.500000
796.054382	904.700000
796.090393	893.900000
796.126282	890.800000
796.162292	882.000000
796.198242	877.700000
796.234192	873.000000
796.270203	867.600000
796.306091	876.500000
796.342041	889.900000
796.378052	879.700000
796.413940	878.100000
796.449951	881.300000
796.485901	882.700000
796.521790	885.500000
796.557800	897.100000
796.593689	901.900000
796.629639	899.900000
796.665649	896.900000
796.701599	886.600000
796.737488	880.800000
796.773437	877.400000
796.809387	878.200000
796.845337	886.800000
796.881287	881.000000
796.917175	861.300000
796.953125	863.400000
796.989075	871.800000
797.024963	875.300000
797.060913	871.100000
797.096863	872.600000
797.132751	868.800000
797.168701	852.400000
797.204590	853.700000
797.240540	858.400000
797.276489	868.400000
797.312439	873.800000
797.348328	868.300000
797.384277	854.400000
797.420166	845.600000
797.456055	846.000000
797.492004	838.500000
797.527893	853.700000
797.563843	865.200000
797.599731	849.900000
797.635620	839.100000
797.671570	847.400000
797.707520	850.200000
797.743347	848.500000
797.779297	860.700000
797.815125	857.600000
797.851074	849.800000
797.887024	840.700000
797.922913	816.600000
797.958801	828.800000
797.994690	828.600000
798.030579	829.000000
798.066467	844.200000
798.102356	832.600000
798.138245	825.100000
798.174133	819.700000
798.210083	822.400000
798.245911	831.600000
798.281799	835.400000
798.317749	830.100000
798.353577	821.900000
798.389465	821.200000
798.425293	821.400000
798.461243	820.400000
798.497131	824.300000
798.532959	826.900000
798.568848	830.900000
798.604736	816.700000
798.640564	794.800000
798.676453	793.900000
798.712402	799.700000
798.748230	809.300000
798.784119	810.800000
798.820007	810.900000
798.855835	813.000000
798.891724	802.300000
798.927551	796.300000
798.963379	804.700000
798.999268	796.100000
799.035095	794.900000
799.070984	782.600000
799.106873	770.300000
799.142700	777.100000
799.178528	765.500000
799.214417	774.300000
799.250244	791.400000
799.286133	784.800000
799.321960	779.100000
799.357788	769.800000
799.393677	769.100000
799.429504	762.400000
799.465332	765.000000
799.501221	773.300000
799.537048	773.400000
799.572876	764.800000
799.608704	765.400000
799.644531	770.300000
799.680359	775.400000
799.716248	787.300000
799.752014	787.400000
799.787903	779.800000
799.823730	776.600000
799.859558	767.800000
799.895386	770.900000
799.931213	774.800000
799.967041	759.800000
800.002869	766.700000
800.038696	783.800000
800.074463	759.200000
800.110352	758.200000
800.146179	747.700000
800.181946	760.700000
800.217773	759.600000
800.253540	759.000000
800.289429	751.100000
800.325256	742.800000
800.361023	738.800000
800.396851	743.500000
800.432678	752.400000
800.468445	747.500000
800.504272	745.100000
800.540100	737.700000
800.575867	734.800000
800.611694	733.200000
800.647461	728.300000
800.683289	732.800000
800.719116	738.400000
800.754883	736.100000
800.790649	720.800000
800.826477	717.600000
800.862244	734.700000
800.898071	722.000000
800.933838	724.000000
800.969604	726.600000
801.005432	727.800000
801.041199	719.500000
801.076965	708.800000
801.112793	702.000000
801.148560	695.100000
801.184326	699.200000
801.220154	704.600000
801.255859	698.400000
801.291687	700.000000
801.327454	689.200000
801.363281	688.400000
801.398987	686.900000
801.434814	692.100000
801.470520	695.800000
801.506287	684.600000
801.542114	681.000000
801.577820	680.500000
801.613647	678.200000
801.649414	674.800000
801.685120	681.100000
801.720886	690.000000
801.756714	674.700000
801.792419	666.300000
801.828186	659.100000
801.863892	670.900000
801.899719	661.500000
801.935486	664.600000
801.971252	670.800000
802.006958	664.400000
802.042725	659.100000
802.078430	661.200000
802.114197	650.800000
802.149963	672.000000
802.185669	658.600000
802.221436	653.800000
802.257202	656.500000
802.292908	652.900000
802.328674	662.100000
802.364441	660.500000
802.400146	658.100000
802.435913	653.600000
802.471558	651.600000
802.507324	650.800000
802.543091	646.500000
802.578796	658.200000
802.614502	659.600000
802.650269	660.200000
802.685974	649.300000
802.721741	649.300000
802.757446	651.000000
802.793152	647.400000
802.828918	659.700000
802.864624	656.100000
802.900330	658.200000
802.936035	655.200000
802.971802	648.800000
803.007446	646.500000
803.043213	635.100000
803.078857	651.300000
803.114624	633.200000
803.150330	639.600000
803.185974	628.600000
803.221741	630.800000
803.257446	643.900000
803.293152	644.500000
803.328857	638.000000
803.364563	637.800000
803.400208	625.400000
803.435974	632.400000
803.471680	627.400000
803.507324	622.000000
803.543030	631.000000
803.578735	633.400000
803.614441	628.000000
803.650146	639.400000
803.685791	623.400000
803.721497	625.000000
803.757202	613.100000
803.792847	628.100000
803.828552	617.700000
803.864258	612.800000
803.899902	610.200000
803.935608	593.700000
803.971313	601.800000
804.006958	603.400000
804.042664	601.900000
804.078308	610.000000
804.113953	597.700000
804.149658	607.200000
804.185364	594.400000
804.221008	604.400000
804.256714	589.800000
804.292297	585.300000
804.328003	586.800000
804.363708	582.200000
804.399292	584.400000
804.434998	581.100000
804.470703	575.000000
804.506287	590.500000
804.541992	579.400000
804.577637	581.500000
804.613281	571.000000
804.648926	563.300000
804.684570	570.000000
804.720215	565.400000
804.755920	562.700000
804.791565	558.800000
804.827209	568.000000
804.862854	561.300000
804.898437	556.900000
804.934143	559.700000
804.969788	556.000000
805.005371	560.200000
805.041077	559.100000
805.076721	558.200000
805.112305	544.900000
805.147949	545.900000
805.183655	541.500000
805.219238	545.300000
805.254883	546.300000
805.290466	552.600000
805.326111	543.700000
805.361755	536.200000
805.397400	541.200000
805.432983	540.300000
805.468628	536.700000
805.504211	542.900000
805.539856	539.700000
805.575500	545.500000
805.611084	533.200000
805.646729	523.400000
805.682373	531.600000
805.717957	538.200000
805.753601	539.700000
805.789246	521.400000
805.824768	536.200000
805.860413	535.600000
805.895996	525.000000
805.931641	524.000000
805.967224	529.900000
806.002869	522.200000
806.038452	532.300000
806.074036	533.700000
806.109619	519.000000
806.145264	516.400000
806.180847	517.900000
806.216431	515.900000
806.252014	522.300000
806.287659	523.600000
806.323181	531.300000
806.358826	520.500000
806.394409	502.700000
806.429993	507.000000
806.465576	521.800000
806.501160	506.900000
806.536743	501.900000
806.572327	511.500000
806.607910	509.000000
806.643494	505.600000
806.679077	502.700000
806.714661	501.700000
806.750244	499.000000
806.785828	494.100000
806.821350	497.500000
806.856934	503.900000
806.892517	500.100000
806.928101	492.300000
806.963684	494.500000
806.999268	504.900000
807.034790	484.200000
807.070374	487.400000
807.105896	484.500000
807.141479	484.100000
807.177063	487.600000
807.212585	481.800000
807.248169	482.000000
807.283752	485.400000
807.319275	480.800000
807.354858	481.000000
807.390381	476.900000
807.425903	476.100000
807.461487	472.400000
807.497070	464.300000
807.532593	471.500000
807.568115	466.400000
807.603699	462.200000
807.639221	459.400000
807.674744	467.200000
807.710266	468.400000
807.745850	472.100000
807.781372	464.000000
807.816895	459.700000
807.852417	464.000000
807.888000	460.200000
807.923523	454.700000
807.959045	458.000000
807.994629	454.500000
808.030090	454.800000
808.065613	456.700000
808.101135	461.100000
808.136658	453.700000
808.172241	452.900000
808.207764	451.100000
808.243225	444.000000
808.278809	441.200000
808.314270	449.500000
808.349792	434.000000
808.385315	437.300000
808.420837	441.600000
808.456360	447.700000
808.491882	447.700000
808.527344	442.600000
808.562866	449.800000
808.598389	441.700000
808.633850	437.100000
808.669434	431.200000
808.704895	442.200000
808.740417	445.800000
808.775940	442.100000
808.811462	435.700000
808.846924	430.000000
808.882385	428.100000
808.917847	430.300000
808.953369	428.900000
808.988892	425.500000
809.024353	433.400000
809.059875	430.800000
809.095398	424.000000
809.130798	421.500000
809.166321	422.400000
809.201843	422.500000
809.237305	422.300000
809.272766	430.900000
809.308228	416.000000
809.343750	417.600000
809.379211	416.100000
809.414734	415.400000
809.450134	427.000000
809.485657	408.300000
809.521118	415.300000
809.556580	413.400000
809.592102	410.300000
809.627502	409.300000
809.663025	407.800000
809.698486	401.900000
809.733887	401.000000
809.769409	405.400000
809.804871	392.300000
809.840271	397.200000
809.875793	401.300000
809.911194	403.300000
809.946655	393.200000
809.982178	389.500000
810.017639	394.400000
810.053040	394.200000
810.088501	391.100000
810.123901	392.200000
810.159424	387.300000
810.194885	383.100000
810.230286	388.600000
810.265747	382.500000
810.301208	379.500000
810.336609	384.400000
810.372070	375.600000
810.407532	378.900000
810.442932	383.000000
810.478394	384.100000
810.513794	380.800000
810.549255	378.900000
810.584717	375.000000
810.620117	368.900000
810.655518	376.000000
810.690979	371.600000
810.726379	371.200000
810.761841	361.200000
810.797302	360.200000
810.832642	362.600000
810.868103	373.200000
810.903564	362.300000
810.938904	368.300000
810.974365	356.300000
811.009827	363.000000
811.045166	355.400000
811.080627	349.400000
811.115967	354.200000
811.151428	361.600000
811.186829	353.900000
811.222229	353.200000
811.257629	347.600000
811.293091	355.200000
811.328430	360.000000
811.363892	354.400000
811.399292	354.100000
811.434631	349.700000
811.470093	356.000000
811.505493	347.100000
811.540833	346.600000
811.576294	352.100000
811.611694	347.500000
811.647034	343.800000
811.682434	344.800000
811.717773	346.000000
811.753235	349.800000
811.788635	344.200000
811.823975	343.800000
811.859375	351.700000
811.894775	337.700000
811.930115	339.900000
811.965515	339.100000
812.000916	342.000000
812.036255	335.100000
812.071655	342.400000
812.106995	335.600000
812.142395	336.400000
812.177795	343.300000
812.213196	340.100000
812.248474	340.100000
812.283875	330.000000
812.319214	335.500000
812.354614	336.800000
812.390015	331.400000
812.425293	331.500000
812.460693	333.300000
812.496094	329.300000
812.531433	323.800000
812.566772	322.800000
812.602173	327.400000
812.637451	325.900000
812.672852	324.300000
812.708191	327.600000
812.743530	322.600000
812.778931	312.700000
812.814270	316.400000
812.849609	322.600000
812.884949	316.900000
812.920227	310.700000
812.955627	328.400000
812.990967	316.800000
813.026306	312.200000
813.061646	300.400000
813.096985	301.200000
813.132324	298.000000
813.167664	303.400000
813.203003	308.600000
813.238281	294.800000
813.273682	295.600000
813.308960	293.100000
813.344299	295.100000
813.379639	305.400000
813.414978	296.300000
813.450256	295.900000
813.485596	299.100000
813.520874	290.900000
813.556213	292.200000
813.591614	296.400000
813.626831	288.800000
813.662170	294.800000
813.697510	301.900000
813.732788	287.000000
813.768127	290.800000
813.803467	293.500000
813.838745	286.900000
813.874084	290.500000
813.909363	290.400000
813.944641	290.500000
813.979980	280.800000
814.015320	286.800000
814.050598	282.500000
814.085876	285.900000
814.121155	284.500000
814.156494	280.700000
814.191772	283.800000
814.227051	278.500000
814.262390	280.600000
814.297668	281.300000
814.332947	282.200000
814.368225	274.700000
814.403564	278.000000
814.438782	273.000000
814.474121	277.100000
814.509338	271.200000
814.544617	284.300000
814.579956	271.300000
814.615173	281.800000
814.650513	277.600000
814.685791	271.800000
814.721008	273.700000
814.756348	273.900000
814.791626	269.100000
814.826843	269.600000
814.862122	269.900000
814.897400	266.700000
814.932678	268.200000
814.967957	268.400000
815.003235	268.800000
815.038452	263.900000
815.073730	259.800000
815.108948	271.900000
815.144226	269.200000
815.179504	272.900000
815.214722	257.100000
815.250000	256.800000
815.285278	264.800000
815.320496	256.600000
815.355774	260.500000
815.391052	262.200000
815.426270	260.600000
815.461487	259.000000
815.496765	253.800000
815.531982	252.200000
815.567261	256.000000
815.602539	265.800000
815.637695	259.400000
815.672974	261.500000
815.708191	261.000000
815.743408	261.700000
815.778687	254.900000
815.813904	263.100000
815.849121	245.400000
815.884399	249.300000
815.919556	250.200000
815.954834	250.600000
815.990051	253.700000
816.025269	256.900000
816.060486	246.700000
816.095703	245.900000
816.130920	251.200000
816.166199	246.100000
816.201416	251.200000
816.236572	253.400000
816.271851	247.000000
816.307007	252.200000
816.342224	242.000000
816.377441	246.000000
816.412659	238.300000
816.447876	248.300000
816.483093	242.700000
816.518250	244.000000
816.553467	241.700000
816.588745	244.900000
816.623901	239.900000
816.659119	232.900000
816.694275	237.700000
816.729492	235.400000
816.764709	270.300000
816.799927	230.900000
816.835083	237.600000
816.870300	230.900000
816.905457	235.500000
816.940674	238.100000
816.975830	232.200000
817.010986	227.900000
817.046204	232.000000
817.081421	226.700000
817.116577	227.600000
817.151733	236.500000
817.186951	236.200000
817.222107	231.600000
817.257324	233.500000
817.292419	230.500000
817.327637	223.100000
817.362854	229.500000
817.398010	223.500000
817.433167	224.800000
817.468323	224.600000
817.503479	225.100000
817.538635	235.100000
817.573853	227.300000
817.608948	225.200000
817.644165	220.600000
817.679321	221.200000
817.714478	221.100000
817.749634	226.300000
817.784790	233.300000
817.819946	229.000000
817.855103	211.900000
817.890198	222.400000
817.925415	216.100000
817.960571	225.000000
817.995667	223.400000
818.030823	223.300000
818.066040	216.800000
818.101135	220.300000
818.136292	218.700000
818.171448	212.600000
818.206543	216.900000
818.241699	220.400000
818.276855	218.200000
818.311951	215.000000
818.347107	214.000000
818.382263	218.400000
818.417358	224.100000
818.452515	224.100000
818.487610	223.900000
818.522766	213.000000
818.557922	223.400000
818.593018	219.500000
818.628113	217.600000
818.663269	211.200000
818.698364	215.700000
818.733521	211.400000
818.768677	218.000000
818.803711	209.800000
818.838867	210.400000
818.874023	211.100000
818.909058	210.000000
818.944214	206.600000
818.979370	214.600000
819.014404	212.000000
819.049561	207.200000
819.084595	212.000000
819.119751	204.500000
819.154846	211.900000
819.189941	207.900000
819.225037	203.500000
819.260193	198.900000
819.295227	202.200000
819.330322	198.600000
819.365479	196.800000
819.400513	232.000000
819.435608	196.200000
819.470764	195.100000
819.505798	199.700000
819.540894	201.600000
819.575989	200.100000
819.611084	206.300000
819.646179	208.200000
819.681213	203.800000
819.716309	199.200000
819.751404	199.300000
819.786438	205.500000
819.821533	196.100000
819.856628	202.000000
819.891663	204.000000
819.926758	211.800000
819.961853	206.600000
819.996887	197.800000
820.031982	203.700000
820.067017	199.900000
820.102112	228.500000
820.137207	197.600000
820.172302	211.400000
820.207275	196.800000
820.242371	195.000000
820.277405	195.300000
820.312500	197.200000
820.347534	200.400000
820.382568	204.900000
820.417664	194.600000
820.452759	196.500000
820.487732	194.500000
820.522827	195.600000
820.557861	192.900000
820.592896	194.300000
820.627930	195.800000
820.662964	192.500000
820.698059	197.500000
820.733093	194.800000
820.768127	200.100000
820.803162	194.300000
820.838196	191.900000
820.873230	196.200000
820.908264	195.700000
820.943298	191.900000
820.978333	200.500000
821.013367	195.700000
821.048401	199.000000
821.083435	201.400000
821.118469	187.600000
821.153503	198.900000
821.188477	194.700000
821.223511	187.600000
821.258484	195.400000
821.293579	195.200000
821.328613	189.700000
821.363647	193.000000
821.398621	188.800000
821.433655	190.600000
821.468628	206.000000
821.503662	193.200000
821.538696	195.300000
821.573669	189.400000
821.608704	197.400000
821.643677	190.700000
821.678650	197.600000
821.713684	203.400000
821.748718	190.300000
821.783691	193.400000
821.818726	195.100000
821.853638	196.400000
821.888672	191.900000
821.923706	195.600000
821.958618	189.800000
821.993652	191.000000
822.028687	198.100000
822.063599	199.100000
822.098633	194.900000
822.133667	188.500000
822.168579	191.200000
822.203613	194.100000
822.238586	189.900000
822.273560	195.000000
822.308533	189.300000
822.343567	189.700000
822.378479	189.800000
822.413452	191.700000
822.448425	188.900000
822.483398	196.700000
822.518372	196.100000
822.553345	189.900000
822.588318	198.200000
822.623291	190.000000
822.658203	189.900000
822.693237	192.400000
822.728210	189.800000
822.763123	192.800000
822.798096	186.200000
822.833069	191.700000
822.867981	191.300000
822.902954	193.500000
822.937927	194.900000
822.972900	202.600000
823.007874	184.500000
823.042725	196.500000
823.077698	203.700000
823.112671	188.500000
823.147583	190.800000
823.182556	194.400000
823.217529	194.800000
823.252441	189.500000
823.287415	204.200000
823.322388	194.400000
823.357239	192.900000
823.392212	199.000000
823.427185	195.700000
823.462097	186.700000
823.497009	196.700000
823.531982	191.500000
823.566895	193.600000
823.601807	187.100000
823.636719	190.400000
823.671631	195.100000
823.706604	190.900000
823.741455	195.100000
823.776428	186.100000
823.811340	196.300000
823.846252	198.800000
823.881165	198.300000
823.916138	193.700000
823.950989	199.000000
823.985901	188.900000
824.020813	191.300000
824.055725	189.800000
824.090637	186.400000
824.125610	193.100000
824.160461	192.300000
824.195374	192.800000
824.230225	195.500000
824.265198	184.100000
824.300110	187.000000
824.334961	201.000000
824.369873	181.800000
824.404785	194.600000
824.439636	197.200000
824.474548	183.100000
824.509460	181.500000
824.544312	195.800000
824.579224	192.500000
824.614075	193.900000
824.648987	189.400000
824.683899	188.700000
824.718811	187.600000
824.753662	196.100000
824.788574	195.300000
824.823364	192.200000
824.858276	187.800000
824.893188	196.400000
824.928040	195.400000
824.962952	192.100000
824.997803	193.600000
825.032654	191.600000
825.067566	192.900000
825.102417	187.700000
825.137268	189.700000
825.172119	190.200000
825.206970	187.200000
825.241882	188.100000
825.276733	186.600000
825.311646	187.200000
825.346436	183.800000
825.381348	183.600000
825.416138	190.200000
825.450989	184.300000
825.485901	180.800000
825.520691	181.000000
825.555542	182.500000
825.590454	188.800000
825.625244	181.500000
825.660095	194.100000
825.695007	191.900000
825.729797	187.100000
825.764648	185.100000
825.799438	186.300000
825.834290	189.000000
825.869202	180.200000
825.903992	189.400000
825.938843	184.800000
825.973694	181.400000
826.008484	198.800000
826.043335	183.500000
826.078186	177.000000
826.112976	193.600000
826.147827	191.300000
826.182678	196.500000
826.217468	179.200000
826.252319	191.200000
826.287109	183.100000
826.321899	194.200000
826.356750	184.300000
826.391541	180.800000
826.426392	191.600000
826.461182	185.500000
826.495972	181.600000
826.530823	175.500000
826.565613	186.700000
826.600403	180.900000
826.635254	188.700000
826.670044	179.400000
826.704834	178.500000
826.739685	180.000000
826.774475	187.400000
826.809265	185.600000
826.844055	183.800000
826.878906	191.300000
826.913635	187.100000
826.948425	187.500000
826.983215	188.600000
827.018005	191.100000
827.052856	185.600000
827.087585	188.600000
827.122375	179.700000
827.157227	185.200000
827.191956	198.500000
827.226746	180.900000
827.261536	189.100000
827.296265	178.500000
827.331116	183.000000
827.365906	188.400000
827.400635	182.400000
827.435425	176.500000
827.470215	192.400000
827.504944	183.400000
827.539734	190.500000
827.574463	184.200000
827.609253	192.400000
827.644043	184.800000
827.678772	189.700000
827.713562	183.500000
827.748352	183.100000
827.783081	181.600000
827.817871	187.400000
827.852600	179.800000
827.887329	186.100000
827.922119	176.000000
827.956848	188.700000
827.991638	198.700000
828.026367	185.700000
828.061157	185.700000
828.095886	184.600000
828.130615	198.000000
828.165344	175.900000
828.200073	186.400000
828.234863	182.300000
828.269592	183.600000
828.304321	189.200000
828.339111	185.100000
828.373779	181.300000
828.408569	191.100000
828.443298	188.000000
828.477966	182.300000
828.512756	186.000000
828.547424	178.800000
828.582214	182.700000
828.616943	182.500000
828.651672	184.200000
828.686340	188.500000
828.721130	182.300000
828.755798	184.800000
828.790527	184.800000
828.825256	187.300000
828.859924	184.600000
828.894714	191.700000
828.929443	192.400000
828.964111	182.100000
828.998840	186.500000
829.033569	183.500000
829.068237	183.500000
829.102966	182.700000
829.137634	186.200000
829.172363	188.300000
829.207092	185.900000
829.241821	183.400000
829.276489	178.700000
829.311157	186.800000
829.345825	182.900000
829.380554	191.600000
829.415283	180.900000
829.449951	180.100000
829.484619	192.200000
829.519348	194.200000
829.554016	184.400000
829.588745	184.900000
829.623413	178.500000
829.658081	196.800000
829.692749	178.800000
829.727417	190.400000
829.762146	186.700000
829.796814	181.700000
829.831482	182.500000
829.866150	185.900000
829.900879	181.600000
829.935486	188.900000
829.970154	183.000000
830.004883	197.000000
830.039490	184.800000
830.074219	182.400000
830.108887	184.600000
830.143494	184.200000
830.178223	179.500000
830.212891	182.700000
830.247498	185.100000
830.282166	192.600000
830.316772	190.600000
830.351501	182.200000
830.386169	184.000000
830.420776	181.900000
830.455444	185.300000
830.490112	182.100000
830.524719	177.200000
830.559387	188.400000
830.594055	188.900000
830.628662	184.900000
830.663330	186.200000
830.697998	194.400000
830.732605	184.700000
830.767273	188.000000
830.801941	185.800000
830.836487	193.100000
830.871155	187.000000
830.905762	186.000000
830.940430	177.600000
830.975098	181.800000
831.009644	186.100000
831.044312	191.600000
831.078979	186.900000
831.113525	175.900000
831.148193	186.900000
831.182861	182.900000
831.217407	189.000000
831.252075	200.300000
831.286621	182.000000
831.321289	180.600000
831.355896	185.200000
831.390564	191.700000
831.425110	185.700000
831.459778	190.500000
831.494324	198.000000
831.528931	187.300000
831.563599	189.300000
831.598145	177.600000
831.632751	184.700000
831.667419	183.300000
831.701965	186.000000
831.736572	187.300000
831.771179	178.600000
831.805786	181.900000
831.840393	190.400000
831.874939	177.000000
831.909546	189.800000
831.944153	177.300000
831.978760	184.000000
832.013306	180.600000
832.047913	191.600000
832.082458	192.300000
832.117065	181.000000
832.151672	194.800000
832.186218	186.600000
832.220825	188.400000
832.255432	177.000000
832.289978	181.100000
832.324585	186.300000
832.359192	188.500000
832.393677	182.900000
832.428284	184.200000
832.462830	183.000000
832.497437	184.300000
832.531982	189.900000
832.566589	184.100000
832.601135	185.500000
832.635681	178.300000
832.670227	184.600000
832.704773	193.000000
832.739380	186.100000
832.773926	185.600000
832.808472	181.300000
832.843079	186.100000
832.877563	186.800000
832.912170	183.800000
832.946716	178.300000
832.981201	190.500000
833.015808	188.000000
833.050293	185.100000
833.084839	179.300000
833.119446	182.000000
833.153992	188.900000
833.188477	185.600000
833.223022	180.100000
833.257568	186.800000
833.292114	190.000000
833.326660	196.400000
833.361145	181.600000
833.395691	178.400000
833.430237	183.900000
833.464783	188.300000
833.499329	181.300000
833.533875	180.000000
833.568359	187.800000
833.602905	190.200000
833.637390	188.700000
833.671875	183.500000
833.706421	184.000000
833.740906	180.500000
833.775452	174.800000
833.809998	182.600000
833.844482	191.400000
833.879028	183.900000
833.913513	182.000000
833.947998	186.800000
833.982544	180.500000
834.017090	181.300000
834.051514	173.700000
834.086060	187.700000
834.120544	183.400000
834.155029	186.000000
834.189575	182.900000
834.223999	187.400000
834.258545	184.600000
834.293030	185.200000
834.327515	185.300000
834.362000	181.500000
834.396545	190.300000
834.430969	184.100000
834.465454	190.000000
834.500000	177.000000
834.534424	188.400000
834.568970	175.800000
834.603455	177.600000
834.637878	181.400000
834.672363	185.800000
834.706909	185.400000
834.741333	185.200000
834.775818	176.900000
834.810242	181.000000
834.844727	185.700000
834.879211	184.000000
834.913635	185.400000
834.948181	186.400000
834.982666	185.500000
835.017090	184.100000
835.051575	186.100000
835.086060	181.700000
835.120483	187.900000
835.154907	188.900000
835.189331	184.300000
835.223816	186.700000
835.258301	179.000000
835.292786	180.000000
835.327209	188.200000
835.361694	181.400000
835.396057	182.400000
835.430542	187.400000
835.465027	184.200000
835.499390	180.000000
835.533875	205.900000
835.568359	182.900000
835.602722	178.300000
835.637207	187.000000
835.671692	179.300000
835.706055	201.100000
835.740540	187.100000
835.774902	188.200000
835.809387	184.600000
835.843811	179.300000
835.878235	191.700000
835.912659	178.500000
835.947083	181.100000
835.981506	184.800000
836.015930	177.900000
836.050354	190.800000
836.084778	194.700000
836.119202	189.100000
836.153625	198.200000
836.187988	179.300000
836.222473	183.500000
836.256897	185.700000
836.291260	184.200000
836.325684	185.000000
836.360046	182.400000
836.394470	182.900000
836.428894	191.900000
836.463318	180.400000
836.497681	190.300000
836.532104	191.400000
836.566467	186.100000
836.600891	184.800000
836.635315	190.200000
836.669678	187.400000
836.704102	189.500000
836.738525	186.000000
836.772888	176.500000
836.807251	181.800000
836.841675	188.200000
836.876038	179.500000
836.910461	181.300000
836.944763	189.000000
836.979187	181.100000
837.013611	191.500000
837.047974	179.000000
837.082336	194.800000
837.116699	187.200000
837.151062	184.600000
837.185486	179.100000
837.219849	183.100000
837.254211	189.000000
837.288574	184.300000
837.322937	180.400000
837.357300	172.200000
837.391663	196.600000
837.426086	189.100000
837.460388	185.900000
837.494751	190.200000
837.529114	183.600000
837.563477	189.400000
837.597839	186.500000
837.632141	184.700000
837.666565	182.300000
837.700928	187.900000
837.735229	187.300000
837.769592	187.700000
837.803955	189.000000
837.838257	183.700000
837.872620	182.000000
837.906982	192.200000
837.941284	185.000000
837.975647	186.000000
838.010010	190.700000
838.044312	183.800000
838.078674	182.800000
838.112976	186.700000
838.147339	188.500000
838.181702	184.800000
838.216003	195.100000
838.250366	187.300000
838.284668	189.300000
838.318970	178.000000
838.353333	185.800000
838.387634	184.600000
838.421936	184.900000
838.456299	186.400000
838.490601	192.300000
838.524902	188.700000
838.559265	189.200000
838.593567	188.900000
838.627869	178.600000
838.662170	188.600000
838.696472	178.300000
838.730774	181.400000
838.765137	189.400000
838.799377	172.300000
838.833740	185.500000
838.868042	192.000000
838.902283	176.600000
838.936646	190.900000
838.970947	186.100000
839.005188	191.000000
839.039551	178.000000
839.073792	191.300000
839.108093	182.000000
839.142395	195.300000
839.176697	178.800000
839.210937	185.600000
839.245300	196.600000
839.279541	178.900000
839.313843	183.600000
839.348145	189.000000
839.382385	189.400000
839.416687	189.200000
839.450989	188.600000
839.485229	184.100000
839.519531	181.000000
839.553833	190.000000
839.588013	186.400000
839.622314	186.300000
839.656555	187.400000
839.690857	185.400000
839.725159	178.500000
839.759460	183.400000
839.793640	184.500000
839.827942	184.900000
839.862183	182.600000
839.896423	185.000000
839.930725	195.500000
839.964966	192.000000
839.999207	192.600000
840.033508	192.000000
840.067688	183.800000
840.101990	193.300000
840.136230	185.800000
840.170471	193.400000
840.204712	181.100000
840.238953	181.600000
840.273193	186.600000
840.307434	188.700000
840.341736	181.200000
840.375916	178.000000
840.410217	181.500000
840.444397	190.800000
840.478638	188.200000
840.512878	190.100000
840.547119	185.500000
840.581360	187.200000
840.615601	194.500000
840.649780	195.300000
840.684021	185.600000
840.718262	194.300000
840.752441	190.700000
840.786682	186.700000
840.820862	187.000000
840.855103	192.300000
840.889343	186.400000
840.923584	190.400000
840.957764	188.500000
840.992004	186.500000
841.026184	198.900000
841.060425	184.200000
841.094666	182.900000
841.128845	189.500000
841.163025	186.300000
841.197266	189.400000
841.231445	187.600000
841.265686	186.600000
841.299866	181.900000
841.334045	194.500000
841.368286	183.500000
841.402405	194.400000
841.436646	189.800000
841.470825	183.800000
841.505005	184.500000
841.539185	181.900000
841.573425	181.400000
841.607544	186.700000
841.641785	185.400000
841.675964	183.000000
841.710144	185.500000
841.744324	182.800000
841.778503	182.800000
841.812683	182.700000
841.846863	193.600000
841.881042	193.700000
841.915222	181.900000
841.949402	200.900000
841.983521	177.300000
842.017700	186.100000
842.051880	187.100000
842.086060	186.600000
842.120239	186.200000
842.154419	184.000000
842.188538	187.400000
842.222717	182.800000
842.256897	194.700000
842.291016	182.700000
842.325195	186.400000
842.359375	197.000000
842.393494	194.000000
842.427673	186.800000
842.461853	188.200000
842.495911	194.500000
842.530090	187.100000
842.564209	185.800000
842.598389	186.900000
842.632568	185.700000
842.666626	190.100000
842.700806	183.000000
842.734985	183.800000
842.769043	188.700000
842.803223	184.400000
842.837402	185.000000
842.871460	182.900000
842.905640	194.100000
842.939697	182.200000
842.973877	186.800000
843.007996	191.500000
843.042175	194.800000
843.076233	183.600000
843.110413	188.600000
843.144470	195.600000
843.178589	189.700000
843.212769	182.900000
843.246826	189.900000
843.280945	185.200000
843.315125	184.000000
843.349182	183.800000
843.383301	191.800000
843.417419	200.800000
843.451538	185.700000
843.485657	185.200000
843.519714	184.500000
843.553833	188.000000
843.587952	183.400000
843.622070	182.100000
843.656128	189.200000
843.690247	183.400000
843.724304	184.500000
843.758423	187.700000
843.792542	184.400000
843.826599	185.800000
843.860718	183.600000
843.894836	178.900000
843.928894	185.300000
843.963013	188.700000
843.997070	183.000000
844.031128	179.300000
844.065247	189.700000
844.099304	190.800000
844.133362	186.700000
844.167480	189.100000
844.201599	192.900000
844.235596	187.600000
844.269714	188.200000
844.303711	188.100000
844.337830	177.700000
844.371948	189.100000
844.405945	184.200000
844.440063	180.300000
844.474121	200.200000
844.508118	184.800000
844.542236	185.800000
844.576294	186.900000
844.610352	181.800000
844.644409	184.400000
844.678406	177.700000
844.712524	191.900000
844.746582	192.900000
844.780640	184.200000
844.814636	186.300000
844.848755	197.000000
844.882751	184.800000
844.916809	190.800000
844.950867	188.100000
844.984863	194.600000
845.018921	185.900000
845.052979	181.900000
845.086975	186.500000
845.121033	179.700000
845.155090	182.500000
845.189087	193.200000
845.223145	183.800000
845.257141	186.100000
845.291199	190.100000
845.325256	192.300000
845.359253	187.400000
845.393250	195.600000
845.427307	185.300000
845.461304	188.100000
845.495361	187.400000
845.529358	194.900000
845.563354	186.400000
845.597412	181.200000
845.631409	194.300000
845.665405	193.000000
845.699463	192.200000
845.733459	183.500000
845.767456	193.700000
845.801453	185.400000
845.835449	192.900000
845.869446	189.800000
845.903503	190.700000
845.937439	181.800000
845.971497	192.900000
846.005493	179.400000
846.039429	189.400000
846.073486	195.300000
846.107483	185.100000
846.141418	184.600000
846.175476	185.800000
846.209473	193.100000
846.243408	182.600000
846.277405	187.800000
846.311401	182.900000
846.345337	188.200000
846.379395	191.100000
846.413330	183.400000
846.447327	195.500000
846.481323	182.500000
846.515259	183.700000
846.549255	187.400000
846.583252	188.300000
846.617187	182.200000
846.651184	188.600000
846.685120	186.000000
846.719055	194.700000
846.753052	190.600000
846.786987	190.100000
846.820984	181.900000
846.854980	193.600000
846.888916	181.800000
846.922852	188.700000
846.956848	196.400000
846.990723	182.900000
847.024719	188.600000
847.058716	185.600000
847.092590	194.300000
847.126587	187.800000
847.160522	184.900000
847.194458	189.800000
847.228455	183.400000
847.262390	181.000000
847.296265	185.400000
847.330261	192.900000
847.364136	185.500000
847.398132	182.700000
847.432068	187.200000
847.466003	185.400000
847.499939	184.900000
847.533875	188.200000
847.567749	184.100000
847.601746	184.200000
847.635681	190.300000
847.669556	177.500000
847.703491	192.600000
847.737427	199.600000
847.771301	182.200000
847.805237	187.400000
847.839233	188.600000
847.873108	185.500000
847.907043	184.800000
847.940918	192.300000
847.974854	188.600000
848.008789	190.200000
848.042664	187.300000
848.076538	188.400000
848.110474	185.600000
848.144348	188.400000
848.178284	180.200000
848.212219	188.000000
848.246094	184.800000
848.279968	189.400000
848.313904	189.200000
848.347778	186.600000
848.381653	184.600000
848.415588	183.500000
848.449463	183.800000
848.483337	190.800000
848.517212	192.700000
848.551086	188.200000
848.585022	182.200000
848.618835	197.200000
848.652771	184.400000
848.686646	181.900000
848.720520	193.600000
848.754395	186.400000
848.788330	190.200000
848.822144	190.600000
848.856018	184.500000
848.889954	197.400000
848.923767	182.300000
848.957642	184.000000
848.991577	189.600000
849.025391	185.200000
849.059265	184.400000
849.093079	184.000000
849.126953	180.300000
849.160828	192.500000
849.194641	187.700000
849.228577	185.400000
849.262451	185.200000
849.296265	184.400000
849.330139	180.900000
849.364014	187.900000
849.397827	191.500000
849.431702	186.800000
849.465515	191.100000
849.499329	179.400000
849.533203	181.100000
849.567078	177.300000
849.600891	191.000000
849.634766	185.300000
849.668518	190.400000
849.702393	187.000000
849.736267	179.500000
849.770020	197.500000
849.803894	189.400000
849.837769	187.200000
849.871521	186.700000
849.905396	193.000000
849.939270	182.600000
849.973022	184.100000
850.006897	190.900000
850.040710	189.100000
850.074524	191.500000
850.108337	185.600000
850.142151	192.200000
850.175964	192.700000
850.209778	186.700000
850.243530	175.000000
850.277405	191.900000
850.311218	186.700000
850.344971	184.400000
850.378845	194.300000
850.412659	184.900000
850.446411	187.500000
850.480225	186.400000
850.514038	191.500000
850.547791	189.700000
850.581665	185.400000
850.615417	183.900000
850.649231	187.300000
850.683044	184.800000
850.716858	186.000000
850.750610	188.200000
850.784424	189.700000
850.818176	183.000000
850.851929	184.300000
850.885742	183.600000
850.919495	185.900000
850.953308	193.800000
850.987122	193.500000
851.020874	180.800000
851.054626	179.700000
851.088440	191.200000
851.122192	189.200000
851.156006	188.100000
851.189697	185.700000
851.223511	181.600000
851.257263	191.800000
851.291077	190.700000
851.324829	185.500000
851.358582	183.500000
851.392334	184.100000
851.426086	184.700000
851.459900	195.500000
851.493591	187.700000
851.527344	186.900000
851.561157	185.200000
851.594849	189.300000
851.628662	188.200000
851.662415	195.500000
851.696106	189.900000
851.729858	190.900000
851.763611	181.400000
851.797363	187.200000
851.831116	182.700000
851.864868	189.700000
851.898560	191.600000
851.932312	184.500000
851.966064	188.500000
851.999817	186.400000
852.033569	186.800000
852.067261	190.300000
852.101013	182.300000
852.134766	187.200000
852.168457	176.300000
852.202209	190.800000
852.235901	182.400000
852.269592	190.200000
852.303345	194.700000
852.337036	191.600000
852.370789	187.600000
852.404541	190.900000
852.438171	182.300000
852.471924	187.600000
852.505676	179.900000
852.539307	188.500000
852.573059	184.000000
852.606812	185.800000
852.640442	184.800000
852.674194	192.400000
852.707886	196.500000
852.741577	194.600000
852.775269	181.100000
852.809021	187.100000
852.842651	188.600000
852.876404	191.700000
852.910034	186.900000
852.943787	193.100000
852.977478	189.600000
853.011108	182.900000
853.044861	184.000000
853.078552	194.900000
853.112183	188.500000
853.145874	188.000000
853.179626	178.500000
853.213257	186.800000
853.246948	185.500000
853.280640	194.900000
853.314270	187.300000
853.347961	193.200000
853.381653	189.500000
853.415283	191.200000
853.448975	183.800000
853.482605	187.800000
853.516296	185.000000
853.549988	182.700000
853.583618	187.500000
853.617310	187.700000
853.651001	189.200000
853.684631	182.300000
853.718323	184.000000
853.751953	193.600000
853.785583	180.700000
853.819275	191.200000
853.852966	189.900000
853.886536	178.400000
853.920227	182.500000
853.953918	191.900000
853.987488	186.200000
854.021179	190.300000
854.054749	195.700000
854.088440	188.600000
854.122131	182.600000
854.155701	189.500000
854.189331	183.200000
854.223022	189.700000
854.256592	190.000000
854.290283	183.100000
854.323914	190.800000
854.357483	188.700000
854.391174	189.800000
854.424744	195.800000
854.458374	188.400000
854.492065	197.300000
854.525696	185.100000
854.559265	193.200000
854.592896	197.700000
854.626465	187.000000
854.660095	186.800000
854.693787	187.000000
854.727356	185.100000
854.760986	190.300000
854.794617	188.100000
854.828186	185.200000
854.861816	191.400000
854.895447	187.400000
854.929016	187.500000
854.962585	189.600000
854.996155	194.900000
855.029785	188.700000
855.063416	189.000000
855.097046	191.100000
855.130615	181.800000
855.164185	193.000000
855.197754	187.400000
855.231384	190.000000
855.264954	185.300000
855.298523	191.600000
855.332153	188.400000
855.365723	195.600000
855.399292	183.200000
855.432922	186.700000
855.466492	188.200000
855.500061	184.200000
855.533630	182.700000
855.567200	190.800000
855.600769	188.900000
855.634338	192.200000
855.667969	188.600000
855.701477	186.400000
855.735046	183.200000
855.768616	179.900000
855.802185	190.000000
855.835754	201.800000
855.869324	179.100000
855.902893	186.300000
855.936401	193.200000
855.969971	189.400000
856.003540	179.600000
856.037109	191.200000
856.070618	185.600000
856.104187	182.000000
856.137695	184.500000
856.171265	177.800000
856.204834	186.800000
856.238403	192.600000
856.271912	185.100000
856.305481	188.700000
856.338989	181.900000
856.372559	190.200000
856.406128	188.100000
856.439636	191.800000
856.473145	185.700000
856.506653	195.600000
856.540222	186.400000
856.573792	194.300000
856.607300	190.700000
856.640808	181.700000
856.674377	188.400000
856.707825	217.500000
856.741394	191.600000
856.774902	184.000000
856.808472	179.400000
856.841980	190.500000
856.875488	195.600000
856.908936	180.300000
856.942505	184.500000
856.976013	187.700000
857.009521	183.800000
857.043030	187.000000
857.076477	186.000000
857.110046	192.900000
857.143555	188.900000
857.177063	191.700000
857.210571	185.700000
857.244080	181.300000
857.277527	191.400000
857.311035	185.400000
857.344543	191.700000
857.378052	186.400000
857.411499	193.200000
857.445068	195.200000
857.478516	187.000000
857.512024	181.500000
857.545532	186.200000
857.578979	188.600000
857.612427	187.900000
857.645874	183.100000
857.679382	188.200000
857.712891	192.600000
857.746399	188.100000
857.779846	192.600000
857.813354	192.400000
857.846741	186.100000
857.880249	183.900000
857.913757	189.400000
857.947266	188.900000
857.980652	189.200000
858.014160	183.700000
858.047546	184.500000
858.081055	186.400000
858.114563	196.200000
858.147949	180.900000
858.181458	190.400000
858.214844	186.600000
858.248352	178.000000
858.281799	192.300000
858.315308	198.800000
858.348694	190.900000
858.382141	194.300000
858.415588	190.500000
858.449036	192.300000
858.482483	190.300000
858.515930	183.000000
858.549377	186.100000
858.582825	194.500000
858.616211	189.200000
858.649658	189.500000
858.683105	181.900000
858.716553	184.700000
858.750000	181.200000
858.783386	186.000000
858.816833	178.800000
858.850281	188.000000
858.883728	188.600000
858.917114	186.900000
858.950562	195.400000
858.983948	196.400000
859.017395	192.400000
859.050781	187.100000
859.084167	183.100000
859.117615	182.100000
859.151062	190.100000
859.184448	184.600000
859.217834	185.300000
859.251282	186.400000
859.284668	182.700000
859.318054	178.900000
859.351440	184.600000
859.384888	195.000000
859.418274	178.400000
859.451721	179.900000
859.485046	190.100000
859.518494	188.600000
859.551819	181.700000
859.585266	190.300000
859.618652	189.900000
859.652039	181.700000
859.685425	181.200000
859.718811	182.100000
859.752197	175.800000
859.785583	194.300000
859.819031	194.900000
859.852356	190.400000
859.885742	184.000000
859.919067	186.800000
859.952454	184.800000
859.985901	190.400000
860.019287	185.000000
860.052612	0.000000
860.085999	0.000000
860.119324	0.000000
860.152710	0.000000
860.186096	0.000000
860.219421	0.000000
860.252808	0.000000
860.286133	0.000000
860.319519	0.000000
860.352905	0.000000
860.386292	0.000000
860.419617	0.000000
860.452942	0.000000
860.486267	0.000000
860.519653	0.000000
860.553040	0.000000
860.586365	0.000000
860.619690	0.000000
860.653076	0.000000
860.686340	0.000000
860.719727	0.000000
860.753113	0.000000
860.786377	0.000000
860.819763	0.000000
860.853027	0.000000
860.886414	0.000000
860.919739	0.000000
860.953125	0.000000
860.986389	0.000000
861.019714	0.000000
861.053040	0.000000
861.086365	0.000000
861.119690	0.000000
861.153076	0.000000
861.186340	0.000000
861.219666	0.000000
861.252930	0.000000
861.286316	0.000000
861.319641	0.000000
861.352905	0.000000
861.386230	0.000000
861.419495	0.000000
861.452820	0.000000
861.486145	0.000000
861.519470	0.000000
861.552734	0.000000
861.586060	0.000000
861.619324	0.000000
861.652649	0.000000
861.685974	0.000000
861.719238	0.000000
861.752563	0.000000
861.785828	0.000000
861.819092	0.000000
861.852417	0.000000
861.885742	0.000000
861.918945	0.000000
861.952271	0.000000
861.985535	0.000000
862.018799	0.000000
862.052124	0.000000
862.085449	0.000000
862.118652	0.000000
862.151978	0.000000
862.185181	0.000000
862.218506	0.000000
862.251770	0.000000
862.285034	0.000000
862.318298	0.000000
862.351562	0.000000
862.384827	0.000000
862.418091	0.000000
862.451355	0.000000
862.484619	0.000000
862.517883	0.000000
862.551086	0.000000
862.584351	0.000000
862.617676	0.000000
862.650940	0.000000
862.684143	0.000000
862.717407	0.000000
862.750610	0.000000
862.783875	0.000000
862.817139	0.000000
862.850342	0.000000
862.883606	0.000000
862.916870	0.000000
862.950073	0.000000
862.983337	0.000000
863.016602	0.000000
863.049805	0.000000
863.083069	0.000000
863.116211	0.000000
863.149475	0.000000
863.182739	0.000000
863.216003	0.000000
863.249146	0.000000
863.282410	0.000000
863.315613	0.000000
863.348816	0.000000
863.382080	0.000000
863.415222	0.000000
863.448486	0.000000
863.481689	0.000000
863.514893	0.000000
863.548157	0.000000
863.581360	0.000000
863.614502	0.000000
863.647766	0.000000
863.680908	0.000000
863.714172	0.000000
863.747375	0.000000
863.780579	0.000000
863.813721	0.000000
863.846985	0.000000
863.880127	0.000000
863.913330	0.000000
863.946533	0.000000
863.979675	0.000000
864.012939	0.000000
