Model Number: SPM-001-M   
Serial Number: 10090201
Firmware Version: 004.17.6
Exposure Time: 500000.000000us
Data Taken on: 03-03-2021 09:42:44.671
Wavelength	Amplitude
733.770752	0.000000
733.808716	0.000000
733.846619	0.000000
733.884583	0.000000
733.922546	0.000000
733.960449	0.000000
733.998413	0.000000
734.036377	0.000000
734.074219	0.000000
734.112183	0.000000
734.150085	0.000000
734.188049	0.000000
734.226013	0.000000
734.263916	0.000000
734.301819	0.000000
734.339783	0.000000
734.377686	0.000000
734.415588	0.000000
734.453552	0.000000
734.491455	0.000000
734.529419	0.000000
734.567322	0.000000
734.605225	0.000000
734.643127	0.000000
734.681091	0.000000
734.718994	0.000000
734.756897	0.000000
734.794800	0.000000
734.832703	0.000000
734.870667	0.000000
734.908508	0.000000
734.946472	0.000000
734.984375	0.000000
735.022278	0.000000
735.060181	0.000000
735.098083	0.000000
735.135986	0.000000
735.173889	0.000000
735.211792	0.000000
735.249695	0.000000
735.287598	0.000000
735.325439	0.000000
735.363403	0.000000
735.401306	0.000000
735.439148	0.000000
735.477051	0.000000
735.515015	0.000000
735.552856	0.000000
735.590759	0.000000
735.628662	0.000000
735.666504	0.000000
735.704407	0.000000
735.742310	0.000000
735.780212	0.000000
735.818115	0.000000
735.856018	0.000000
735.893860	0.000000
735.931763	0.000000
735.969604	0.000000
736.007507	0.000000
736.045410	0.000000
736.083252	0.000000
736.121094	0.000000
736.158997	0.000000
736.196838	0.000000
736.234741	0.000000
736.272644	0.000000
736.310486	0.000000
736.348389	0.000000
736.386230	0.000000
736.424072	0.000000
736.461975	0.000000
736.499878	0.000000
736.537720	0.000000
736.575562	0.000000
736.613403	0.000000
736.651306	0.000000
736.689148	0.000000
736.726990	0.000000
736.764893	0.000000
736.802734	0.000000
736.840576	0.000000
736.878418	0.000000
736.916321	0.000000
736.954102	0.000000
736.992004	0.000000
737.029846	0.000000
737.067688	0.000000
737.105530	0.000000
737.143372	0.000000
737.181213	0.000000
737.219116	0.000000
737.256897	0.000000
737.294739	0.000000
737.332642	0.000000
737.370422	0.000000
737.408325	0.000000
737.446167	0.000000
737.483948	0.000000
737.521790	0.000000
737.559692	0.000000
737.597473	0.000000
737.635315	0.000000
737.673157	0.000000
737.710999	0.000000
737.748840	0.000000
737.786621	0.000000
737.824463	0.000000
737.862305	0.000000
737.900085	0.000000
737.937927	0.000000
737.975769	0.000000
738.013550	0.000000
738.051392	0.000000
738.089233	0.000000
738.127014	0.000000
738.164856	0.000000
738.202698	0.000000
738.240479	0.000000
738.278320	0.000000
738.316162	0.000000
738.353943	0.000000
738.391785	0.000000
738.429565	0.000000
738.467407	0.000000
738.505188	0.000000
738.542969	0.000000
738.580811	0.000000
738.618652	0.000000
738.656372	0.000000
738.694214	0.000000
738.732056	0.000000
738.769836	0.000000
738.807617	0.000000
738.845459	0.000000
738.883240	0.000000
738.921021	0.000000
738.958862	0.000000
738.996582	0.000000
739.034424	0.000000
739.072205	0.000000
739.109985	0.000000
739.147827	0.000000
739.185547	0.000000
739.223389	0.000000
739.261169	0.000000
739.298889	0.000000
739.336731	0.000000
739.374512	0.000000
739.412292	0.000000
739.450073	0.000000
739.487854	0.000000
739.525635	0.000000
739.563416	0.000000
739.601135	0.000000
739.638977	0.000000
739.676758	0.000000
739.714478	0.000000
739.752258	0.000000
739.790100	0.000000
739.827820	0.000000
739.865601	0.000000
739.903381	0.000000
739.941101	0.000000
739.978882	187.300000
740.016724	183.900000
740.054443	189.600000
740.092224	180.900000
740.130005	181.700000
740.167725	181.300000
740.205505	180.000000
740.243225	190.500000
740.281006	187.100000
740.318787	178.000000
740.356506	191.600000
740.394287	189.500000
740.432068	180.300000
740.469727	177.600000
740.507507	190.700000
740.545288	183.800000
740.583008	187.900000
740.620789	185.600000
740.658569	176.600000
740.696228	184.000000
740.734009	191.000000
740.771790	173.400000
740.809509	190.400000
740.847229	181.300000
740.884949	182.500000
740.922729	177.800000
740.960449	183.500000
740.998169	179.800000
741.035950	181.500000
741.073669	186.100000
741.111389	186.400000
741.149170	194.100000
741.186890	194.900000
741.224609	188.700000
741.262329	187.500000
741.300110	194.000000
741.337769	180.500000
741.375549	179.300000
741.413208	186.800000
741.450989	180.500000
741.488708	181.200000
741.526367	183.100000
741.564148	188.300000
741.601868	189.400000
741.639526	184.500000
741.677307	187.500000
741.715027	187.300000
741.752686	181.000000
741.790466	192.000000
741.828186	188.900000
741.865845	178.700000
741.903564	177.100000
741.941345	184.600000
741.979004	181.200000
742.016724	188.400000
742.054382	184.800000
742.092102	189.500000
742.129822	178.200000
742.167480	183.800000
742.205200	185.200000
742.242920	185.000000
742.280640	188.700000
742.318359	181.500000
742.356079	182.200000
742.393738	188.200000
742.431396	183.400000
742.469116	187.600000
742.506775	176.900000
742.544495	187.700000
742.582214	189.100000
742.619873	183.700000
742.657593	192.500000
742.695251	188.800000
742.732971	185.800000
742.770630	186.500000
742.808289	185.300000
742.846008	185.200000
742.883728	188.000000
742.921326	184.700000
742.959045	182.700000
742.996765	184.800000
743.034424	185.200000
743.072083	181.900000
743.109802	184.800000
743.147400	179.300000
743.185120	186.600000
743.222839	184.700000
743.260437	190.900000
743.298157	186.000000
743.335754	177.500000
743.373474	181.800000
743.411133	178.500000
743.448792	185.000000
743.486450	184.800000
743.524170	177.500000
743.561768	185.100000
743.599487	191.100000
743.637146	195.500000
743.674744	183.600000
743.712463	182.600000
743.750122	184.400000
743.787720	186.700000
743.825439	180.900000
743.863037	182.100000
743.900696	185.100000
743.938416	209.600000
743.976013	183.700000
744.013672	192.000000
744.051331	189.200000
744.088928	193.200000
744.126587	192.200000
744.164307	185.500000
744.201904	182.700000
744.239563	188.700000
744.277222	188.600000
744.314819	183.800000
744.352478	192.400000
744.390137	186.300000
744.427734	187.300000
744.465393	182.000000
744.502991	180.800000
744.540649	188.500000
744.578308	185.400000
744.615906	179.300000
744.653564	176.000000
744.691223	188.700000
744.728821	178.700000
744.766418	184.900000
744.804077	186.200000
744.841675	182.200000
744.879333	179.300000
744.916992	185.400000
744.954529	183.100000
744.992187	189.500000
745.029785	184.400000
745.067444	181.500000
745.105042	187.000000
745.142639	187.000000
745.180298	195.400000
745.217896	183.500000
745.255493	183.200000
745.293152	188.700000
745.330750	190.400000
745.368347	191.400000
745.405945	188.000000
745.443604	185.900000
745.481140	188.600000
745.518799	183.500000
745.556396	188.200000
745.593994	190.100000
745.631592	184.200000
745.669189	180.300000
745.706787	186.400000
745.744385	180.600000
745.781982	186.800000
745.819580	182.900000
745.857178	182.700000
745.894775	185.400000
745.932373	186.000000
745.969971	187.200000
746.007568	177.300000
746.045166	195.000000
746.082764	190.100000
746.120300	189.000000
746.157898	187.400000
746.195557	184.800000
746.233093	179.400000
746.270691	188.300000
746.308228	186.600000
746.345825	190.100000
746.383423	188.100000
746.420959	179.600000
746.458557	181.700000
746.496155	183.100000
746.533691	184.800000
746.571289	180.900000
746.608887	185.500000
746.646423	186.800000
746.684021	185.700000
746.721619	183.400000
746.759155	186.500000
746.796753	179.800000
746.834351	180.000000
746.871826	182.100000
746.909424	191.700000
746.946960	186.300000
746.984558	184.400000
747.022156	182.600000
747.059631	192.900000
747.097229	188.200000
747.134827	182.900000
747.172363	191.900000
747.209900	186.800000
747.247498	181.200000
747.285034	192.300000
747.322571	191.600000
747.360168	182.400000
747.397644	178.100000
747.435242	188.700000
747.472778	191.000000
747.510315	182.800000
747.547913	183.300000
747.585388	190.500000
747.622925	183.600000
747.660522	176.500000
747.697998	181.300000
747.735596	185.000000
747.773132	181.600000
747.810669	185.700000
747.848206	187.800000
747.885742	179.300000
747.923279	177.400000
747.960815	187.400000
747.998352	185.000000
748.035889	190.100000
748.073425	188.500000
748.110901	182.600000
748.148437	180.100000
748.185974	185.500000
748.223511	194.000000
748.261047	187.500000
748.298584	185.000000
748.336060	185.100000
748.373596	187.700000
748.411133	205.600000
748.448608	181.100000
748.486145	189.000000
748.523682	191.700000
748.561218	190.900000
748.598755	186.100000
748.636292	188.300000
748.673706	182.700000
748.711243	191.700000
748.748718	187.900000
748.786255	186.100000
748.823792	185.800000
748.861267	180.000000
748.898804	187.300000
748.936340	186.700000
748.973816	182.300000
749.011292	191.500000
749.048828	187.900000
749.086304	188.000000
749.123840	197.400000
749.161316	181.200000
749.198792	193.800000
749.236328	191.200000
749.273743	185.500000
749.311279	183.000000
749.348816	187.900000
749.386230	186.800000
749.423767	175.000000
749.461304	187.600000
749.498718	184.300000
749.536255	192.200000
749.573730	196.600000
749.611206	190.500000
749.648682	184.200000
749.686218	185.600000
749.723633	187.400000
749.761169	183.500000
749.798645	182.100000
749.836060	183.500000
749.873596	183.100000
749.911011	185.300000
749.948547	191.900000
749.986023	184.100000
750.023437	185.000000
750.060913	179.000000
750.098450	178.400000
750.135864	184.300000
750.173340	186.000000
750.210815	189.700000
750.248291	180.200000
750.285767	184.300000
750.323242	190.900000
750.360657	187.400000
750.398132	181.100000
750.435608	188.500000
750.473022	181.600000
750.510498	182.300000
750.547974	180.900000
750.585449	181.700000
750.622925	177.000000
750.660339	195.200000
750.697815	184.700000
750.735291	184.200000
750.772644	187.100000
750.810120	188.300000
750.847595	189.300000
750.885010	182.300000
750.922485	193.700000
750.959961	183.700000
750.997375	191.600000
751.034851	189.600000
751.072266	189.700000
751.109680	179.100000
751.147156	191.000000
751.184570	187.600000
751.221985	185.300000
751.259460	176.000000
751.296875	186.500000
751.334290	185.600000
751.371765	189.400000
751.409180	187.600000
751.446594	190.100000
751.484070	187.100000
751.521423	186.800000
751.558899	186.400000
751.596375	193.800000
751.633728	192.200000
751.671204	196.700000
751.708618	180.900000
751.746033	184.900000
751.783447	180.200000
751.820801	180.700000
751.858276	188.000000
751.895691	185.000000
751.933105	183.100000
751.970520	180.100000
752.007935	183.800000
752.045349	188.900000
752.082764	186.200000
752.120178	184.300000
752.157532	182.000000
752.195007	182.200000
752.232422	188.600000
752.269775	188.100000
752.307190	188.900000
752.344543	181.400000
752.382019	184.400000
752.419434	182.900000
752.456787	188.700000
752.494202	190.100000
752.531616	187.900000
752.568970	188.700000
752.606384	187.200000
752.643799	187.300000
752.681152	192.700000
752.718567	188.600000
752.755981	177.800000
752.793335	189.700000
752.830750	176.900000
752.868164	190.900000
752.905518	181.000000
752.942932	189.600000
752.980225	179.500000
753.017639	189.100000
753.055054	184.200000
753.092407	186.500000
753.129822	192.600000
753.167175	195.000000
753.204529	186.300000
753.241943	182.500000
753.279358	180.300000
753.316650	188.700000
753.354065	186.400000
753.391479	189.700000
753.428772	193.500000
753.466187	188.800000
753.503479	179.900000
753.540894	183.300000
753.578308	179.900000
753.615601	181.300000
753.653015	185.000000
753.690369	182.900000
753.727722	181.100000
753.765076	178.900000
753.802490	179.900000
753.839783	178.300000
753.877136	181.900000
753.914551	202.500000
753.951843	180.300000
753.989258	189.700000
754.026611	186.400000
754.063904	187.500000
754.101257	180.400000
754.138611	178.300000
754.175964	184.700000
754.213318	197.000000
754.250610	177.700000
754.288025	183.600000
754.325378	179.900000
754.362671	191.700000
754.400024	183.700000
754.437378	195.100000
754.474670	195.000000
754.512085	182.300000
754.549438	185.700000
754.586731	184.300000
754.624084	184.600000
754.661438	181.400000
754.698730	193.000000
754.736084	183.300000
754.773376	184.900000
754.810730	187.600000
754.848083	183.100000
754.885315	190.200000
754.922668	178.200000
754.960022	181.000000
754.997314	189.300000
755.034668	184.700000
755.072021	185.900000
755.109253	182.400000
755.146606	191.800000
755.183960	181.800000
755.221252	193.100000
755.258545	189.700000
755.295898	191.800000
755.333191	193.100000
755.370544	188.000000
755.407776	185.000000
755.445129	185.900000
755.482422	189.700000
755.519714	182.400000
755.557068	179.000000
755.594360	178.300000
755.631653	189.200000
755.668945	194.000000
755.706299	187.000000
755.743530	196.400000
755.780884	192.600000
755.818176	190.900000
755.855408	190.400000
755.892761	187.900000
755.930054	186.700000
755.967346	189.600000
756.004639	189.200000
756.041870	188.000000
756.079224	190.200000
756.116516	182.600000
756.153748	191.600000
756.191040	194.000000
756.228394	189.800000
756.265625	183.100000
756.302917	186.700000
756.340210	184.200000
756.377441	191.800000
756.414795	194.500000
756.452087	186.100000
756.489319	180.600000
756.526611	190.200000
756.563843	189.500000
756.601135	195.700000
756.638428	195.900000
756.675659	187.900000
756.712952	192.300000
756.750244	190.400000
756.787476	190.300000
756.824768	193.900000
756.862061	186.000000
756.899292	234.300000
756.936584	192.000000
756.973816	198.500000
757.011047	200.800000
757.048340	187.800000
757.085632	189.900000
757.122864	203.300000
757.160156	186.600000
757.197327	191.100000
757.234619	193.200000
757.271912	188.100000
757.309082	193.600000
757.346375	185.900000
757.383667	194.900000
757.420837	191.900000
757.458130	190.000000
757.495422	189.200000
757.532593	191.100000
757.569885	184.000000
757.607117	185.500000
757.644348	192.400000
757.681580	203.800000
757.718811	179.900000
757.756042	189.700000
757.793335	187.600000
757.830505	192.200000
757.867798	187.800000
757.905029	186.600000
757.942200	192.800000
757.979492	186.800000
758.016724	189.700000
758.053894	188.600000
758.091187	209.900000
758.128418	191.400000
758.165588	190.100000
758.202820	201.800000
758.240112	189.500000
758.277283	201.600000
758.314514	193.400000
758.351685	189.100000
758.388916	202.800000
758.426147	200.100000
758.463379	201.900000
758.500610	196.000000
758.537842	193.800000
758.575012	199.100000
758.612244	188.700000
758.649475	205.700000
758.686646	186.800000
758.723877	199.900000
758.761108	202.600000
758.798279	194.000000
758.835510	195.100000
758.872742	199.800000
758.909851	196.900000
758.947083	197.400000
758.984253	197.200000
759.021484	200.400000
759.058716	199.200000
759.095886	199.600000
759.133057	194.700000
759.170288	198.700000
759.207458	191.400000
759.244690	206.400000
759.281860	203.500000
759.319031	195.800000
759.356262	193.900000
759.393433	195.400000
759.430603	195.600000
759.467773	195.600000
759.505005	202.100000
759.542175	201.900000
759.579346	195.400000
759.616516	199.500000
759.653687	200.600000
759.690918	194.600000
759.728027	198.600000
759.765259	200.600000
759.802429	201.900000
759.839539	202.900000
759.876770	205.700000
759.913940	209.000000
759.951111	201.100000
759.988281	200.300000
760.025452	197.700000
760.062561	195.500000
760.099792	207.200000
760.136963	203.800000
760.174072	198.300000
760.211243	194.900000
760.248413	195.900000
760.285583	198.000000
760.322754	210.900000
760.359863	206.400000
760.397034	208.800000
760.434204	201.400000
760.471375	201.000000
760.508545	199.400000
760.545715	201.900000
760.582825	197.900000
760.619995	207.200000
760.657166	195.800000
760.694275	209.400000
760.731445	205.200000
760.768555	204.200000
760.805664	207.000000
760.842834	205.000000
760.879944	206.900000
760.917114	205.000000
760.954285	203.400000
760.991394	197.500000
761.028564	210.800000
761.065674	206.700000
761.102783	199.800000
761.139954	209.700000
761.177124	209.000000
761.214172	210.900000
761.251343	203.300000
761.288452	205.200000
761.325562	208.300000
761.362732	203.100000
761.399841	204.600000
761.436951	208.300000
761.474121	200.600000
761.511169	207.100000
761.548340	210.500000
761.585449	209.700000
761.622559	210.400000
761.659668	207.300000
761.696838	212.900000
761.733887	210.500000
761.771057	205.400000
761.808167	205.900000
761.845276	210.800000
761.882385	220.100000
761.919434	211.800000
761.956604	227.400000
761.993713	207.500000
762.030762	217.100000
762.067871	208.400000
762.105042	209.300000
762.142090	217.200000
762.179199	213.200000
762.216309	215.600000
762.253418	226.900000
762.290527	220.900000
762.327637	217.600000
762.364685	205.700000
762.401794	216.300000
762.438904	214.200000
762.475952	210.600000
762.513062	209.500000
762.550110	209.200000
762.587219	223.700000
762.624329	223.300000
762.661377	216.800000
762.698486	218.000000
762.735596	217.000000
762.772644	210.200000
762.809753	208.900000
762.846863	215.300000
762.883911	220.400000
762.921021	220.700000
762.958069	214.700000
762.995117	225.200000
763.032227	223.000000
763.069336	215.900000
763.106323	212.700000
763.143433	211.300000
763.180481	219.400000
763.217590	219.600000
763.254639	217.700000
763.291687	216.500000
763.328735	227.200000
763.365845	217.400000
763.402893	217.300000
763.439941	221.300000
763.477051	224.400000
763.514038	223.600000
763.551147	217.800000
763.588196	221.400000
763.625244	220.000000
763.662292	226.400000
763.699402	229.200000
763.736389	224.000000
763.773499	233.400000
763.810486	227.000000
763.847534	223.800000
763.884644	226.400000
763.921631	223.000000
763.958679	234.900000
763.995728	225.400000
764.032776	232.300000
764.069824	221.400000
764.106873	229.700000
764.143860	235.500000
764.180969	226.500000
764.218018	236.900000
764.255005	224.800000
764.292053	229.300000
764.329102	237.800000
764.366089	238.000000
764.403137	236.100000
764.440125	228.400000
764.477173	232.300000
764.514221	236.500000
764.551208	232.700000
764.588257	227.900000
764.625305	238.500000
764.662292	242.800000
764.699341	246.300000
764.736389	237.700000
764.773376	252.900000
764.810425	239.000000
764.847473	248.800000
764.884399	242.100000
764.921448	250.100000
764.958435	248.300000
764.995483	239.900000
765.032532	257.200000
765.069458	241.700000
765.106506	242.200000
765.143555	240.300000
765.180481	245.700000
765.217529	253.000000
765.254578	237.600000
765.291504	247.600000
765.328552	245.800000
765.365540	242.800000
765.402527	259.200000
765.439575	244.400000
765.476501	239.400000
765.513550	241.100000
765.550537	245.600000
765.587463	255.600000
765.624512	244.200000
765.661499	238.700000
765.698486	254.300000
765.735474	244.500000
765.772461	247.700000
765.809448	256.800000
765.846436	253.300000
765.883423	259.300000
765.920410	253.400000
765.957397	250.700000
765.994385	254.000000
766.031311	263.500000
766.068359	257.800000
766.105286	256.500000
766.142273	262.000000
766.179260	258.700000
766.216187	251.000000
766.253174	249.600000
766.290161	256.400000
766.327148	260.600000
766.364136	261.400000
766.401123	276.400000
766.438049	254.700000
766.475037	267.800000
766.512024	264.100000
766.548950	278.300000
766.585937	271.900000
766.622864	269.000000
766.659790	265.500000
766.696777	257.200000
766.733704	270.000000
766.770691	260.400000
766.807678	275.100000
766.844604	269.700000
766.881531	268.800000
766.918518	274.300000
766.955444	276.900000
766.992432	270.500000
767.029358	274.500000
767.066284	276.800000
767.103271	272.500000
767.140198	303.100000
767.177124	289.800000
767.214050	277.600000
767.251038	278.700000
767.287964	276.100000
767.324890	272.600000
767.361816	276.400000
767.398743	286.300000
767.435730	276.600000
767.472595	282.000000
767.509583	286.000000
767.546509	275.200000
767.583374	279.000000
767.620361	273.700000
767.657288	279.200000
767.694214	280.400000
767.731140	279.700000
767.768066	281.200000
767.804993	282.300000
767.841919	277.600000
767.878845	282.600000
767.915710	291.300000
767.952698	282.900000
767.989563	285.900000
768.026489	287.700000
768.063416	281.900000
768.100281	279.300000
768.137207	294.700000
768.174133	291.500000
768.211060	289.100000
768.247986	289.200000
768.284912	287.400000
768.321777	290.600000
768.358704	285.900000
768.395630	290.700000
768.432495	286.200000
768.469421	291.500000
768.506348	296.600000
768.543152	302.600000
768.580078	299.600000
768.616943	303.300000
768.653870	301.900000
768.690796	300.000000
768.727661	298.000000
768.764587	299.900000
768.801453	294.100000
768.838318	305.200000
768.875244	302.200000
768.912109	310.600000
768.948975	302.800000
768.985901	303.900000
769.022766	302.600000
769.059631	308.900000
769.096558	300.900000
769.133362	302.800000
769.170288	302.300000
769.207214	305.100000
769.244019	309.400000
769.280945	308.500000
769.317810	314.900000
769.354675	312.400000
769.391541	319.700000
769.428406	315.200000
769.465271	323.600000
769.502136	315.900000
769.539062	316.500000
769.575867	316.900000
769.612732	317.100000
769.649597	325.300000
769.686462	328.200000
769.723328	322.600000
769.760193	319.900000
769.797058	322.900000
769.833923	330.500000
769.870728	328.300000
769.907593	329.400000
769.944519	328.900000
769.981323	332.200000
770.018188	333.900000
770.055054	332.900000
770.091858	330.500000
770.128723	342.700000
770.165588	347.800000
770.202393	330.600000
770.239258	345.500000
770.276062	339.600000
770.312927	339.900000
770.349792	347.000000
770.386597	347.300000
770.423462	356.200000
770.460327	363.400000
770.497131	346.000000
770.533997	340.200000
770.570862	355.900000
770.607605	358.500000
770.644470	354.500000
770.681335	356.500000
770.718140	355.600000
770.754944	349.500000
770.791809	351.500000
770.828613	355.300000
770.865479	356.700000
770.902222	368.900000
770.939087	361.500000
770.975952	352.600000
771.012695	357.500000
771.049561	374.400000
771.086365	362.900000
771.123169	357.400000
771.159973	362.700000
771.196838	364.000000
771.233582	368.200000
771.270447	365.900000
771.307251	373.000000
771.344055	367.600000
771.380859	370.400000
771.417664	365.300000
771.454468	376.500000
771.491272	377.000000
771.528076	377.300000
771.564880	373.600000
771.601685	383.800000
771.638428	373.400000
771.675293	382.800000
771.712097	370.900000
771.748840	390.000000
771.785645	381.800000
771.822449	386.800000
771.859253	387.500000
771.896057	386.100000
771.932861	397.200000
771.969604	388.600000
772.006409	380.500000
772.043213	395.400000
772.079956	392.100000
772.116760	384.000000
772.153503	386.000000
772.190308	399.000000
772.227112	389.800000
772.263855	386.300000
772.300659	390.400000
772.337463	399.800000
772.374207	387.900000
772.411011	386.300000
772.447754	390.700000
772.484497	410.300000
772.521301	400.400000
772.558105	398.400000
772.594849	402.700000
772.631592	407.000000
772.668396	401.900000
772.705139	405.100000
772.741882	402.900000
772.778625	416.200000
772.815430	418.000000
772.852173	412.300000
772.888916	420.100000
772.925720	420.100000
772.962463	427.400000
772.999207	422.300000
773.035950	424.500000
773.072754	425.300000
773.109436	419.400000
773.146240	418.800000
773.182922	421.000000
773.219727	427.500000
773.256470	426.600000
773.293152	413.400000
773.329956	424.000000
773.366699	425.000000
773.403381	414.200000
773.440186	424.600000
773.476929	427.100000
773.513611	419.400000
773.550354	419.600000
773.587158	419.200000
773.623840	418.300000
773.660583	427.900000
773.697327	440.500000
773.734009	429.500000
773.770813	427.700000
773.807495	423.800000
773.844238	426.700000
773.880981	441.200000
773.917664	438.800000
773.954407	442.900000
773.991150	434.300000
774.027832	442.000000
774.064575	433.600000
774.101318	442.600000
774.138000	447.600000
774.174744	441.500000
774.211487	444.400000
774.248108	432.500000
774.284851	430.900000
774.321594	443.000000
774.358276	443.600000
774.395020	453.400000
774.431702	452.000000
774.468384	444.400000
774.505127	440.000000
774.541809	450.000000
774.578491	458.500000
774.615234	459.700000
774.651917	449.500000
774.688599	458.800000
774.725342	463.100000
774.762024	461.400000
774.798706	465.200000
774.835449	465.900000
774.872070	474.600000
774.908813	473.000000
774.945496	469.100000
774.982178	469.000000
775.018860	470.500000
775.055542	475.100000
775.092224	475.500000
775.128967	483.900000
775.165588	478.300000
775.202271	471.900000
775.239014	485.600000
775.275635	485.400000
775.312317	478.700000
775.349060	483.400000
775.385681	481.900000
775.422363	475.300000
775.459045	484.500000
775.495667	489.300000
775.532410	493.900000
775.569092	496.800000
775.605713	497.100000
775.642395	496.100000
775.679016	497.700000
775.715698	502.100000
775.752380	503.400000
775.789001	500.200000
775.825684	499.400000
775.862366	503.200000
775.898987	511.700000
775.935669	502.400000
775.972351	521.200000
776.008972	520.000000
776.045654	518.700000
776.082336	515.700000
776.118958	518.500000
776.155640	520.200000
776.192322	528.200000
776.228882	534.100000
776.265564	533.800000
776.302185	529.600000
776.338867	539.800000
776.375488	525.300000
776.412109	537.000000
776.448792	539.800000
776.485413	552.500000
776.522034	540.400000
776.558716	536.700000
776.595337	537.700000
776.631958	546.200000
776.668579	545.700000
776.705261	556.100000
776.741882	550.600000
776.778503	549.100000
776.815186	547.500000
776.851746	558.300000
776.888367	555.200000
776.924988	564.400000
776.961609	556.000000
776.998291	558.800000
777.034851	550.600000
777.071472	562.200000
777.108154	557.300000
777.144714	574.000000
777.181335	571.100000
777.218018	561.800000
777.254578	569.200000
777.291199	569.500000
777.327759	578.500000
777.364380	587.200000
777.401062	592.900000
777.437622	603.600000
777.474243	591.300000
777.510864	602.100000
777.547424	591.000000
777.584045	595.500000
777.620667	599.800000
777.657227	604.800000
777.693848	601.200000
777.730469	618.600000
777.767029	607.800000
777.803650	613.600000
777.840271	611.600000
777.876831	609.500000
777.913452	617.200000
777.950012	598.000000
777.986633	594.700000
778.023193	597.300000
778.059753	595.700000
778.096375	599.000000
778.132996	614.400000
778.169556	604.500000
778.206116	605.500000
778.242737	599.700000
778.279297	609.800000
778.315857	602.000000
778.352478	607.400000
778.389038	615.000000
778.425598	615.000000
778.462219	622.200000
778.498718	620.800000
778.535339	626.500000
778.571838	626.100000
778.608459	635.600000
778.645020	629.000000
778.681580	635.100000
778.718140	638.000000
778.754761	631.200000
778.791260	634.600000
778.827881	645.300000
778.864441	642.300000
778.900940	652.900000
778.937561	650.000000
778.974121	649.700000
779.010620	639.300000
779.047241	645.600000
779.083801	655.000000
779.120300	652.600000
779.156860	654.000000
779.193359	643.700000
779.229980	642.200000
779.266541	648.500000
779.303040	652.000000
779.339600	642.200000
779.376160	643.000000
779.412659	647.100000
779.449219	637.300000
779.485779	645.900000
779.522278	644.100000
779.558838	651.300000
779.595398	655.300000
779.631897	647.700000
779.668457	642.500000
779.705017	650.600000
779.741516	642.900000
779.778076	642.400000
779.814575	646.100000
779.851074	651.200000
779.887634	650.000000
779.924133	655.400000
779.960693	640.800000
779.997253	656.100000
780.033691	663.100000
780.070251	661.700000
780.106812	676.100000
780.143250	668.200000
780.179810	665.700000
780.216370	671.000000
780.252808	671.900000
780.289368	681.100000
780.325867	680.300000
780.362366	677.900000
780.398865	689.200000
780.435364	682.900000
780.471863	690.400000
780.508423	690.800000
780.544861	695.200000
780.581421	697.500000
780.617920	682.800000
780.654419	678.700000
780.690918	686.000000
780.727417	696.000000
780.763916	696.100000
780.800415	705.500000
780.836914	692.600000
780.873352	704.500000
780.909912	694.800000
780.946411	701.800000
780.982849	708.900000
781.019348	721.900000
781.055786	716.000000
781.092346	713.800000
781.128845	718.800000
781.165283	724.400000
781.201782	733.100000
781.238281	734.400000
781.274719	741.500000
781.311218	736.100000
781.347717	744.500000
781.384155	732.600000
781.420654	735.100000
781.457092	744.200000
781.493591	739.200000
781.530090	734.500000
781.566528	740.000000
781.602966	740.300000
781.639465	739.300000
781.675903	733.800000
781.712402	744.900000
781.748901	748.400000
781.785278	735.700000
781.821777	746.800000
781.858276	747.200000
781.894714	760.300000
781.931152	757.100000
781.967651	765.600000
782.004089	760.100000
782.040527	767.600000
782.076965	772.900000
782.113403	770.600000
782.149902	780.000000
782.186340	774.000000
782.222778	789.500000
782.259277	777.200000
782.295654	780.200000
782.332092	787.600000
782.368591	779.800000
782.404968	782.200000
782.441467	783.100000
782.477905	786.800000
782.514282	785.200000
782.550781	806.600000
782.587219	802.200000
782.623596	810.000000
782.660095	809.700000
782.696472	817.500000
782.732910	825.000000
782.769348	828.400000
782.805786	846.100000
782.842224	840.800000
782.878662	831.200000
782.915039	835.800000
782.951477	844.900000
782.987915	837.000000
783.024292	845.000000
783.060730	844.300000
783.097168	838.700000
783.133545	833.100000
783.169983	825.800000
783.206421	822.700000
783.242798	817.500000
783.279236	805.000000
783.315613	804.500000
783.352051	803.300000
783.388489	794.100000
783.424866	785.500000
783.461304	794.400000
783.497681	805.500000
783.534058	799.900000
783.570496	799.200000
783.606934	793.000000
783.643250	798.100000
783.679687	810.300000
783.716125	813.300000
783.752441	824.900000
783.788879	838.400000
783.825317	845.700000
783.861633	854.700000
783.898071	865.600000
783.934448	880.900000
783.970825	892.500000
784.007263	895.600000
784.043579	901.300000
784.080017	905.200000
784.116394	887.800000
784.152710	894.700000
784.189148	903.600000
784.225525	899.700000
784.261902	884.600000
784.298279	881.200000
784.334656	880.600000
784.371033	876.100000
784.407410	876.100000
784.443787	857.100000
784.480164	837.900000
784.516541	821.900000
784.552856	826.100000
784.589233	816.400000
784.625610	816.100000
784.661987	845.500000
784.698364	834.000000
784.734741	830.300000
784.771057	829.800000
784.807434	834.400000
784.843811	858.200000
784.880127	854.100000
784.916504	885.000000
784.952881	889.400000
784.989197	881.200000
785.025574	882.500000
785.061951	888.300000
785.098267	906.700000
785.134644	902.800000
785.170959	898.600000
785.207275	903.500000
785.243652	899.200000
785.279968	877.500000
785.316345	881.300000
785.352722	876.100000
785.388977	875.400000
785.425354	852.100000
785.461731	825.300000
785.498047	816.900000
785.534363	793.000000
785.570679	738.900000
785.606995	653.100000
785.643372	536.600000
785.679687	418.100000
785.716003	325.200000
785.752380	289.100000
785.788635	289.900000
785.825012	299.200000
785.861328	292.400000
785.897644	262.900000
785.933960	251.400000
785.970337	245.800000
786.006592	258.100000
786.042908	269.400000
786.079285	302.000000
786.115540	335.400000
786.151855	348.900000
786.188171	340.400000
786.224487	329.200000
786.260803	335.400000
786.297119	423.800000
786.333435	552.400000
786.369751	684.800000
786.406006	788.100000
786.442322	833.500000
786.478638	843.500000
786.514954	865.200000
786.551270	859.000000
786.587585	876.500000
786.623840	866.900000
786.660156	858.100000
786.696472	846.400000
786.732727	845.500000
786.769043	853.200000
786.805298	851.200000
786.841614	856.100000
786.877930	861.900000
786.914124	846.300000
786.950439	871.300000
786.986755	882.800000
787.023010	897.200000
787.059326	909.700000
787.095642	920.300000
787.131836	934.000000
787.168152	928.300000
787.204468	934.600000
787.240723	949.800000
787.276978	963.000000
787.313293	969.600000
787.349548	960.800000
787.385803	958.200000
787.422058	948.600000
787.458313	941.500000
787.494629	941.300000
787.530823	938.400000
787.567139	921.300000
787.603455	907.800000
787.639648	896.800000
787.675903	903.500000
787.712219	898.100000
787.748413	899.800000
787.784729	907.400000
787.820984	898.800000
787.857178	895.500000
787.893494	895.300000
787.929749	890.900000
787.965942	902.700000
788.002258	926.800000
788.038452	942.600000
788.074707	936.900000
788.110962	938.100000
788.147217	935.900000
788.183472	952.400000
788.219727	958.700000
788.255920	986.600000
788.292175	986.400000
788.328430	989.700000
788.364624	975.700000
788.400879	964.700000
788.437134	967.300000
788.473328	969.700000
788.509583	967.500000
788.545837	961.700000
788.582031	953.300000
788.618286	948.700000
788.654480	952.800000
788.690735	965.500000
788.726990	990.500000
788.763184	982.200000
788.799377	988.600000
788.835632	979.400000
788.871826	994.800000
788.908081	995.700000
788.944336	991.100000
788.980469	1004.300000
789.016724	994.300000
789.052979	1000.300000
789.089111	986.000000
789.125366	992.000000
789.161621	980.200000
789.197754	1000.800000
789.234009	995.100000
789.270142	985.400000
789.306396	978.800000
789.342590	968.300000
789.378784	945.800000
789.414978	944.900000
789.451233	964.300000
789.487366	960.300000
789.523621	974.600000
789.559814	970.000000
789.595947	955.300000
789.632202	965.200000
789.668335	972.300000
789.704529	985.800000
789.740784	1003.800000
789.776917	1020.700000
789.813110	1012.400000
789.849304	1027.400000
789.885498	1024.800000
789.921692	1038.600000
789.957886	1056.600000
789.994019	1062.100000
790.030212	1052.100000
790.066406	1064.000000
790.102539	1045.600000
790.138733	1056.700000
790.174927	1054.300000
790.211060	1071.800000
790.247253	1064.600000
790.283386	1055.100000
790.319580	1035.300000
790.355774	1017.800000
790.391907	1013.800000
790.428101	1035.800000
790.464294	1041.300000
790.500427	1039.100000
790.536621	1021.700000
790.572754	997.700000
790.608887	995.900000
790.645081	1006.000000
790.681274	1015.600000
790.717346	1026.700000
790.753540	1009.700000
790.789734	986.600000
790.825867	970.500000
790.862000	973.300000
790.898132	988.900000
790.934265	988.200000
790.970459	992.100000
791.006592	993.500000
791.042725	988.900000
791.078918	977.200000
791.114990	967.000000
791.151184	973.500000
791.187317	994.400000
791.223389	979.900000
791.259583	972.500000
791.295715	978.400000
791.331848	973.300000
791.367981	981.600000
791.404114	992.400000
791.440247	1000.300000
791.476379	1006.300000
791.512451	985.800000
791.548584	977.600000
791.584778	970.700000
791.620850	996.000000
791.656982	1001.200000
791.693115	999.300000
791.729187	1000.800000
791.765381	994.000000
791.801514	984.500000
791.837585	990.000000
791.873718	1006.100000
791.909851	1017.400000
791.945923	1030.200000
791.982056	1000.700000
792.018188	991.500000
792.054260	994.500000
792.090393	992.600000
792.126465	978.200000
792.162598	987.900000
792.198669	983.500000
792.234741	975.200000
792.270874	967.600000
792.307007	952.800000
792.343079	953.000000
792.379150	970.200000
792.415283	958.500000
792.451355	959.300000
792.487488	934.200000
792.523560	926.100000
792.559631	911.100000
792.595764	862.600000
792.631836	825.900000
792.667908	808.800000
792.703979	794.700000
792.740051	813.600000
792.776184	841.900000
792.812256	853.800000
792.848328	863.400000
792.884399	870.000000
792.920471	870.400000
792.956543	876.100000
792.992615	877.300000
793.028748	874.700000
793.064758	876.900000
793.100830	890.600000
793.136963	907.800000
793.172974	915.900000
793.209045	906.200000
793.245178	911.600000
793.281189	895.200000
793.317261	908.300000
793.353271	915.100000
793.389404	917.900000
793.425476	917.300000
793.461487	903.700000
793.497559	895.000000
793.533630	898.500000
793.569641	890.800000
793.605713	893.700000
793.641785	898.700000
793.677795	912.900000
793.713867	898.200000
793.749878	895.400000
793.785950	915.200000
793.822021	919.000000
793.858032	902.100000
793.894104	920.500000
793.930176	908.200000
793.966187	911.900000
794.002258	900.000000
794.038269	902.100000
794.074280	908.500000
794.110352	937.100000
794.146423	906.000000
794.182373	904.900000
794.218445	906.800000
794.254517	903.100000
794.290466	891.800000
794.326538	898.200000
794.362549	897.500000
794.398560	902.300000
794.434631	914.900000
794.470581	888.300000
794.506653	885.800000
794.542664	892.100000
794.578674	893.000000
794.614685	896.700000
794.650757	888.700000
794.686707	887.700000
794.722778	873.600000
794.758789	878.800000
794.794739	887.700000
794.830811	909.600000
794.866821	933.500000
794.902771	936.900000
794.938843	930.100000
794.974792	934.200000
795.010803	927.100000
795.046814	921.500000
795.082825	918.100000
795.118835	932.800000
795.154846	911.700000
795.190796	912.500000
795.226807	888.400000
795.262817	890.800000
795.298767	900.800000
795.334778	910.000000
795.370850	904.300000
795.406799	909.000000
795.442810	889.600000
795.478821	886.300000
795.514709	887.100000
795.550720	915.300000
795.586670	891.100000
795.622681	892.600000
795.658691	894.000000
795.694641	887.700000
795.730652	880.800000
795.766663	897.000000
795.802551	905.500000
795.838562	913.800000
795.874573	898.300000
795.910522	900.800000
795.946472	887.600000
795.982483	885.500000
796.018433	893.300000
796.054382	905.000000
796.090393	899.100000
796.126282	894.000000
796.162292	884.100000
796.198242	873.900000
796.234192	871.100000
796.270203	862.100000
796.306091	875.500000
796.342041	889.900000
796.378052	882.800000
796.413940	869.500000
796.449951	875.300000
796.485901	871.700000
796.521790	877.900000
796.557800	895.500000
796.593689	894.700000
796.629639	893.900000
796.665649	889.000000
796.701599	877.000000
796.737488	871.100000
796.773437	878.800000
796.809387	891.800000
796.845337	894.700000
796.881287	878.700000
796.917175	854.900000
796.953125	862.200000
796.989075	864.400000
797.024963	875.500000
797.060913	867.900000
797.096863	874.800000
797.132751	864.900000
797.168701	852.800000
797.204590	854.600000
797.240540	855.500000
797.276489	864.600000
797.312439	866.600000
797.348328	868.200000
797.384277	858.100000
797.420166	844.400000
797.456055	846.000000
797.492004	844.000000
797.527893	845.700000
797.563843	859.900000
797.599731	840.600000
797.635620	834.500000
797.671570	846.600000
797.707520	846.300000
797.743347	846.900000
797.779297	854.400000
797.815125	852.200000
797.851074	841.800000
797.887024	824.100000
797.922913	814.400000
797.958801	825.900000
797.994690	825.400000
798.030579	832.000000
798.066467	841.100000
798.102356	824.400000
798.138245	814.800000
798.174133	813.600000
798.210083	824.700000
798.245911	827.700000
798.281799	829.400000
798.317749	828.400000
798.353577	825.500000
798.389465	815.400000
798.425293	814.400000
798.461243	810.300000
798.497131	820.700000
798.532959	827.300000
798.568848	830.300000
798.604736	818.700000
798.640564	803.600000
798.676453	802.100000
798.712402	809.800000
798.748230	812.400000
798.784119	813.600000
798.820007	814.400000
798.855835	805.100000
798.891724	795.800000
798.927551	792.100000
798.963379	796.700000
798.999268	795.600000
799.035095	795.000000
799.070984	783.700000
799.106873	764.100000
799.142700	767.600000
799.178528	762.200000
799.214417	762.300000
799.250244	785.500000
799.286133	775.700000
799.321960	773.900000
799.357788	766.000000
799.393677	763.000000
799.429504	763.800000
799.465332	763.100000
799.501221	770.200000
799.537048	769.600000
799.572876	758.600000
799.608704	759.800000
799.644531	762.700000
799.680359	767.900000
799.716248	782.500000
799.752014	787.900000
799.787903	782.900000
799.823730	780.400000
799.859558	764.900000
799.895386	767.300000
799.931213	768.800000
799.967041	760.100000
800.002869	762.500000
800.038696	781.900000
800.074463	758.800000
800.110352	762.800000
800.146179	751.500000
800.181946	761.300000
800.217773	765.100000
800.253540	759.400000
800.289429	750.800000
800.325256	746.300000
800.361023	738.400000
800.396851	744.000000
800.432678	742.300000
800.468445	747.000000
800.504272	750.100000
800.540100	732.600000
800.575867	732.800000
800.611694	733.800000
800.647461	727.900000
800.683289	732.700000
800.719116	741.000000
800.754883	737.700000
800.790649	717.500000
800.826477	715.400000
800.862244	733.300000
800.898071	716.900000
800.933838	718.000000
800.969604	720.000000
801.005432	717.400000
801.041199	715.700000
801.076965	708.300000
801.112793	700.700000
801.148560	699.000000
801.184326	701.700000
801.220154	707.100000
801.255859	698.600000
801.291687	694.600000
801.327454	683.200000
801.363281	687.300000
801.398987	685.400000
801.434814	685.600000
801.470520	698.200000
801.506287	680.900000
801.542114	676.800000
801.577820	676.600000
801.613647	675.900000
801.649414	675.400000
801.685120	678.600000
801.720886	684.400000
801.756714	672.400000
801.792419	662.600000
801.828186	661.300000
801.863892	672.300000
801.899719	658.100000
801.935486	656.800000
801.971252	667.600000
802.006958	661.200000
802.042725	651.500000
802.078430	653.900000
802.114197	649.000000
802.149963	669.300000
802.185669	656.600000
802.221436	650.300000
802.257202	650.500000
802.292908	648.100000
802.328674	653.500000
802.364441	659.700000
802.400146	655.700000
802.435913	655.900000
802.471558	647.500000
802.507324	647.100000
802.543091	643.400000
802.578796	659.600000
802.614502	661.100000
802.650269	659.400000
802.685974	643.400000
802.721741	649.000000
802.757446	647.900000
802.793152	648.600000
802.828918	660.200000
802.864624	655.900000
802.900330	654.600000
802.936035	646.600000
802.971802	644.600000
803.007446	648.000000
803.043213	636.700000
803.078857	641.500000
803.114624	631.700000
803.150330	643.900000
803.185974	636.200000
803.221741	631.000000
803.257446	640.600000
803.293152	643.900000
803.328857	634.000000
803.364563	632.200000
803.400208	627.500000
803.435974	633.800000
803.471680	625.100000
803.507324	618.200000
803.543030	632.700000
803.578735	632.400000
803.614441	626.300000
803.650146	635.200000
803.685791	620.500000
803.721497	621.200000
803.757202	610.300000
803.792847	621.900000
803.828552	616.200000
803.864258	612.100000
803.899902	607.000000
803.935608	592.100000
803.971313	603.100000
804.006958	599.600000
804.042664	595.700000
804.078308	605.400000
804.113953	594.300000
804.149658	602.800000
804.185364	591.500000
804.221008	600.900000
804.256714	589.300000
804.292297	583.800000
804.328003	587.700000
804.363708	584.000000
804.399292	581.500000
804.434998	582.300000
804.470703	570.700000
804.506287	583.800000
804.541992	579.300000
804.577637	584.300000
804.613281	572.700000
804.648926	565.000000
804.684570	568.300000
804.720215	557.600000
804.755920	557.700000
804.791565	558.000000
804.827209	565.400000
804.862854	561.600000
804.898437	553.300000
804.934143	560.000000
804.969788	554.300000
805.005371	555.700000
805.041077	553.100000
805.076721	554.800000
805.112305	543.500000
805.147949	545.200000
805.183655	541.500000
805.219238	545.400000
805.254883	544.700000
805.290466	551.100000
805.326111	540.000000
805.361755	532.700000
805.397400	535.900000
805.432983	536.900000
805.468628	534.200000
805.504211	542.100000
805.539856	536.900000
805.575500	539.100000
805.611084	532.900000
805.646729	521.800000
805.682373	525.000000
805.717957	534.500000
805.753601	535.500000
805.789246	521.200000
805.824768	531.600000
805.860413	530.600000
805.895996	518.700000
805.931641	520.500000
805.967224	530.000000
806.002869	522.600000
806.038452	530.800000
806.074036	532.600000
806.109619	519.500000
806.145264	518.200000
806.180847	516.900000
806.216431	514.700000
806.252014	520.300000
806.287659	518.900000
806.323181	528.700000
806.358826	516.700000
806.394409	502.200000
806.429993	504.900000
806.465576	521.300000
806.501160	504.000000
806.536743	500.600000
806.572327	507.900000
806.607910	503.000000
806.643494	503.200000
806.679077	499.300000
806.714661	501.600000
806.750244	500.500000
806.785828	492.500000
806.821350	497.100000
806.856934	501.300000
806.892517	494.900000
806.928101	488.200000
806.963684	488.800000
806.999268	498.300000
807.034790	482.100000
807.070374	488.800000
807.105896	482.700000
807.141479	478.700000
807.177063	486.100000
807.212585	476.500000
807.248169	476.700000
807.283752	483.900000
807.319275	480.900000
807.354858	481.100000
807.390381	477.600000
807.425903	472.300000
807.461487	473.000000
807.497070	463.900000
807.532593	468.600000
807.568115	464.700000
807.603699	465.500000
807.639221	459.200000
807.674744	466.400000
807.710266	469.900000
807.745850	468.200000
807.781372	462.200000
807.816895	459.900000
807.852417	463.900000
807.888000	457.600000
807.923523	456.000000
807.959045	460.500000
807.994629	453.100000
808.030090	451.400000
808.065613	458.200000
808.101135	457.700000
808.136658	449.100000
808.172241	449.300000
808.207764	452.500000
808.243225	446.400000
808.278809	441.100000
808.314270	450.100000
808.349792	432.500000
808.385315	435.800000
808.420837	442.700000
808.456360	448.100000
808.491882	446.500000
808.527344	443.200000
808.562866	451.800000
808.598389	443.100000
808.633850	437.500000
808.669434	430.200000
808.704895	440.800000
808.740417	445.800000
808.775940	436.800000
808.811462	433.700000
808.846924	427.900000
808.882385	425.700000
808.917847	426.400000
808.953369	429.200000
808.988892	423.400000
809.024353	433.200000
809.059875	430.800000
809.095398	425.700000
809.130798	418.400000
809.166321	420.300000
809.201843	418.300000
809.237305	419.100000
809.272766	427.000000
809.308228	410.500000
809.343750	413.700000
809.379211	416.000000
809.414734	416.900000
809.450134	423.100000
809.485657	408.700000
809.521118	414.800000
809.556580	412.700000
809.592102	410.400000
809.627502	406.600000
809.663025	407.600000
809.698486	402.000000
809.733887	397.700000
809.769409	406.900000
809.804871	393.300000
809.840271	397.300000
809.875793	400.600000
809.911194	402.800000
809.946655	394.200000
809.982178	389.600000
810.017639	395.300000
810.053040	391.600000
810.088501	389.300000
810.123901	390.900000
810.159424	390.300000
810.194885	385.000000
810.230286	387.700000
810.265747	380.800000
810.301208	379.200000
810.336609	383.100000
810.372070	373.800000
810.407532	378.000000
810.442932	381.100000
810.478394	381.200000
810.513794	379.800000
810.549255	377.500000
810.584717	372.200000
810.620117	366.700000
810.655518	375.700000
810.690979	371.300000
810.726379	371.100000
810.761841	359.400000
810.797302	361.900000
810.832642	362.300000
810.868103	371.900000
810.903564	360.600000
810.938904	369.300000
810.974365	353.800000
811.009827	359.600000
811.045166	350.600000
811.080627	346.600000
811.115967	352.000000
811.151428	359.700000
811.186829	352.000000
811.222229	350.200000
811.257629	344.500000
811.293091	350.400000
811.328430	359.300000
811.363892	356.200000
811.399292	353.400000
811.434631	349.800000
811.470093	353.200000
811.505493	343.800000
811.540833	344.500000
811.576294	349.500000
811.611694	342.800000
811.647034	342.000000
811.682434	340.800000
811.717773	344.600000
811.753235	348.100000
811.788635	339.900000
811.823975	343.100000
811.859375	350.800000
811.894775	336.900000
811.930115	338.500000
811.965515	336.400000
812.000916	341.700000
812.036255	335.800000
812.071655	340.800000
812.106995	332.400000
812.142395	335.500000
812.177795	340.900000
812.213196	337.200000
812.248474	335.300000
812.283875	329.200000
812.319214	333.300000
812.354614	333.900000
812.390015	326.800000
812.425293	328.600000
812.460693	331.300000
812.496094	326.600000
812.531433	321.200000
812.566772	322.200000
812.602173	325.000000
812.637451	325.000000
812.672852	321.800000
812.708191	324.100000
812.743530	318.200000
812.778931	310.800000
812.814270	314.400000
812.849609	321.800000
812.884949	315.100000
812.920227	308.500000
812.955627	324.200000
812.990967	315.800000
813.026306	310.200000
813.061646	302.300000
813.096985	300.200000
813.132324	296.700000
813.167664	303.800000
813.203003	307.400000
813.238281	292.000000
813.273682	295.700000
813.308960	291.900000
813.344299	294.900000
813.379639	301.800000
813.414978	294.900000
813.450256	292.500000
813.485596	297.800000
813.520874	288.700000
813.556213	292.500000
813.591614	296.300000
813.626831	287.700000
813.662170	291.700000
813.697510	303.500000
813.732788	286.500000
813.768127	292.200000
813.803467	291.300000
813.838745	285.400000
813.874084	290.500000
813.909363	289.800000
813.944641	289.400000
813.979980	280.100000
814.015320	286.100000
814.050598	280.300000
814.085876	285.000000
814.121155	283.500000
814.156494	281.000000
814.191772	282.300000
814.227051	273.800000
814.262390	279.800000
814.297668	279.300000
814.332947	280.600000
814.368225	270.900000
814.403564	275.600000
814.438782	272.500000
814.474121	275.100000
814.509338	271.500000
814.544617	281.100000
814.579956	269.400000
814.615173	281.100000
814.650513	278.300000
814.685791	270.800000
814.721008	272.400000
814.756348	271.900000
814.791626	266.800000
814.826843	268.200000
814.862122	268.500000
814.897400	265.900000
814.932678	267.900000
814.967957	269.200000
815.003235	267.700000
815.038452	263.200000
815.073730	259.600000
815.108948	271.800000
815.144226	267.600000
815.179504	272.100000
815.214722	256.700000
815.250000	256.600000
815.285278	263.200000
815.320496	258.000000
815.355774	260.200000
815.391052	263.600000
815.426270	260.200000
815.461487	258.000000
815.496765	253.500000
815.531982	249.900000
815.567261	256.400000
815.602539	264.200000
815.637695	257.700000
815.672974	259.500000
815.708191	261.400000
815.743408	263.600000
815.778687	253.600000
815.813904	263.200000
815.849121	245.400000
815.884399	249.700000
815.919556	249.900000
815.954834	248.100000
815.990051	253.100000
816.025269	257.800000
816.060486	246.700000
816.095703	245.300000
816.130920	249.000000
816.166199	245.100000
816.201416	249.600000
816.236572	254.000000
816.271851	245.300000
816.307007	250.200000
816.342224	239.600000
816.377441	244.600000
816.412659	238.700000
816.447876	247.600000
816.483093	242.700000
816.518250	243.300000
816.553467	240.300000
816.588745	244.800000
816.623901	236.600000
816.659119	229.700000
816.694275	236.100000
816.729492	233.500000
816.764709	270.100000
816.799927	230.700000
816.835083	235.600000
816.870300	230.200000
816.905457	233.800000
816.940674	236.300000
816.975830	233.900000
817.010986	228.200000
817.046204	229.400000
817.081421	226.700000
817.116577	226.700000
817.151733	236.500000
817.186951	234.400000
817.222107	230.100000
817.257324	233.500000
817.292419	230.500000
817.327637	224.400000
817.362854	227.100000
817.398010	223.300000
817.433167	224.500000
817.468323	224.500000
817.503479	223.600000
817.538635	233.800000
817.573853	228.900000
817.608948	224.600000
817.644165	220.600000
817.679321	218.800000
817.714478	220.500000
817.749634	223.900000
817.784790	233.000000
817.819946	229.800000
817.855103	212.300000
817.890198	221.300000
817.925415	213.100000
817.960571	222.500000
817.995667	222.500000
818.030823	221.200000
818.066040	215.700000
818.101135	219.700000
818.136292	217.400000
818.171448	213.200000
818.206543	217.200000
818.241699	221.500000
818.276855	218.000000
818.311951	215.900000
818.347107	212.700000
818.382263	217.500000
818.417358	222.400000
818.452515	222.000000
818.487610	223.600000
818.522766	211.600000
818.557922	223.900000
818.593018	218.400000
818.628113	216.700000
818.663269	210.600000
818.698364	215.600000
818.733521	210.400000
818.768677	216.200000
818.803711	208.600000
818.838867	210.100000
818.874023	213.100000
818.909058	207.500000
818.944214	206.000000
818.979370	213.500000
819.014404	210.800000
819.049561	207.000000
819.084595	213.600000
819.119751	203.000000
819.154846	211.500000
819.189941	208.700000
819.225037	203.500000
819.260193	199.300000
819.295227	201.600000
819.330322	198.100000
819.365479	196.300000
819.400513	230.600000
819.435608	195.900000
819.470764	194.900000
819.505798	196.700000
819.540894	200.100000
819.575989	198.100000
819.611084	205.800000
819.646179	207.500000
819.681213	203.800000
819.716309	200.500000
819.751404	198.400000
819.786438	206.200000
819.821533	195.600000
819.856628	200.800000
819.891663	204.300000
819.926758	210.400000
819.961853	205.500000
819.996887	197.000000
820.031982	202.200000
820.067017	198.000000
820.102112	227.600000
820.137207	197.700000
820.172302	212.900000
820.207275	195.600000
820.242371	194.700000
820.277405	195.700000
820.312500	196.500000
820.347534	201.000000
820.382568	202.200000
820.417664	195.500000
820.452759	195.400000
820.487732	194.600000
820.522827	194.900000
820.557861	192.300000
820.592896	194.600000
820.627930	195.400000
820.662964	193.500000
820.698059	197.900000
820.733093	193.300000
820.768127	198.700000
820.803162	195.300000
820.838196	193.000000
820.873230	195.600000
820.908264	195.800000
820.943298	192.400000
820.978333	198.800000
821.013367	195.400000
821.048401	198.600000
821.083435	200.300000
821.118469	186.800000
821.153503	198.600000
821.188477	196.600000
821.223511	188.200000
821.258484	194.800000
821.293579	195.500000
821.328613	187.200000
821.363647	191.200000
821.398621	187.900000
821.433655	191.200000
821.468628	206.000000
821.503662	192.500000
821.538696	196.300000
821.573669	190.100000
821.608704	195.500000
821.643677	191.000000
821.678650	196.100000
821.713684	201.500000
821.748718	192.300000
821.783691	191.300000
821.818726	193.500000
821.853638	195.100000
821.888672	190.500000
821.923706	192.800000
821.958618	190.100000
821.993652	190.500000
822.028687	197.000000
822.063599	199.600000
822.098633	193.100000
822.133667	187.900000
822.168579	190.200000
822.203613	194.700000
822.238586	189.100000
822.273560	194.500000
822.308533	188.800000
822.343567	188.800000
822.378479	190.500000
822.413452	191.400000
822.448425	187.600000
822.483398	196.500000
822.518372	195.600000
822.553345	189.900000
822.588318	198.800000
822.623291	190.900000
822.658203	190.000000
822.693237	191.100000
822.728210	187.300000
822.763123	192.000000
822.798096	187.200000
822.833069	192.700000
822.867981	191.300000
822.902954	192.500000
822.937927	194.900000
822.972900	202.100000
823.007874	182.800000
823.042725	195.600000
823.077698	203.900000
823.112671	188.000000
823.147583	189.100000
823.182556	193.000000
823.217529	196.600000
823.252441	190.100000
823.287415	203.300000
823.322388	193.200000
823.357239	189.500000
823.392212	198.200000
823.427185	196.500000
823.462097	186.900000
823.497009	194.200000
823.531982	188.800000
823.566895	191.700000
823.601807	186.100000
823.636719	190.300000
823.671631	194.100000
823.706604	190.100000
823.741455	193.700000
823.776428	185.400000
823.811340	195.900000
823.846252	197.600000
823.881165	198.300000
823.916138	192.600000
823.950989	199.100000
823.985901	188.800000
824.020813	191.600000
824.055725	190.300000
824.090637	184.100000
824.125610	192.800000
824.160461	191.500000
824.195374	193.800000
824.230225	194.700000
824.265198	183.600000
824.300110	186.800000
824.334961	201.600000
824.369873	181.500000
824.404785	192.400000
824.439636	197.200000
824.474548	183.300000
824.509460	182.000000
824.544312	195.800000
824.579224	192.900000
824.614075	193.000000
824.648987	189.200000
824.683899	189.100000
824.718811	186.900000
824.753662	194.900000
824.788574	195.800000
824.823364	191.000000
824.858276	187.100000
824.893188	195.500000
824.928040	195.700000
824.962952	191.800000
824.997803	193.600000
825.032654	193.300000
825.067566	193.300000
825.102417	187.600000
825.137268	188.200000
825.172119	190.700000
825.206970	185.600000
825.241882	186.700000
825.276733	185.900000
825.311646	187.700000
825.346436	184.400000
825.381348	183.500000
825.416138	188.300000
825.450989	183.700000
825.485901	180.700000
825.520691	180.700000
825.555542	183.400000
825.590454	186.700000
825.625244	181.100000
825.660095	193.300000
825.695007	191.600000
825.729797	185.600000
825.764648	184.500000
825.799438	187.200000
825.834290	189.200000
825.869202	179.800000
825.903992	190.400000
825.938843	183.400000
825.973694	182.100000
826.008484	199.300000
826.043335	182.100000
826.078186	177.100000
826.112976	194.000000
826.147827	190.800000
826.182678	196.000000
826.217468	179.900000
826.252319	191.300000
826.287109	181.700000
826.321899	192.100000
826.356750	183.800000
826.391541	181.200000
826.426392	191.100000
826.461182	185.200000
826.495972	180.200000
826.530823	176.900000
826.565613	185.800000
826.600403	181.000000
826.635254	188.300000
826.670044	177.900000
826.704834	177.800000
826.739685	181.400000
826.774475	187.000000
826.809265	185.500000
826.844055	183.000000
826.878906	190.600000
826.913635	186.100000
826.948425	186.900000
826.983215	186.700000
827.018005	190.000000
827.052856	183.300000
827.087585	188.600000
827.122375	178.700000
827.157227	183.700000
827.191956	197.800000
827.226746	179.700000
827.261536	188.700000
827.296265	177.500000
827.331116	182.900000
827.365906	188.100000
827.400635	181.700000
827.435425	177.400000
827.470215	191.500000
827.504944	182.800000
827.539734	189.900000
827.574463	184.600000
827.609253	191.700000
827.644043	184.300000
827.678772	190.600000
827.713562	181.700000
827.748352	182.600000
827.783081	181.300000
827.817871	185.300000
827.852600	181.100000
827.887329	185.600000
827.922119	174.100000
827.956848	188.600000
827.991638	197.800000
828.026367	186.000000
828.061157	184.800000
828.095886	185.200000
828.130615	199.300000
828.165344	176.300000
828.200073	185.300000
828.234863	182.900000
828.269592	184.200000
828.304321	188.600000
828.339111	183.500000
828.373779	181.400000
828.408569	189.400000
828.443298	188.900000
828.477966	181.300000
828.512756	184.900000
828.547424	180.100000
828.582214	182.000000
828.616943	183.500000
828.651672	183.100000
828.686340	187.800000
828.721130	182.000000
828.755798	184.200000
828.790527	184.500000
828.825256	185.900000
828.859924	183.300000
828.894714	190.900000
828.929443	192.900000
828.964111	182.500000
828.998840	188.100000
829.033569	180.900000
829.068237	181.600000
829.102966	181.500000
829.137634	184.700000
829.172363	187.000000
829.207092	184.800000
829.241821	182.100000
829.276489	177.000000
829.311157	185.500000
829.345825	181.300000
829.380554	189.000000
829.415283	179.700000
829.449951	178.000000
829.484619	193.000000
829.519348	191.600000
829.554016	183.900000
829.588745	183.800000
829.623413	178.500000
829.658081	195.700000
829.692749	177.800000
829.727417	190.800000
829.762146	186.000000
829.796814	181.100000
829.831482	182.600000
829.866150	185.500000
829.900879	181.100000
829.935486	187.900000
829.970154	180.700000
830.004883	196.400000
830.039490	185.700000
830.074219	181.400000
830.108887	185.200000
830.143494	183.600000
830.178223	178.700000
830.212891	181.900000
830.247498	184.100000
830.282166	192.900000
830.316772	190.600000
830.351501	183.300000
830.386169	183.400000
830.420776	181.700000
830.455444	183.900000
830.490112	181.300000
830.524719	175.600000
830.559387	185.900000
830.594055	187.700000
830.628662	183.900000
830.663330	184.600000
830.697998	190.700000
830.732605	183.600000
830.767273	186.500000
830.801941	183.200000
830.836487	193.300000
830.871155	186.300000
830.905762	185.200000
830.940430	177.600000
830.975098	181.200000
831.009644	185.000000
831.044312	191.800000
831.078979	186.800000
831.113525	174.700000
831.148193	185.700000
831.182861	182.000000
831.217407	188.700000
831.252075	200.100000
831.286621	181.300000
831.321289	179.700000
831.355896	184.500000
831.390564	191.300000
831.425110	185.000000
831.459778	190.200000
831.494324	198.100000
831.528931	187.100000
831.563599	188.000000
831.598145	177.700000
831.632751	183.600000
831.667419	183.800000
831.701965	186.100000
831.736572	188.700000
831.771179	178.300000
831.805786	182.700000
831.840393	190.900000
831.874939	176.600000
831.909546	189.600000
831.944153	177.300000
831.978760	184.100000
832.013306	179.700000
832.047913	190.300000
832.082458	193.100000
832.117065	181.700000
832.151672	193.800000
832.186218	186.900000
832.220825	187.600000
832.255432	177.100000
832.289978	180.200000
832.324585	186.900000
832.359192	185.700000
832.393677	184.400000
832.428284	184.700000
832.462830	183.000000
832.497437	182.300000
832.531982	188.200000
832.566589	182.900000
832.601135	185.800000
832.635681	177.100000
832.670227	184.000000
832.704773	191.900000
832.739380	185.300000
832.773926	185.500000
832.808472	180.200000
832.843079	185.400000
832.877563	188.100000
832.912170	183.000000
832.946716	176.200000
832.981201	190.400000
833.015808	187.200000
833.050293	184.300000
833.084839	181.200000
833.119446	180.700000
833.153992	188.200000
833.188477	184.800000
833.223022	180.300000
833.257568	185.800000
833.292114	190.400000
833.326660	194.900000
833.361145	181.800000
833.395691	177.800000
833.430237	184.100000
833.464783	188.700000
833.499329	181.000000
833.533875	178.500000
833.568359	189.000000
833.602905	189.800000
833.637390	189.000000
833.671875	181.700000
833.706421	183.300000
833.740906	180.100000
833.775452	174.300000
833.809998	182.200000
833.844482	190.000000
833.879028	183.800000
833.913513	182.800000
833.947998	187.000000
833.982544	180.400000
834.017090	183.300000
834.051514	173.600000
834.086060	187.500000
834.120544	184.100000
834.155029	185.800000
834.189575	183.400000
834.223999	186.200000
834.258545	185.500000
834.293030	184.800000
834.327515	184.100000
834.362000	182.200000
834.396545	188.200000
834.430969	182.100000
834.465454	189.600000
834.500000	175.800000
834.534424	187.600000
834.568970	175.400000
834.603455	176.300000
834.637878	181.200000
834.672363	184.100000
834.706909	183.900000
834.741333	185.400000
834.775818	176.800000
834.810242	181.200000
834.844727	184.900000
834.879211	183.900000
834.913635	184.400000
834.948181	186.600000
834.982666	183.800000
835.017090	183.100000
835.051575	186.700000
835.086060	182.400000
835.120483	187.400000
835.154907	187.800000
835.189331	183.900000
835.223816	187.400000
835.258301	179.100000
835.292786	181.000000
835.327209	189.400000
835.361694	182.000000
835.396057	181.100000
835.430542	186.500000
835.465027	185.000000
835.499390	179.600000
835.533875	204.500000
835.568359	182.500000
835.602722	178.500000
835.637207	185.200000
835.671692	179.000000
835.706055	202.400000
835.740540	186.500000
835.774902	186.700000
835.809387	185.000000
835.843811	178.700000
835.878235	191.900000
835.912659	178.700000
835.947083	181.100000
835.981506	184.200000
836.015930	176.500000
836.050354	189.100000
836.084778	194.100000
836.119202	188.600000
836.153625	197.600000
836.187988	180.200000
836.222473	181.400000
836.256897	184.800000
836.291260	185.300000
836.325684	186.300000
836.360046	183.400000
836.394470	183.800000
836.428894	192.500000
836.463318	181.200000
836.497681	188.500000
836.532104	191.600000
836.566467	185.200000
836.600891	181.800000
836.635315	190.600000
836.669678	186.400000
836.704102	190.800000
836.738525	185.500000
836.772888	176.500000
836.807251	182.000000
836.841675	186.600000
836.876038	179.100000
836.910461	181.600000
836.944763	188.700000
836.979187	180.300000
837.013611	190.200000
837.047974	179.000000
837.082336	195.600000
837.116699	188.500000
837.151062	184.200000
837.185486	179.100000
837.219849	182.900000
837.254211	189.100000
837.288574	184.300000
837.322937	179.300000
837.357300	173.900000
837.391663	196.200000
837.426086	188.800000
837.460388	185.600000
837.494751	190.200000
837.529114	182.500000
837.563477	189.200000
837.597839	186.600000
837.632141	183.300000
837.666565	180.700000
837.700928	188.000000
837.735229	187.600000
837.769592	187.600000
837.803955	189.000000
837.838257	181.600000
837.872620	181.500000
837.906982	193.500000
837.941284	183.800000
837.975647	185.600000
838.010010	190.300000
838.044312	184.700000
838.078674	180.100000
838.112976	186.000000
838.147339	189.200000
838.181702	184.300000
838.216003	193.400000
838.250366	185.900000
838.284668	186.500000
838.318970	178.100000
838.353333	184.900000
838.387634	183.100000
838.421936	184.400000
838.456299	185.300000
838.490601	192.200000
838.524902	188.500000
838.559265	189.500000
838.593567	189.700000
838.627869	178.600000
838.662170	188.000000
838.696472	179.000000
838.730774	181.800000
838.765137	190.300000
838.799377	171.100000
838.833740	184.800000
838.868042	191.300000
838.902283	176.600000
838.936646	191.600000
838.970947	186.600000
839.005188	190.500000
839.039551	177.700000
839.073792	190.200000
839.108093	183.000000
839.142395	194.700000
839.176697	178.300000
839.210937	186.300000
839.245300	195.700000
839.279541	179.900000
839.313843	181.700000
839.348145	188.900000
839.382385	189.500000
839.416687	189.300000
839.450989	187.500000
839.485229	184.500000
839.519531	180.600000
839.553833	190.700000
839.588013	185.000000
839.622314	185.400000
839.656555	188.300000
839.690857	185.000000
839.725159	179.600000
839.759460	184.100000
839.793640	182.600000
839.827942	183.900000
839.862183	181.400000
839.896423	184.900000
839.930725	196.500000
839.964966	191.000000
839.999207	192.100000
840.033508	191.100000
840.067688	182.600000
840.101990	192.400000
840.136230	185.800000
840.170471	192.500000
840.204712	181.200000
840.238953	181.300000
840.273193	188.700000
840.307434	188.300000
840.341736	181.300000
840.375916	178.500000
840.410217	181.500000
840.444397	188.800000
840.478638	188.400000
840.512878	189.900000
840.547119	184.800000
840.581360	186.700000
840.615601	195.000000
840.649780	194.900000
840.684021	185.400000
840.718262	192.800000
840.752441	191.500000
840.786682	186.300000
840.820862	187.700000
840.855103	193.600000
840.889343	184.900000
840.923584	190.300000
840.957764	187.100000
840.992004	187.800000
841.026184	199.300000
841.060425	184.000000
841.094666	182.100000
841.128845	188.500000
841.163025	187.200000
841.197266	188.700000
841.231445	186.000000
841.265686	187.300000
841.299866	180.500000
841.334045	193.500000
841.368286	184.300000
841.402405	192.400000
841.436646	190.100000
841.470825	182.600000
841.505005	184.600000
841.539185	181.400000
841.573425	181.600000
841.607544	185.100000
841.641785	184.500000
841.675964	179.200000
841.710144	185.500000
841.744324	183.300000
841.778503	183.400000
841.812683	182.600000
841.846863	193.100000
841.881042	191.800000
841.915222	181.900000
841.949402	200.900000
841.983521	175.400000
842.017700	184.300000
842.051880	185.200000
842.086060	187.400000
842.120239	184.300000
842.154419	183.000000
842.188538	185.400000
842.222717	183.100000
842.256897	194.200000
842.291016	182.300000
842.325195	187.200000
842.359375	196.600000
842.393494	192.900000
842.427673	187.100000
842.461853	189.500000
842.495911	193.200000
842.530090	188.000000
842.564209	185.000000
842.598389	187.200000
842.632568	185.900000
842.666626	190.200000
842.700806	182.700000
842.734985	181.600000
842.769043	188.000000
842.803223	183.800000
842.837402	184.500000
842.871460	181.800000
842.905640	194.600000
842.939697	182.200000
842.973877	186.500000
843.007996	191.000000
843.042175	194.000000
843.076233	182.800000
843.110413	187.600000
843.144470	195.200000
843.178589	189.400000
843.212769	184.300000
843.246826	188.500000
843.280945	182.500000
843.315125	183.100000
843.349182	181.900000
843.383301	192.500000
843.417419	198.100000
843.451538	184.600000
843.485657	184.000000
843.519714	185.700000
843.553833	187.400000
843.587952	183.300000
843.622070	180.700000
843.656128	188.800000
843.690247	183.600000
843.724304	184.400000
843.758423	187.500000
843.792542	184.400000
843.826599	185.200000
843.860718	184.000000
843.894836	178.500000
843.928894	185.000000
843.963013	188.100000
843.997070	181.700000
844.031128	179.200000
844.065247	190.000000
844.099304	191.500000
844.133362	186.300000
844.167480	189.500000
844.201599	192.700000
844.235596	187.300000
844.269714	187.100000
844.303711	186.600000
844.337830	177.800000
844.371948	190.200000
844.405945	183.800000
844.440063	181.200000
844.474121	199.800000
844.508118	184.800000
844.542236	183.500000
844.576294	185.200000
844.610352	179.300000
844.644409	183.100000
844.678406	177.600000
844.712524	190.500000
844.746582	193.400000
844.780640	184.800000
844.814636	187.000000
844.848755	196.700000
844.882751	182.600000
844.916809	189.400000
844.950867	187.700000
844.984863	193.700000
845.018921	183.800000
845.052979	183.200000
845.086975	185.800000
845.121033	178.900000
845.155090	181.000000
845.189087	191.800000
845.223145	183.600000
845.257141	186.000000
845.291199	188.300000
845.325256	192.700000
845.359253	187.400000
845.393250	195.200000
845.427307	184.700000
845.461304	186.500000
845.495361	186.500000
845.529358	194.900000
845.563354	183.600000
845.597412	181.300000
845.631409	194.200000
845.665405	191.700000
845.699463	191.000000
845.733459	183.300000
845.767456	192.800000
845.801453	183.800000
845.835449	191.700000
845.869446	189.700000
845.903503	189.900000
845.937439	182.100000
845.971497	192.600000
846.005493	178.100000
846.039429	190.000000
846.073486	194.700000
846.107483	184.900000
846.141418	185.200000
846.175476	186.100000
846.209473	190.900000
846.243408	182.400000
846.277405	187.700000
846.311401	182.200000
846.345337	186.100000
846.379395	190.900000
846.413330	182.700000
846.447327	193.100000
846.481323	181.800000
846.515259	183.200000
846.549255	185.200000
846.583252	188.300000
846.617187	180.700000
846.651184	187.700000
846.685120	184.100000
846.719055	194.500000
846.753052	190.500000
846.786987	189.900000
846.820984	179.600000
846.854980	192.100000
846.888916	181.600000
846.922852	188.200000
846.956848	194.900000
846.990723	180.900000
847.024719	186.400000
847.058716	185.200000
847.092590	193.500000
847.126587	186.600000
847.160522	183.500000
847.194458	190.800000
847.228455	182.400000
847.262390	180.700000
847.296265	184.500000
847.330261	190.900000
847.364136	183.300000
847.398132	183.200000
847.432068	186.200000
847.466003	185.500000
847.499939	185.500000
847.533875	189.600000
847.567749	184.900000
847.601746	183.600000
847.635681	188.400000
847.669556	177.600000
847.703491	191.700000
847.737427	200.600000
847.771301	181.600000
847.805237	187.000000
847.839233	186.100000
847.873108	184.900000
847.907043	185.200000
847.940918	192.000000
847.974854	187.600000
848.008789	188.900000
848.042664	187.500000
848.076538	188.700000
848.110474	186.400000
848.144348	187.700000
848.178284	178.200000
848.212219	186.400000
848.246094	185.200000
848.279968	187.300000
848.313904	188.500000
848.347778	186.500000
848.381653	185.100000
848.415588	182.000000
848.449463	183.100000
848.483337	189.000000
848.517212	191.900000
848.551086	187.400000
848.585022	181.400000
848.618835	195.800000
848.652771	183.900000
848.686646	182.800000
848.720520	193.000000
848.754395	186.600000
848.788330	191.000000
848.822144	190.300000
848.856018	184.600000
848.889954	195.800000
848.923767	181.600000
848.957642	182.500000
848.991577	189.400000
849.025391	184.800000
849.059265	185.800000
849.093079	182.700000
849.126953	180.400000
849.160828	191.100000
849.194641	186.600000
849.228577	183.600000
849.262451	185.600000
849.296265	184.800000
849.330139	181.000000
849.364014	186.200000
849.397827	189.600000
849.431702	187.000000
849.465515	189.700000
849.499329	177.300000
849.533203	181.000000
849.567078	174.900000
849.600891	188.700000
849.634766	185.100000
849.668518	188.800000
849.702393	187.500000
849.736267	179.500000
849.770020	196.800000
849.803894	189.300000
849.837769	187.300000
849.871521	186.200000
849.905396	190.500000
849.939270	181.100000
849.973022	185.000000
850.006897	190.200000
850.040710	190.600000
850.074524	189.500000
850.108337	185.600000
850.142151	189.700000
850.175964	191.900000
850.209778	186.100000
850.243530	174.900000
850.277405	190.900000
850.311218	185.400000
850.344971	183.000000
850.378845	192.900000
850.412659	183.300000
850.446411	186.900000
850.480225	185.100000
850.514038	190.900000
850.547791	189.200000
850.581665	185.000000
850.615417	182.600000
850.649231	186.600000
850.683044	184.900000
850.716858	184.900000
850.750610	187.500000
850.784424	190.000000
850.818176	181.700000
850.851929	183.800000
850.885742	183.600000
850.919495	185.300000
850.953308	192.600000
850.987122	192.900000
851.020874	180.500000
851.054626	178.800000
851.088440	190.700000
851.122192	188.900000
851.156006	187.400000
851.189697	185.500000
851.223511	180.700000
851.257263	191.300000
851.291077	189.700000
851.324829	184.100000
851.358582	183.800000
851.392334	184.100000
851.426086	184.100000
851.459900	194.400000
851.493591	186.500000
851.527344	188.500000
851.561157	185.300000
851.594849	188.600000
851.628662	188.500000
851.662415	194.300000
851.696106	188.500000
851.729858	190.700000
851.763611	180.700000
851.797363	186.200000
851.831116	180.800000
851.864868	188.800000
851.898560	189.900000
851.932312	184.600000
851.966064	187.600000
851.999817	186.000000
852.033569	185.000000
852.067261	190.300000
852.101013	182.200000
852.134766	185.000000
852.168457	174.900000
852.202209	190.900000
852.235901	181.300000
852.269592	189.100000
852.303345	193.500000
852.337036	189.700000
852.370789	185.400000
852.404541	191.000000
852.438171	182.000000
852.471924	186.500000
852.505676	179.100000
852.539307	188.000000
852.573059	182.400000
852.606812	184.200000
852.640442	182.900000
852.674194	191.400000
852.707886	196.500000
852.741577	194.500000
852.775269	181.200000
852.809021	188.100000
852.842651	189.800000
852.876404	191.300000
852.910034	186.800000
852.943787	192.400000
852.977478	189.100000
853.011108	183.500000
853.044861	182.600000
853.078552	193.200000
853.112183	187.600000
853.145874	186.100000
853.179626	176.800000
853.213257	188.200000
853.246948	183.600000
853.280640	195.000000
853.314270	184.900000
853.347961	194.600000
853.381653	189.400000
853.415283	191.800000
853.448975	182.900000
853.482605	186.300000
853.516296	185.800000
853.549988	180.000000
853.583618	187.600000
853.617310	188.100000
853.651001	187.300000
853.684631	182.200000
853.718323	183.600000
853.751953	193.400000
853.785583	179.000000
853.819275	189.200000
853.852966	188.300000
853.886536	177.700000
853.920227	181.300000
853.953918	191.000000
853.987488	185.400000
854.021179	189.100000
854.054749	195.000000
854.088440	189.100000
854.122131	183.700000
854.155701	188.900000
854.189331	183.000000
854.223022	189.500000
854.256592	189.000000
854.290283	183.000000
854.323914	189.600000
854.357483	186.800000
854.391174	188.900000
854.424744	194.600000
854.458374	189.300000
854.492065	196.600000
854.525696	185.000000
854.559265	193.100000
854.592896	198.600000
854.626465	185.600000
854.660095	186.300000
854.693787	187.900000
854.727356	185.700000
854.760986	190.400000
854.794617	187.700000
854.828186	185.200000
854.861816	189.900000
854.895447	186.800000
854.929016	186.600000
854.962585	190.000000
854.996155	195.800000
855.029785	187.700000
855.063416	190.300000
855.097046	191.100000
855.130615	182.000000
855.164185	192.300000
855.197754	186.700000
855.231384	188.200000
855.264954	186.100000
855.298523	189.900000
855.332153	187.500000
855.365723	193.900000
855.399292	183.200000
855.432922	186.100000
855.466492	189.800000
855.500061	182.400000
855.533630	183.000000
855.567200	189.400000
855.600769	189.300000
855.634338	192.600000
855.667969	188.200000
855.701477	182.700000
855.735046	183.500000
855.768616	178.300000
855.802185	188.800000
855.835754	202.000000
855.869324	179.500000
855.902893	185.400000
855.936401	192.300000
855.969971	188.600000
856.003540	179.600000
856.037109	189.800000
856.070618	184.400000
856.104187	181.600000
856.137695	184.600000
856.171265	177.100000
856.204834	184.900000
856.238403	192.100000
856.271912	185.200000
856.305481	188.400000
856.338989	178.500000
856.372559	190.700000
856.406128	188.300000
856.439636	190.700000
856.473145	185.000000
856.506653	195.300000
856.540222	184.900000
856.573792	192.700000
856.607300	189.500000
856.640808	180.500000
856.674377	187.700000
856.707825	215.500000
856.741394	189.700000
856.774902	182.700000
856.808472	178.000000
856.841980	189.200000
856.875488	194.400000
856.908936	179.000000
856.942505	184.700000
856.976013	185.100000
857.009521	182.000000
857.043030	187.000000
857.076477	184.300000
857.110046	190.300000
857.143555	186.800000
857.177063	191.900000
857.210571	184.900000
857.244080	179.800000
857.277527	189.500000
857.311035	186.200000
857.344543	191.800000
857.378052	185.000000
857.411499	194.300000
857.445068	195.100000
857.478516	187.200000
857.512024	180.000000
857.545532	185.400000
857.578979	188.900000
857.612427	187.100000
857.645874	182.500000
857.679382	189.200000
857.712891	190.800000
857.746399	186.100000
857.779846	191.100000
857.813354	191.100000
857.846741	186.400000
857.880249	183.400000
857.913757	187.500000
857.947266	187.800000
857.980652	188.800000
858.014160	184.900000
858.047546	185.600000
858.081055	185.800000
858.114563	195.100000
858.147949	181.300000
858.181458	189.800000
858.214844	187.000000
858.248352	178.100000
858.281799	192.000000
858.315308	199.100000
858.348694	190.400000
858.382141	194.000000
858.415588	189.700000
858.449036	192.100000
858.482483	190.200000
858.515930	183.000000
858.549377	186.300000
858.582825	193.300000
858.616211	189.700000
858.649658	189.600000
858.683105	181.400000
858.716553	183.500000
858.750000	180.900000
858.783386	185.300000
858.816833	178.400000
858.850281	188.500000
858.883728	188.200000
858.917114	186.600000
858.950562	194.700000
858.983948	194.900000
859.017395	191.300000
859.050781	184.500000
859.084167	184.200000
859.117615	180.600000
859.151062	189.400000
859.184448	182.600000
859.217834	183.700000
859.251282	183.800000
859.284668	181.600000
859.318054	178.100000
859.351440	184.600000
859.384888	193.400000
859.418274	178.900000
859.451721	179.200000
859.485046	187.800000
859.518494	187.500000
859.551819	181.700000
859.585266	189.300000
859.618652	189.600000
859.652039	180.800000
859.685425	181.200000
859.718811	180.300000
859.752197	176.000000
859.785583	192.500000
859.819031	192.900000
859.852356	189.100000
859.885742	183.600000
859.919067	186.600000
859.952454	184.500000
859.985901	191.600000
860.019287	184.400000
860.052612	0.000000
860.085999	0.000000
860.119324	0.000000
860.152710	0.000000
860.186096	0.000000
860.219421	0.000000
860.252808	0.000000
860.286133	0.000000
860.319519	0.000000
860.352905	0.000000
860.386292	0.000000
860.419617	0.000000
860.452942	0.000000
860.486267	0.000000
860.519653	0.000000
860.553040	0.000000
860.586365	0.000000
860.619690	0.000000
860.653076	0.000000
860.686340	0.000000
860.719727	0.000000
860.753113	0.000000
860.786377	0.000000
860.819763	0.000000
860.853027	0.000000
860.886414	0.000000
860.919739	0.000000
860.953125	0.000000
860.986389	0.000000
861.019714	0.000000
861.053040	0.000000
861.086365	0.000000
861.119690	0.000000
861.153076	0.000000
861.186340	0.000000
861.219666	0.000000
861.252930	0.000000
861.286316	0.000000
861.319641	0.000000
861.352905	0.000000
861.386230	0.000000
861.419495	0.000000
861.452820	0.000000
861.486145	0.000000
861.519470	0.000000
861.552734	0.000000
861.586060	0.000000
861.619324	0.000000
861.652649	0.000000
861.685974	0.000000
861.719238	0.000000
861.752563	0.000000
861.785828	0.000000
861.819092	0.000000
861.852417	0.000000
861.885742	0.000000
861.918945	0.000000
861.952271	0.000000
861.985535	0.000000
862.018799	0.000000
862.052124	0.000000
862.085449	0.000000
862.118652	0.000000
862.151978	0.000000
862.185181	0.000000
862.218506	0.000000
862.251770	0.000000
862.285034	0.000000
862.318298	0.000000
862.351562	0.000000
862.384827	0.000000
862.418091	0.000000
862.451355	0.000000
862.484619	0.000000
862.517883	0.000000
862.551086	0.000000
862.584351	0.000000
862.617676	0.000000
862.650940	0.000000
862.684143	0.000000
862.717407	0.000000
862.750610	0.000000
862.783875	0.000000
862.817139	0.000000
862.850342	0.000000
862.883606	0.000000
862.916870	0.000000
862.950073	0.000000
862.983337	0.000000
863.016602	0.000000
863.049805	0.000000
863.083069	0.000000
863.116211	0.000000
863.149475	0.000000
863.182739	0.000000
863.216003	0.000000
863.249146	0.000000
863.282410	0.000000
863.315613	0.000000
863.348816	0.000000
863.382080	0.000000
863.415222	0.000000
863.448486	0.000000
863.481689	0.000000
863.514893	0.000000
863.548157	0.000000
863.581360	0.000000
863.614502	0.000000
863.647766	0.000000
863.680908	0.000000
863.714172	0.000000
863.747375	0.000000
863.780579	0.000000
863.813721	0.000000
863.846985	0.000000
863.880127	0.000000
863.913330	0.000000
863.946533	0.000000
863.979675	0.000000
864.012939	0.000000
