Model Number: SPM-001-M   
Serial Number: 10090201
Firmware Version: 004.17.6
Exposure Time: 500000.000000us
Data Taken on: 03-03-2021 10:13:41.159
Wavelength	Amplitude
733.770752	0.000000
733.808716	0.000000
733.846619	0.000000
733.884583	0.000000
733.922546	0.000000
733.960449	0.000000
733.998413	0.000000
734.036377	0.000000
734.074219	0.000000
734.112183	0.000000
734.150085	0.000000
734.188049	0.000000
734.226013	0.000000
734.263916	0.000000
734.301819	0.000000
734.339783	0.000000
734.377686	0.000000
734.415588	0.000000
734.453552	0.000000
734.491455	0.000000
734.529419	0.000000
734.567322	0.000000
734.605225	0.000000
734.643127	0.000000
734.681091	0.000000
734.718994	0.000000
734.756897	0.000000
734.794800	0.000000
734.832703	0.000000
734.870667	0.000000
734.908508	0.000000
734.946472	0.000000
734.984375	0.000000
735.022278	0.000000
735.060181	0.000000
735.098083	0.000000
735.135986	0.000000
735.173889	0.000000
735.211792	0.000000
735.249695	0.000000
735.287598	0.000000
735.325439	0.000000
735.363403	0.000000
735.401306	0.000000
735.439148	0.000000
735.477051	0.000000
735.515015	0.000000
735.552856	0.000000
735.590759	0.000000
735.628662	0.000000
735.666504	0.000000
735.704407	0.000000
735.742310	0.000000
735.780212	0.000000
735.818115	0.000000
735.856018	0.000000
735.893860	0.000000
735.931763	0.000000
735.969604	0.000000
736.007507	0.000000
736.045410	0.000000
736.083252	0.000000
736.121094	0.000000
736.158997	0.000000
736.196838	0.000000
736.234741	0.000000
736.272644	0.000000
736.310486	0.000000
736.348389	0.000000
736.386230	0.000000
736.424072	0.000000
736.461975	0.000000
736.499878	0.000000
736.537720	0.000000
736.575562	0.000000
736.613403	0.000000
736.651306	0.000000
736.689148	0.000000
736.726990	0.000000
736.764893	0.000000
736.802734	0.000000
736.840576	0.000000
736.878418	0.000000
736.916321	0.000000
736.954102	0.000000
736.992004	0.000000
737.029846	0.000000
737.067688	0.000000
737.105530	0.000000
737.143372	0.000000
737.181213	0.000000
737.219116	0.000000
737.256897	0.000000
737.294739	0.000000
737.332642	0.000000
737.370422	0.000000
737.408325	0.000000
737.446167	0.000000
737.483948	0.000000
737.521790	0.000000
737.559692	0.000000
737.597473	0.000000
737.635315	0.000000
737.673157	0.000000
737.710999	0.000000
737.748840	0.000000
737.786621	0.000000
737.824463	0.000000
737.862305	0.000000
737.900085	0.000000
737.937927	0.000000
737.975769	0.000000
738.013550	0.000000
738.051392	0.000000
738.089233	0.000000
738.127014	0.000000
738.164856	0.000000
738.202698	0.000000
738.240479	0.000000
738.278320	0.000000
738.316162	0.000000
738.353943	0.000000
738.391785	0.000000
738.429565	0.000000
738.467407	0.000000
738.505188	0.000000
738.542969	0.000000
738.580811	0.000000
738.618652	0.000000
738.656372	0.000000
738.694214	0.000000
738.732056	0.000000
738.769836	0.000000
738.807617	0.000000
738.845459	0.000000
738.883240	0.000000
738.921021	0.000000
738.958862	0.000000
738.996582	0.000000
739.034424	0.000000
739.072205	0.000000
739.109985	0.000000
739.147827	0.000000
739.185547	0.000000
739.223389	0.000000
739.261169	0.000000
739.298889	0.000000
739.336731	0.000000
739.374512	0.000000
739.412292	0.000000
739.450073	0.000000
739.487854	0.000000
739.525635	0.000000
739.563416	0.000000
739.601135	0.000000
739.638977	0.000000
739.676758	0.000000
739.714478	0.000000
739.752258	0.000000
739.790100	0.000000
739.827820	0.000000
739.865601	0.000000
739.903381	0.000000
739.941101	0.000000
739.978882	189.800000
740.016724	184.700000
740.054443	192.500000
740.092224	183.200000
740.130005	183.200000
740.167725	182.700000
740.205505	183.500000
740.243225	193.000000
740.281006	188.300000
740.318787	179.200000
740.356506	193.000000
740.394287	191.900000
740.432068	182.400000
740.469727	179.700000
740.507507	191.100000
740.545288	185.400000
740.583008	188.300000
740.620789	186.800000
740.658569	178.000000
740.696228	186.600000
740.734009	192.300000
740.771790	175.400000
740.809509	191.600000
740.847229	182.100000
740.884949	183.900000
740.922729	179.700000
740.960449	185.900000
740.998169	181.600000
741.035950	184.400000
741.073669	187.700000
741.111389	187.300000
741.149170	197.400000
741.186890	197.900000
741.224609	192.100000
741.262329	187.800000
741.300110	195.500000
741.337769	181.700000
741.375549	180.400000
741.413208	188.700000
741.450989	181.900000
741.488708	184.000000
741.526367	185.700000
741.564148	190.500000
741.601868	191.100000
741.639526	186.100000
741.677307	188.700000
741.715027	189.800000
741.752686	184.000000
741.790466	193.900000
741.828186	190.000000
741.865845	182.800000
741.903564	179.400000
741.941345	186.700000
741.979004	183.800000
742.016724	191.600000
742.054382	188.100000
742.092102	193.100000
742.129822	180.500000
742.167480	185.000000
742.205200	186.600000
742.242920	188.200000
742.280640	190.300000
742.318359	184.400000
742.356079	183.900000
742.393738	188.600000
742.431396	186.800000
742.469116	190.100000
742.506775	177.000000
742.544495	188.800000
742.582214	190.300000
742.619873	185.400000
742.657593	194.200000
742.695251	191.700000
742.732971	186.800000
742.770630	188.500000
742.808289	186.200000
742.846008	185.200000
742.883728	188.900000
742.921326	186.900000
742.959045	183.900000
742.996765	187.300000
743.034424	186.400000
743.072083	183.700000
743.109802	186.100000
743.147400	180.500000
743.185120	187.300000
743.222839	187.300000
743.260437	192.800000
743.298157	188.900000
743.335754	180.000000
743.373474	185.500000
743.411133	179.800000
743.448792	189.500000
743.486450	185.900000
743.524170	179.900000
743.561768	187.100000
743.599487	193.300000
743.637146	197.100000
743.674744	187.300000
743.712463	185.300000
743.750122	187.600000
743.787720	188.500000
743.825439	184.100000
743.863037	185.300000
743.900696	187.600000
743.938416	211.000000
743.976013	187.200000
744.013672	196.200000
744.051331	192.200000
744.088928	195.100000
744.126587	192.500000
744.164307	187.000000
744.201904	184.200000
744.239563	190.000000
744.277222	189.100000
744.314819	186.200000
744.352478	194.700000
744.390137	188.900000
744.427734	189.000000
744.465393	184.600000
744.502991	182.800000
744.540649	189.600000
744.578308	188.000000
744.615906	181.200000
744.653564	177.700000
744.691223	189.800000
744.728821	179.200000
744.766418	186.500000
744.804077	188.900000
744.841675	184.500000
744.879333	180.700000
744.916992	185.700000
744.954529	184.000000
744.992187	191.900000
745.029785	184.800000
745.067444	183.100000
745.105042	188.200000
745.142639	190.100000
745.180298	196.100000
745.217896	185.300000
745.255493	185.800000
745.293152	191.300000
745.330750	192.000000
745.368347	194.500000
745.405945	191.400000
745.443604	186.300000
745.481140	191.700000
745.518799	186.600000
745.556396	190.600000
745.593994	190.900000
745.631592	186.800000
745.669189	181.600000
745.706787	188.100000
745.744385	184.200000
745.781982	189.100000
745.819580	184.000000
745.857178	185.800000
745.894775	187.000000
745.932373	188.900000
745.969971	189.100000
746.007568	178.500000
746.045166	197.100000
746.082764	191.700000
746.120300	190.200000
746.157898	190.300000
746.195557	188.100000
746.233093	181.400000
746.270691	190.200000
746.308228	188.800000
746.345825	192.300000
746.383423	191.700000
746.420959	183.200000
746.458557	184.300000
746.496155	184.600000
746.533691	187.600000
746.571289	182.300000
746.608887	188.300000
746.646423	187.700000
746.684021	187.800000
746.721619	184.500000
746.759155	188.100000
746.796753	180.600000
746.834351	180.500000
746.871826	183.100000
746.909424	192.600000
746.946960	187.500000
746.984558	185.300000
747.022156	185.400000
747.059631	195.500000
747.097229	188.800000
747.134827	185.300000
747.172363	193.300000
747.209900	190.700000
747.247498	182.300000
747.285034	193.600000
747.322571	195.000000
747.360168	186.200000
747.397644	180.000000
747.435242	190.900000
747.472778	193.400000
747.510315	185.200000
747.547913	185.200000
747.585388	194.300000
747.622925	186.200000
747.660522	179.700000
747.697998	183.800000
747.735596	186.000000
747.773132	183.500000
747.810669	187.000000
747.848206	191.300000
747.885742	183.400000
747.923279	181.400000
747.960815	188.100000
747.998352	187.300000
748.035889	192.200000
748.073425	190.800000
748.110901	184.400000
748.148437	182.000000
748.185974	187.800000
748.223511	197.000000
748.261047	189.700000
748.298584	187.900000
748.336060	187.600000
748.373596	190.400000
748.411133	206.200000
748.448608	183.300000
748.486145	190.700000
748.523682	194.900000
748.561218	194.800000
748.598755	187.800000
748.636292	190.800000
748.673706	184.800000
748.711243	194.000000
748.748718	189.000000
748.786255	188.100000
748.823792	187.800000
748.861267	182.600000
748.898804	188.600000
748.936340	189.700000
748.973816	185.300000
749.011292	193.400000
749.048828	189.500000
749.086304	190.600000
749.123840	199.900000
749.161316	182.900000
749.198792	197.200000
749.236328	193.000000
749.273743	187.100000
749.311279	184.700000
749.348816	191.200000
749.386230	187.100000
749.423767	176.600000
749.461304	189.300000
749.498718	188.000000
749.536255	193.900000
749.573730	200.100000
749.611206	193.300000
749.648682	187.700000
749.686218	186.600000
749.723633	190.900000
749.761169	185.200000
749.798645	183.600000
749.836060	186.200000
749.873596	185.000000
749.911011	186.600000
749.948547	193.900000
749.986023	187.900000
750.023437	186.300000
750.060913	181.000000
750.098450	181.200000
750.135864	186.700000
750.173340	187.600000
750.210815	192.900000
750.248291	182.900000
750.285767	187.100000
750.323242	194.400000
750.360657	189.300000
750.398132	183.200000
750.435608	191.300000
750.473022	184.400000
750.510498	183.500000
750.547974	182.000000
750.585449	185.800000
750.622925	176.200000
750.660339	196.700000
750.697815	187.200000
750.735291	186.000000
750.772644	189.300000
750.810120	189.300000
750.847595	190.700000
750.885010	183.200000
750.922485	196.300000
750.959961	186.100000
750.997375	193.300000
751.034851	191.400000
751.072266	192.400000
751.109680	180.100000
751.147156	192.900000
751.184570	189.800000
751.221985	188.300000
751.259460	179.900000
751.296875	186.500000
751.334290	187.900000
751.371765	190.600000
751.409180	190.600000
751.446594	193.600000
751.484070	190.200000
751.521423	188.800000
751.558899	189.000000
751.596375	195.800000
751.633728	194.900000
751.671204	200.100000
751.708618	184.600000
751.746033	187.400000
751.783447	182.200000
751.820801	184.300000
751.858276	190.200000
751.895691	187.300000
751.933105	186.000000
751.970520	181.300000
752.007935	186.400000
752.045349	191.200000
752.082764	188.800000
752.120178	185.900000
752.157532	183.400000
752.195007	184.000000
752.232422	191.500000
752.269775	192.500000
752.307190	190.000000
752.344543	182.400000
752.382019	185.700000
752.419434	185.500000
752.456787	190.200000
752.494202	192.000000
752.531616	188.500000
752.568970	192.400000
752.606384	189.400000
752.643799	188.800000
752.681152	197.000000
752.718567	191.400000
752.755981	180.500000
752.793335	190.600000
752.830750	179.600000
752.868164	194.000000
752.905518	183.600000
752.942932	192.700000
752.980225	182.800000
753.017639	192.100000
753.055054	186.800000
753.092407	190.200000
753.129822	191.800000
753.167175	196.700000
753.204529	187.100000
753.241943	184.100000
753.279358	180.900000
753.316650	192.700000
753.354065	189.900000
753.391479	193.400000
753.428772	195.900000
753.466187	191.200000
753.503479	181.500000
753.540894	185.300000
753.578308	181.700000
753.615601	182.800000
753.653015	186.500000
753.690369	184.700000
753.727722	183.400000
753.765076	181.400000
753.802490	183.100000
753.839783	178.900000
753.877136	183.700000
753.914551	201.200000
753.951843	183.200000
753.989258	191.500000
754.026611	188.500000
754.063904	190.600000
754.101257	183.500000
754.138611	180.300000
754.175964	187.900000
754.213318	198.700000
754.250610	181.000000
754.288025	185.100000
754.325378	182.300000
754.362671	193.100000
754.400024	187.200000
754.437378	196.300000
754.474670	198.400000
754.512085	184.600000
754.549438	187.700000
754.586731	185.300000
754.624084	186.200000
754.661438	183.000000
754.698730	196.300000
754.736084	185.500000
754.773376	186.300000
754.810730	190.800000
754.848083	185.800000
754.885315	191.100000
754.922668	179.900000
754.960022	181.900000
754.997314	191.100000
755.034668	186.800000
755.072021	187.600000
755.109253	184.500000
755.146606	193.900000
755.183960	185.700000
755.221252	196.000000
755.258545	191.500000
755.295898	193.600000
755.333191	193.800000
755.370544	190.300000
755.407776	187.200000
755.445129	186.600000
755.482422	191.400000
755.519714	183.800000
755.557068	180.800000
755.594360	180.800000
755.631653	191.200000
755.668945	195.900000
755.706299	188.000000
755.743530	199.700000
755.780884	195.200000
755.818176	193.100000
755.855408	191.900000
755.892761	189.600000
755.930054	188.300000
755.967346	189.100000
756.004639	191.500000
756.041870	187.500000
756.079224	193.100000
756.116516	184.400000
756.153748	192.600000
756.191040	196.800000
756.228394	190.700000
756.265625	184.700000
756.302917	188.100000
756.340210	184.100000
756.377441	193.800000
756.414795	195.500000
756.452087	189.100000
756.489319	182.100000
756.526611	192.400000
756.563843	190.300000
756.601135	199.600000
756.638428	197.800000
756.675659	189.200000
756.712952	193.800000
756.750244	191.700000
756.787476	190.100000
756.824768	196.900000
756.862061	188.300000
756.899292	235.700000
756.936584	193.500000
756.973816	200.200000
757.011047	202.700000
757.048340	190.100000
757.085632	189.600000
757.122864	206.500000
757.160156	187.300000
757.197327	192.200000
757.234619	196.100000
757.271912	189.600000
757.309082	195.200000
757.346375	187.800000
757.383667	196.200000
757.420837	192.100000
757.458130	192.600000
757.495422	190.500000
757.532593	193.100000
757.569885	186.100000
757.607117	186.000000
757.644348	194.400000
757.681580	203.500000
757.718811	181.100000
757.756042	191.400000
757.793335	188.300000
757.830505	193.300000
757.867798	189.600000
757.905029	187.100000
757.942200	193.800000
757.979492	188.000000
758.016724	191.700000
758.053894	189.000000
758.091187	208.100000
758.128418	192.300000
758.165588	190.900000
758.202820	203.700000
758.240112	190.900000
758.277283	203.600000
758.314514	195.300000
758.351685	191.200000
758.388916	202.100000
758.426147	199.900000
758.463379	202.300000
758.500610	197.000000
758.537842	194.700000
758.575012	200.400000
758.612244	189.400000
758.649475	206.400000
758.686646	187.700000
758.723877	202.900000
758.761108	203.400000
758.798279	194.900000
758.835510	196.800000
758.872742	203.100000
758.909851	196.800000
758.947083	199.200000
758.984253	197.600000
759.021484	201.300000
759.058716	198.600000
759.095886	201.300000
759.133057	194.400000
759.170288	200.300000
759.207458	192.300000
759.244690	206.900000
759.281860	205.600000
759.319031	197.000000
759.356262	194.300000
759.393433	196.200000
759.430603	195.200000
759.467773	196.000000
759.505005	202.900000
759.542175	204.000000
759.579346	196.700000
759.616516	198.700000
759.653687	200.500000
759.690918	194.300000
759.728027	199.300000
759.765259	201.100000
759.802429	202.000000
759.839539	201.900000
759.876770	204.400000
759.913940	209.100000
759.951111	201.400000
759.988281	201.300000
760.025452	198.100000
760.062561	196.600000
760.099792	209.000000
760.136963	203.300000
760.174072	199.700000
760.211243	194.500000
760.248413	195.800000
760.285583	197.900000
760.322754	212.300000
760.359863	206.700000
760.397034	209.200000
760.434204	200.700000
760.471375	202.700000
760.508545	200.100000
760.545715	201.100000
760.582825	196.900000
760.619995	206.900000
760.657166	196.600000
760.694275	209.700000
760.731445	205.500000
760.768555	205.000000
760.805664	205.600000
760.842834	204.700000
760.879944	206.400000
760.917114	205.800000
760.954285	203.500000
760.991394	197.600000
761.028564	209.700000
761.065674	207.900000
761.102783	199.900000
761.139954	209.200000
761.177124	208.500000
761.214172	210.300000
761.251343	202.700000
761.288452	204.800000
761.325562	208.500000
761.362732	202.700000
761.399841	201.700000
761.436951	205.700000
761.474121	200.600000
761.511169	205.900000
761.548340	210.700000
761.585449	208.100000
761.622559	209.900000
761.659668	207.300000
761.696838	212.000000
761.733887	207.600000
761.771057	205.700000
761.808167	206.900000
761.845276	211.000000
761.882385	219.900000
761.919434	209.700000
761.956604	224.500000
761.993713	204.700000
762.030762	213.900000
762.067871	207.300000
762.105042	207.800000
762.142090	216.200000
762.179199	210.900000
762.216309	213.900000
762.253418	225.900000
762.290527	219.600000
762.327637	216.700000
762.364685	205.500000
762.401794	215.400000
762.438904	214.200000
762.475952	207.800000
762.513062	207.800000
762.550110	208.100000
762.587219	221.400000
762.624329	220.800000
762.661377	215.500000
762.698486	214.200000
762.735596	214.200000
762.772644	207.800000
762.809753	207.400000
762.846863	212.900000
762.883911	217.500000
762.921021	216.900000
762.958069	215.000000
762.995117	221.200000
763.032227	222.600000
763.069336	214.100000
763.106323	210.900000
763.143433	209.200000
763.180481	217.900000
763.217590	216.600000
763.254639	214.600000
763.291687	214.300000
763.328735	224.200000
763.365845	215.800000
763.402893	216.200000
763.439941	216.300000
763.477051	221.500000
763.514038	219.900000
763.551147	216.800000
763.588196	219.500000
763.625244	218.200000
763.662292	225.100000
763.699402	227.700000
763.736389	223.300000
763.773499	231.600000
763.810486	223.700000
763.847534	221.900000
763.884644	224.000000
763.921631	220.000000
763.958679	232.500000
763.995728	222.700000
764.032776	229.300000
764.069824	218.100000
764.106873	227.600000
764.143860	233.600000
764.180969	224.300000
764.218018	231.500000
764.255005	222.900000
764.292053	223.600000
764.329102	234.100000
764.366089	234.200000
764.403137	231.000000
764.440125	225.500000
764.477173	228.100000
764.514221	230.900000
764.551208	228.100000
764.588257	223.200000
764.625305	233.600000
764.662292	238.500000
764.699341	239.700000
764.736389	232.400000
764.773376	247.800000
764.810425	234.900000
764.847473	243.000000
764.884399	236.500000
764.921448	246.200000
764.958435	244.900000
764.995483	235.700000
765.032532	251.900000
765.069458	236.800000
765.106506	236.700000
765.143555	234.300000
765.180481	238.700000
765.217529	249.200000
765.254578	232.600000
765.291504	243.900000
765.328552	239.300000
765.365540	235.600000
765.402527	251.900000
765.439575	241.200000
765.476501	233.800000
765.513550	237.500000
765.550537	243.600000
765.587463	250.100000
765.624512	240.800000
765.661499	232.800000
765.698486	250.200000
765.735474	239.400000
765.772461	243.200000
765.809448	252.800000
765.846436	250.100000
765.883423	253.500000
765.920410	247.300000
765.957397	242.500000
765.994385	249.100000
766.031311	257.700000
766.068359	252.500000
766.105286	251.600000
766.142273	258.000000
766.179260	252.000000
766.216187	246.200000
766.253174	242.500000
766.290161	253.100000
766.327148	255.000000
766.364136	254.200000
766.401123	268.300000
766.438049	247.300000
766.475037	261.700000
766.512024	258.400000
766.548950	270.600000
766.585937	265.100000
766.622864	260.000000
766.659790	261.000000
766.696777	248.700000
766.733704	264.800000
766.770691	254.300000
766.807678	268.600000
766.844604	261.800000
766.881531	261.200000
766.918518	268.600000
766.955444	269.600000
766.992432	263.300000
767.029358	265.300000
767.066284	267.700000
767.103271	266.900000
767.140198	294.900000
767.177124	283.100000
767.214050	271.800000
767.251038	271.300000
767.287964	265.500000
767.324890	265.800000
767.361816	271.400000
767.398743	275.500000
767.435730	267.200000
767.472595	272.300000
767.509583	277.800000
767.546509	265.000000
767.583374	270.400000
767.620361	264.400000
767.657288	269.600000
767.694214	269.800000
767.731140	270.100000
767.768066	270.200000
767.804993	276.500000
767.841919	266.600000
767.878845	275.300000
767.915710	281.900000
767.952698	274.600000
767.989563	276.200000
768.026489	278.900000
768.063416	269.700000
768.100281	272.800000
768.137207	284.200000
768.174133	283.500000
768.211060	280.800000
768.247986	279.400000
768.284912	276.200000
768.321777	279.400000
768.358704	276.300000
768.395630	279.200000
768.432495	274.800000
768.469421	281.500000
768.506348	284.000000
768.543152	291.000000
768.580078	286.900000
768.616943	290.600000
768.653870	291.600000
768.690796	289.300000
768.727661	286.300000
768.764587	288.600000
768.801453	283.200000
768.838318	295.400000
768.875244	290.800000
768.912109	297.000000
768.948975	287.700000
768.985901	292.800000
769.022766	289.100000
769.059631	294.200000
769.096558	287.800000
769.133362	290.400000
769.170288	289.400000
769.207214	289.900000
769.244019	296.200000
769.280945	293.500000
769.317810	302.500000
769.354675	296.700000
769.391541	307.100000
769.428406	301.400000
769.465271	312.000000
769.502136	299.300000
769.539062	303.900000
769.575867	303.000000
769.612732	305.200000
769.649597	311.700000
769.686462	313.500000
769.723328	308.000000
769.760193	303.600000
769.797058	306.900000
769.833923	316.100000
769.870728	309.500000
769.907593	313.900000
769.944519	311.700000
769.981323	315.800000
770.018188	316.200000
770.055054	314.400000
770.091858	312.600000
770.128723	323.700000
770.165588	331.000000
770.202393	315.100000
770.239258	328.100000
770.276062	324.500000
770.312927	324.500000
770.349792	331.700000
770.386597	330.000000
770.423462	339.200000
770.460327	344.000000
770.497131	329.700000
770.533997	323.900000
770.570862	340.100000
770.607605	337.600000
770.644470	334.500000
770.681335	336.500000
770.718140	338.000000
770.754944	331.200000
770.791809	334.800000
770.828613	336.600000
770.865479	338.700000
770.902222	348.200000
770.939087	343.100000
770.975952	336.900000
771.012695	341.700000
771.049561	356.800000
771.086365	345.800000
771.123169	339.000000
771.159973	344.600000
771.196838	344.700000
771.233582	348.100000
771.270447	348.900000
771.307251	352.600000
771.344055	346.700000
771.380859	355.000000
771.417664	348.400000
771.454468	356.700000
771.491272	355.300000
771.528076	355.400000
771.564880	353.400000
771.601685	363.700000
771.638428	354.700000
771.675293	362.800000
771.712097	352.800000
771.748840	369.700000
771.785645	359.900000
771.822449	362.000000
771.859253	367.200000
771.896057	365.100000
771.932861	374.800000
771.969604	366.000000
772.006409	360.100000
772.043213	372.200000
772.079956	368.600000
772.116760	363.600000
772.153503	366.600000
772.190308	377.500000
772.227112	368.100000
772.263855	364.000000
772.300659	368.500000
772.337463	376.000000
772.374207	369.500000
772.411011	362.600000
772.447754	369.900000
772.484497	380.900000
772.521301	374.400000
772.558105	372.600000
772.594849	374.500000
772.631592	379.600000
772.668396	377.400000
772.705139	379.800000
772.741882	377.100000
772.778625	389.400000
772.815430	387.700000
772.852173	385.100000
772.888916	392.700000
772.925720	394.900000
772.962463	401.600000
772.999207	393.500000
773.035950	399.900000
773.072754	397.900000
773.109436	391.400000
773.146240	394.600000
773.182922	393.800000
773.219727	401.900000
773.256470	397.400000
773.293152	389.200000
773.329956	394.200000
773.366699	400.400000
773.403381	390.100000
773.440186	397.200000
773.476929	403.100000
773.513611	395.400000
773.550354	396.900000
773.587158	395.400000
773.623840	392.800000
773.660583	398.500000
773.697327	413.600000
773.734009	402.300000
773.770813	399.700000
773.807495	400.300000
773.844238	399.100000
773.880981	415.800000
773.917664	408.300000
773.954407	418.100000
773.991150	406.000000
774.027832	412.700000
774.064575	403.900000
774.101318	413.100000
774.138000	417.500000
774.174744	413.600000
774.211487	414.500000
774.248108	403.100000
774.284851	402.800000
774.321594	413.500000
774.358276	414.900000
774.395020	424.900000
774.431702	418.900000
774.468384	412.300000
774.505127	410.700000
774.541809	421.400000
774.578491	428.100000
774.615234	430.100000
774.651917	417.600000
774.688599	425.000000
774.725342	431.900000
774.762024	430.600000
774.798706	434.400000
774.835449	435.600000
774.872070	441.700000
774.908813	439.700000
774.945496	433.700000
774.982178	437.700000
775.018860	440.300000
775.055542	440.500000
775.092224	441.200000
775.128967	448.500000
775.165588	444.500000
775.202271	438.800000
775.239014	450.300000
775.275635	450.800000
775.312317	448.300000
775.349060	454.900000
775.385681	455.200000
775.422363	445.100000
775.459045	453.800000
775.495667	454.500000
775.532410	459.100000
775.569092	460.700000
775.605713	464.700000
775.642395	461.200000
775.679016	465.000000
775.715698	462.700000
775.752380	467.300000
775.789001	463.500000
775.825684	462.800000
775.862366	464.900000
775.898987	478.700000
775.935669	469.300000
775.972351	489.600000
776.008972	484.800000
776.045654	485.200000
776.082336	479.200000
776.118958	479.300000
776.155640	482.500000
776.192322	490.800000
776.228882	492.800000
776.265564	495.500000
776.302185	489.600000
776.338867	501.600000
776.375488	486.700000
776.412109	499.900000
776.448792	503.200000
776.485413	512.500000
776.522034	500.000000
776.558716	499.800000
776.595337	500.200000
776.631958	503.500000
776.668579	506.000000
776.705261	514.100000
776.741882	507.400000
776.778503	511.200000
776.815186	507.500000
776.851746	516.100000
776.888367	514.000000
776.924988	522.000000
776.961609	512.800000
776.998291	516.200000
777.034851	507.200000
777.071472	521.500000
777.108154	520.400000
777.144714	531.700000
777.181335	530.400000
777.218018	523.100000
777.254578	533.800000
777.291199	532.000000
777.327759	536.900000
777.364380	543.700000
777.401062	553.800000
777.437622	561.500000
777.474243	552.300000
777.510864	556.700000
777.547424	547.400000
777.584045	551.100000
777.620667	552.900000
777.657227	557.200000
777.693848	559.000000
777.730469	578.900000
777.767029	564.100000
777.803650	567.500000
777.840271	563.000000
777.876831	563.200000
777.913452	569.600000
777.950012	549.900000
777.986633	552.500000
778.023193	549.100000
778.059753	552.000000
778.096375	552.900000
778.132996	567.700000
778.169556	557.700000
778.206116	558.300000
778.242737	554.400000
778.279297	563.300000
778.315857	551.200000
778.352478	558.900000
778.389038	570.700000
778.425598	569.400000
778.462219	576.100000
778.498718	572.000000
778.535339	580.000000
778.571838	579.400000
778.608459	583.700000
778.645020	575.000000
778.681580	588.200000
778.718140	585.700000
778.754761	582.400000
778.791260	584.300000
778.827881	599.400000
778.864441	596.200000
778.900940	600.900000
778.937561	600.500000
778.974121	599.200000
779.010620	584.000000
779.047241	590.300000
779.083801	600.800000
779.120300	596.600000
779.156860	600.800000
779.193359	597.100000
779.229980	598.700000
779.266541	601.900000
779.303040	601.700000
779.339600	594.800000
779.376160	587.400000
779.412659	593.400000
779.449219	586.600000
779.485779	589.000000
779.522278	590.400000
779.558838	594.900000
779.595398	596.800000
779.631897	596.700000
779.668457	589.500000
779.705017	601.000000
779.741516	592.700000
779.778076	586.300000
779.814575	590.800000
779.851074	599.300000
779.887634	596.600000
779.924133	606.400000
779.960693	592.400000
779.997253	602.500000
780.033691	604.500000
780.070251	606.300000
780.106812	618.700000
780.143250	618.200000
780.179810	614.100000
780.216370	613.200000
780.252808	616.900000
780.289368	625.100000
780.325867	621.400000
780.362366	618.800000
780.398865	630.400000
780.435364	621.600000
780.471863	635.400000
780.508423	632.600000
780.544861	634.800000
780.581421	636.400000
780.617920	627.800000
780.654419	623.800000
780.690918	631.000000
780.727417	640.300000
780.763916	636.300000
780.800415	645.100000
780.836914	632.600000
780.873352	640.900000
780.909912	630.600000
780.946411	639.000000
780.982849	646.300000
781.019348	659.000000
781.055786	652.400000
781.092346	648.000000
781.128845	655.900000
781.165283	658.000000
781.201782	669.300000
781.238281	672.100000
781.274719	678.800000
781.311218	670.800000
781.347717	680.700000
781.384155	668.300000
781.420654	669.800000
781.457092	680.700000
781.493591	675.600000
781.530090	673.000000
781.566528	674.200000
781.602966	676.500000
781.639465	673.800000
781.675903	667.600000
781.712402	677.800000
781.748901	680.200000
781.785278	672.200000
781.821777	678.600000
781.858276	679.500000
781.894714	692.100000
781.931152	687.800000
781.967651	699.500000
782.004089	693.800000
782.040527	704.000000
782.076965	707.400000
782.113403	707.800000
782.149902	715.500000
782.186340	704.400000
782.222778	721.400000
782.259277	711.300000
782.295654	708.700000
782.332092	715.900000
782.368591	717.500000
782.404968	712.800000
782.441467	721.500000
782.477905	720.300000
782.514282	714.100000
782.550781	726.900000
782.587219	729.900000
782.623596	737.000000
782.660095	736.300000
782.696472	745.300000
782.732910	748.400000
782.769348	747.300000
782.805786	764.300000
782.842224	764.200000
782.878662	758.300000
782.915039	764.700000
782.951477	766.700000
782.987915	759.600000
783.024292	771.300000
783.060730	772.700000
783.097168	765.000000
783.133545	758.600000
783.169983	756.000000
783.206421	747.100000
783.242798	744.500000
783.279236	737.500000
783.315613	732.800000
783.352051	736.600000
783.388489	728.800000
783.424866	718.000000
783.461304	725.400000
783.497681	734.900000
783.534058	734.700000
783.570496	734.200000
783.606934	727.200000
783.643250	732.000000
783.679687	743.700000
783.716125	733.600000
783.752441	747.500000
783.788879	764.700000
783.825317	773.500000
783.861633	779.200000
783.898071	782.300000
783.934448	793.600000
783.970825	805.000000
784.007263	808.800000
784.043579	811.400000
784.080017	818.900000
784.116394	814.700000
784.152710	812.200000
784.189148	816.700000
784.225525	818.800000
784.261902	805.400000
784.298279	801.000000
784.334656	799.700000
784.371033	787.400000
784.407410	791.400000
784.443787	775.600000
784.480164	761.500000
784.516541	749.500000
784.552856	751.200000
784.589233	744.300000
784.625610	740.900000
784.661987	768.100000
784.698364	758.700000
784.734741	755.500000
784.771057	756.000000
784.807434	763.800000
784.843811	777.800000
784.880127	778.300000
784.916504	805.400000
784.952881	806.900000
784.989197	803.600000
785.025574	802.300000
785.061951	811.300000
785.098267	831.700000
785.134644	827.800000
785.170959	817.100000
785.207275	825.300000
785.243652	816.900000
785.279968	790.700000
785.316345	773.100000
785.352722	745.200000
785.388977	707.700000
785.425354	660.900000
785.461731	627.500000
785.498047	625.100000
785.534363	636.600000
785.570679	665.600000
785.606995	695.800000
785.643372	728.700000
785.679687	741.900000
785.716003	742.400000
785.752380	742.300000
785.788635	754.000000
785.825012	773.500000
785.861328	788.600000
785.897644	778.100000
785.933960	796.500000
785.970337	803.200000
786.006592	817.100000
786.042908	822.100000
786.079285	828.900000
786.115540	838.100000
786.151855	833.600000
786.188171	833.200000
786.224487	830.500000
786.260803	822.800000
786.297119	836.700000
786.333435	827.700000
786.369751	822.900000
786.406006	821.800000
786.442322	798.900000
786.478638	788.800000
786.514954	803.300000
786.551270	802.100000
786.587585	816.600000
786.623840	804.700000
786.660156	796.800000
786.696472	787.000000
786.732727	778.600000
786.769043	784.300000
786.805298	776.600000
786.841614	783.400000
786.877930	794.200000
786.914124	780.500000
786.950439	800.100000
786.986755	811.200000
787.023010	824.500000
787.059326	835.400000
787.095642	835.300000
787.131836	849.200000
787.168152	841.200000
787.204468	850.500000
787.240723	856.600000
787.276978	868.500000
787.313293	872.600000
787.349548	869.400000
787.385803	865.100000
787.422058	856.900000
787.458313	850.800000
787.494629	846.400000
787.530823	843.500000
787.567139	835.000000
787.603455	826.500000
787.639648	814.700000
787.675903	819.700000
787.712219	819.100000
787.748413	819.000000
787.784729	832.400000
787.820984	817.200000
787.857178	812.100000
787.893494	813.300000
787.929749	810.200000
787.965942	819.100000
788.002258	834.700000
788.038452	847.100000
788.074707	838.300000
788.110962	851.500000
788.147217	851.000000
788.183472	860.000000
788.219727	871.700000
788.255920	891.900000
788.292175	897.900000
788.328430	897.700000
788.364624	885.300000
788.400879	880.200000
788.437134	882.500000
788.473328	881.000000
788.509583	883.400000
788.545837	881.200000
788.582031	877.800000
788.618286	870.500000
788.654480	863.100000
788.690735	873.900000
788.726990	893.200000
788.763184	897.100000
788.799377	905.500000
788.835632	897.800000
788.871826	913.000000
788.908081	909.100000
788.944336	900.100000
788.980469	915.200000
789.016724	911.000000
789.052979	910.200000
789.089111	896.200000
789.125366	904.600000
789.161621	887.400000
789.197754	906.000000
789.234009	898.900000
789.270142	895.700000
789.306396	887.700000
789.342590	879.800000
789.378784	853.200000
789.414978	856.600000
789.451233	872.400000
789.487366	869.000000
789.523621	877.900000
789.559814	870.900000
789.595947	866.000000
789.632202	874.800000
789.668335	880.400000
789.704529	897.100000
789.740784	917.400000
789.776917	918.000000
789.813110	913.000000
789.849304	926.500000
789.885498	924.600000
789.921692	939.300000
789.957886	952.000000
789.994019	955.500000
790.030212	959.000000
790.066406	960.600000
790.102539	957.100000
790.138733	964.100000
790.174927	960.300000
790.211060	975.600000
790.247253	965.300000
790.283386	954.800000
790.319580	943.800000
790.355774	923.200000
790.391907	924.900000
790.428101	943.500000
790.464294	942.700000
790.500427	944.800000
790.536621	922.500000
790.572754	899.100000
790.608887	900.000000
790.645081	903.300000
790.681274	922.900000
790.717346	929.400000
790.753540	918.600000
790.789734	890.500000
790.825867	881.400000
790.862000	880.700000
790.898132	893.400000
790.934265	890.700000
790.970459	896.800000
791.006592	897.800000
791.042725	899.300000
791.078918	889.000000
791.114990	888.600000
791.151184	888.600000
791.187317	911.500000
791.223389	906.000000
791.259583	890.800000
791.295715	895.500000
791.331848	893.100000
791.367981	901.600000
791.404114	907.800000
791.440247	909.500000
791.476379	915.900000
791.512451	895.500000
791.548584	892.500000
791.584778	882.100000
791.620850	907.100000
791.656982	918.900000
791.693115	912.000000
791.729187	913.300000
791.765381	909.900000
791.801514	912.200000
791.837585	915.200000
791.873718	919.300000
791.909851	942.600000
791.945923	942.600000
791.982056	908.700000
792.018188	903.100000
792.054260	902.100000
792.090393	896.700000
792.126465	892.200000
792.162598	903.000000
792.198669	896.400000
792.234741	888.500000
792.270874	876.500000
792.307007	859.900000
792.343079	864.500000
792.379150	874.500000
792.415283	859.800000
792.451355	865.600000
792.487488	839.500000
792.523560	840.200000
792.559631	822.500000
792.595764	790.600000
792.631836	756.700000
792.667908	749.700000
792.703979	737.200000
792.740051	754.800000
792.776184	778.200000
792.812256	784.100000
792.848328	797.000000
792.884399	805.700000
792.920471	809.200000
792.956543	811.600000
792.992615	808.800000
793.028748	805.400000
793.064758	809.700000
793.100830	828.700000
793.136963	843.000000
793.172974	844.500000
793.209045	834.600000
793.245178	845.500000
793.281189	825.700000
793.317261	833.600000
793.353271	836.200000
793.389404	849.600000
793.425476	840.500000
793.461487	830.200000
793.497559	823.900000
793.533630	827.100000
793.569641	817.100000
793.605713	822.100000
793.641785	829.500000
793.677795	845.400000
793.713867	832.000000
793.749878	835.700000
793.785950	845.800000
793.822021	849.700000
793.858032	835.700000
793.894104	850.700000
793.930176	837.700000
793.966187	837.900000
794.002258	831.600000
794.038269	834.900000
794.074280	832.000000
794.110352	863.400000
794.146423	845.500000
794.182373	841.800000
794.218445	836.600000
794.254517	830.200000
794.290466	817.500000
794.326538	824.400000
794.362549	825.000000
794.398560	830.600000
794.434631	837.900000
794.470581	817.900000
794.506653	813.500000
794.542664	817.600000
794.578674	816.700000
794.614685	822.900000
794.650757	820.000000
794.686707	815.800000
794.722778	810.000000
794.758789	818.500000
794.794739	820.300000
794.830811	846.600000
794.866821	865.500000
794.902771	862.700000
794.938843	858.000000
794.974792	858.600000
795.010803	859.500000
795.046814	858.000000
795.082825	846.900000
795.118835	861.000000
795.154846	839.900000
795.190796	841.600000
795.226807	821.900000
795.262817	823.800000
795.298767	825.400000
795.334778	830.500000
795.370850	825.200000
795.406799	832.600000
795.442810	815.600000
795.478821	817.300000
795.514709	819.700000
795.550720	838.600000
795.586670	817.200000
795.622681	826.300000
795.658691	823.100000
795.694641	819.900000
795.730652	810.000000
795.766663	822.600000
795.802551	822.600000
795.838562	844.000000
795.874573	828.500000
795.910522	827.500000
795.946472	817.600000
795.982483	820.100000
796.018433	819.800000
796.054382	833.100000
796.090393	828.600000
796.126282	823.500000
796.162292	817.200000
796.198242	810.900000
796.234192	806.900000
796.270203	803.400000
796.306091	805.100000
796.342041	820.100000
796.378052	810.000000
796.413940	807.500000
796.449951	811.500000
796.485901	810.300000
796.521790	814.500000
796.557800	830.500000
796.593689	830.800000
796.629639	820.500000
796.665649	820.100000
796.701599	812.800000
796.737488	806.600000
796.773437	812.600000
796.809387	815.200000
796.845337	822.200000
796.881287	810.700000
796.917175	795.100000
796.953125	793.800000
796.989075	801.400000
797.024963	808.500000
797.060913	804.300000
797.096863	803.900000
797.132751	798.800000
797.168701	783.100000
797.204590	787.900000
797.240540	790.900000
797.276489	800.200000
797.312439	805.200000
797.348328	800.600000
797.384277	794.400000
797.420166	785.700000
797.456055	782.500000
797.492004	779.300000
797.527893	784.400000
797.563843	786.800000
797.599731	777.500000
797.635620	767.800000
797.671570	783.500000
797.707520	780.000000
797.743347	779.300000
797.779297	784.800000
797.815125	781.700000
797.851074	775.300000
797.887024	763.300000
797.922913	752.000000
797.958801	764.600000
797.994690	756.500000
798.030579	766.200000
798.066467	771.900000
798.102356	763.200000
798.138245	754.900000
798.174133	750.900000
798.210083	759.600000
798.245911	768.500000
798.281799	767.100000
798.317749	764.300000
798.353577	758.300000
798.389465	753.900000
798.425293	749.400000
798.461243	750.800000
798.497131	759.000000
798.532959	762.400000
798.568848	769.500000
798.604736	758.200000
798.640564	743.600000
798.676453	743.600000
798.712402	745.400000
798.748230	753.400000
798.784119	750.500000
798.820007	752.500000
798.855835	745.600000
798.891724	739.100000
798.927551	735.900000
798.963379	746.900000
798.999268	736.000000
799.035095	734.900000
799.070984	727.600000
799.106873	714.300000
799.142700	722.000000
799.178528	714.200000
799.214417	714.300000
799.250244	730.300000
799.286133	720.900000
799.321960	717.900000
799.357788	713.200000
799.393677	710.400000
799.429504	707.000000
799.465332	707.100000
799.501221	718.600000
799.537048	715.500000
799.572876	703.400000
799.608704	705.700000
799.644531	713.300000
799.680359	712.400000
799.716248	721.500000
799.752014	726.200000
799.787903	716.500000
799.823730	714.700000
799.859558	708.500000
799.895386	710.900000
799.931213	716.300000
799.967041	705.100000
800.002869	707.600000
800.038696	724.800000
800.074463	705.000000
800.110352	703.500000
800.146179	695.400000
800.181946	699.700000
800.217773	706.800000
800.253540	703.200000
800.289429	700.200000
800.325256	689.100000
800.361023	679.300000
800.396851	689.200000
800.432678	693.800000
800.468445	695.300000
800.504272	694.300000
800.540100	680.700000
800.575867	675.600000
800.611694	683.600000
800.647461	678.000000
800.683289	680.700000
800.719116	686.000000
800.754883	682.700000
800.790649	669.500000
800.826477	662.000000
800.862244	681.100000
800.898071	665.900000
800.933838	665.200000
800.969604	664.300000
801.005432	669.200000
801.041199	665.400000
801.076965	658.300000
801.112793	651.100000
801.148560	643.000000
801.184326	646.400000
801.220154	649.900000
801.255859	642.400000
801.291687	645.700000
801.327454	636.500000
801.363281	638.900000
801.398987	635.700000
801.434814	639.100000
801.470520	646.700000
801.506287	635.900000
801.542114	631.600000
801.577820	628.400000
801.613647	628.300000
801.649414	625.800000
801.685120	632.100000
801.720886	633.900000
801.756714	626.400000
801.792419	616.600000
801.828186	611.400000
801.863892	616.900000
801.899719	612.400000
801.935486	611.900000
801.971252	620.700000
802.006958	613.200000
802.042725	609.400000
802.078430	607.700000
802.114197	605.600000
802.149963	625.100000
802.185669	612.700000
802.221436	606.100000
802.257202	613.300000
802.292908	603.200000
802.328674	613.400000
802.364441	613.000000
802.400146	612.800000
802.435913	610.400000
802.471558	606.900000
802.507324	605.200000
802.543091	598.700000
802.578796	606.100000
802.614502	608.700000
802.650269	611.700000
802.685974	598.000000
802.721741	605.000000
802.757446	605.300000
802.793152	604.600000
802.828918	613.000000
802.864624	608.800000
802.900330	612.400000
802.936035	607.900000
802.971802	600.800000
803.007446	598.700000
803.043213	589.700000
803.078857	602.500000
803.114624	587.900000
803.150330	591.000000
803.185974	585.000000
803.221741	587.500000
803.257446	597.100000
803.293152	599.500000
803.328857	593.400000
803.364563	590.400000
803.400208	582.800000
803.435974	590.600000
803.471680	581.000000
803.507324	578.000000
803.543030	588.200000
803.578735	591.600000
803.614441	582.800000
803.650146	596.100000
803.685791	581.500000
803.721497	584.700000
803.757202	573.200000
803.792847	582.700000
803.828552	573.200000
803.864258	573.800000
803.899902	571.300000
803.935608	556.600000
803.971313	559.800000
804.006958	559.300000
804.042664	556.800000
804.078308	563.300000
804.113953	555.000000
804.149658	562.700000
804.185364	548.500000
804.221008	560.000000
804.256714	550.300000
804.292297	549.000000
804.328003	548.200000
804.363708	543.900000
804.399292	546.200000
804.434998	545.800000
804.470703	534.600000
804.506287	548.600000
804.541992	542.500000
804.577637	546.300000
804.613281	530.800000
804.648926	530.400000
804.684570	529.600000
804.720215	529.000000
804.755920	526.800000
804.791565	525.700000
804.827209	528.000000
804.862854	523.900000
804.898437	519.800000
804.934143	520.900000
804.969788	521.600000
805.005371	520.800000
805.041077	520.200000
805.076721	521.300000
805.112305	511.000000
805.147949	510.400000
805.183655	505.000000
805.219238	513.000000
805.254883	511.100000
805.290466	518.200000
805.326111	509.100000
805.361755	500.300000
805.397400	503.800000
805.432983	505.700000
805.468628	505.500000
805.504211	509.800000
805.539856	507.500000
805.575500	509.900000
805.611084	503.500000
805.646729	490.200000
805.682373	494.400000
805.717957	501.900000
805.753601	503.900000
805.789246	487.900000
805.824768	498.600000
805.860413	501.000000
805.895996	491.300000
805.931641	488.300000
805.967224	495.200000
806.002869	489.900000
806.038452	500.500000
806.074036	500.600000
806.109619	486.500000
806.145264	483.000000
806.180847	483.900000
806.216431	482.200000
806.252014	488.800000
806.287659	486.300000
806.323181	495.300000
806.358826	484.900000
806.394409	470.300000
806.429993	475.000000
806.465576	487.800000
806.501160	473.700000
806.536743	467.800000
806.572327	477.600000
806.607910	473.700000
806.643494	472.000000
806.679077	467.000000
806.714661	469.200000
806.750244	468.900000
806.785828	465.300000
806.821350	466.300000
806.856934	471.800000
806.892517	465.600000
806.928101	459.900000
806.963684	462.100000
806.999268	470.900000
807.034790	450.900000
807.070374	456.700000
807.105896	452.600000
807.141479	449.700000
807.177063	457.900000
807.212585	449.400000
807.248169	449.400000
807.283752	455.100000
807.319275	445.800000
807.354858	449.400000
807.390381	447.200000
807.425903	444.800000
807.461487	441.500000
807.497070	436.500000
807.532593	440.200000
807.568115	438.300000
807.603699	432.900000
807.639221	430.200000
807.674744	433.800000
807.710266	439.700000
807.745850	445.000000
807.781372	436.900000
807.816895	433.300000
807.852417	435.600000
807.888000	435.500000
807.923523	428.100000
807.959045	433.500000
807.994629	422.300000
808.030090	423.500000
808.065613	429.800000
808.101135	430.100000
808.136658	428.200000
808.172241	425.900000
808.207764	427.400000
808.243225	419.700000
808.278809	418.300000
808.314270	422.300000
808.349792	411.600000
808.385315	411.400000
808.420837	416.400000
808.456360	423.500000
808.491882	421.300000
808.527344	417.600000
808.562866	429.000000
808.598389	419.600000
808.633850	412.700000
808.669434	412.000000
808.704895	417.200000
808.740417	423.700000
808.775940	414.700000
808.811462	409.300000
808.846924	405.300000
808.882385	400.800000
808.917847	404.900000
808.953369	404.900000
808.988892	401.900000
809.024353	410.200000
809.059875	407.700000
809.095398	405.300000
809.130798	396.700000
809.166321	397.900000
809.201843	398.700000
809.237305	399.300000
809.272766	407.200000
809.308228	393.100000
809.343750	394.500000
809.379211	399.300000
809.414734	396.100000
809.450134	403.800000
809.485657	385.600000
809.521118	391.500000
809.556580	388.900000
809.592102	389.000000
809.627502	384.800000
809.663025	385.400000
809.698486	381.600000
809.733887	379.200000
809.769409	383.000000
809.804871	373.100000
809.840271	376.600000
809.875793	378.500000
809.911194	381.300000
809.946655	373.100000
809.982178	369.500000
810.017639	375.200000
810.053040	373.900000
810.088501	371.900000
810.123901	371.800000
810.159424	368.500000
810.194885	363.500000
810.230286	370.600000
810.265747	363.200000
810.301208	359.800000
810.336609	366.000000
810.372070	356.600000
810.407532	360.300000
810.442932	364.000000
810.478394	368.200000
810.513794	361.900000
810.549255	358.900000
810.584717	354.900000
810.620117	350.400000
810.655518	358.000000
810.690979	357.200000
810.726379	356.500000
810.761841	342.800000
810.797302	344.500000
810.832642	342.200000
810.868103	352.600000
810.903564	344.400000
810.938904	352.100000
810.974365	338.800000
811.009827	346.800000
811.045166	339.400000
811.080627	331.400000
811.115967	337.500000
811.151428	345.600000
811.186829	336.600000
811.222229	337.100000
811.257629	329.800000
811.293091	335.900000
811.328430	345.000000
811.363892	339.100000
811.399292	338.600000
811.434631	334.200000
811.470093	336.800000
811.505493	330.500000
811.540833	329.100000
811.576294	333.700000
811.611694	328.800000
811.647034	325.000000
811.682434	328.000000
811.717773	330.000000
811.753235	337.500000
811.788635	329.800000
811.823975	330.800000
811.859375	338.600000
811.894775	322.100000
811.930115	325.200000
811.965515	326.800000
812.000916	327.300000
812.036255	322.900000
812.071655	326.600000
812.106995	321.900000
812.142395	322.500000
812.177795	330.300000
812.213196	326.500000
812.248474	325.100000
812.283875	319.000000
812.319214	321.500000
812.354614	320.700000
812.390015	315.300000
812.425293	318.900000
812.460693	318.000000
812.496094	315.400000
812.531433	309.800000
812.566772	312.000000
812.602173	313.100000
812.637451	314.300000
812.672852	309.000000
812.708191	314.300000
812.743530	306.300000
812.778931	301.100000
812.814270	303.900000
812.849609	311.200000
812.884949	306.600000
812.920227	299.000000
812.955627	312.900000
812.990967	307.200000
813.026306	300.000000
813.061646	291.900000
813.096985	288.600000
813.132324	286.400000
813.167664	291.100000
813.203003	297.200000
813.238281	283.900000
813.273682	286.100000
813.308960	282.100000
813.344299	286.500000
813.379639	293.300000
813.414978	287.400000
813.450256	284.300000
813.485596	290.300000
813.520874	281.500000
813.556213	283.300000
813.591614	287.800000
813.626831	277.900000
813.662170	283.800000
813.697510	293.800000
813.732788	277.300000
813.768127	283.200000
813.803467	282.000000
813.838745	277.300000
813.874084	281.700000
813.909363	279.900000
813.944641	281.300000
813.979980	269.900000
814.015320	274.700000
814.050598	272.300000
814.085876	276.100000
814.121155	272.100000
814.156494	271.800000
814.191772	273.900000
814.227051	269.200000
814.262390	270.300000
814.297668	271.200000
814.332947	273.400000
814.368225	263.900000
814.403564	268.500000
814.438782	266.700000
814.474121	266.200000
814.509338	263.600000
814.544617	271.800000
814.579956	262.000000
814.615173	274.000000
814.650513	270.600000
814.685791	264.400000
814.721008	267.600000
814.756348	267.100000
814.791626	262.200000
814.826843	263.800000
814.862122	262.900000
814.897400	258.800000
814.932678	261.300000
814.967957	260.900000
815.003235	259.800000
815.038452	255.000000
815.073730	256.600000
815.108948	262.800000
815.144226	261.000000
815.179504	266.300000
815.214722	251.500000
815.250000	251.200000
815.285278	258.100000
815.320496	252.600000
815.355774	255.700000
815.391052	257.000000
815.426270	253.900000
815.461487	250.800000
815.496765	248.300000
815.531982	244.600000
815.567261	251.300000
815.602539	258.400000
815.637695	251.500000
815.672974	252.400000
815.708191	255.300000
815.743408	256.300000
815.778687	249.000000
815.813904	259.100000
815.849121	241.900000
815.884399	245.000000
815.919556	242.300000
815.954834	244.000000
815.990051	249.000000
816.025269	251.800000
816.060486	241.800000
816.095703	241.500000
816.130920	244.600000
816.166199	240.600000
816.201416	242.900000
816.236572	250.300000
816.271851	241.800000
816.307007	247.300000
816.342224	237.000000
816.377441	241.300000
816.412659	233.400000
816.447876	244.800000
816.483093	237.600000
816.518250	239.100000
816.553467	236.300000
816.588745	242.600000
816.623901	233.200000
816.659119	229.000000
816.694275	233.600000
816.729492	231.900000
816.764709	267.400000
816.799927	228.700000
816.835083	233.700000
816.870300	226.800000
816.905457	231.000000
816.940674	234.500000
816.975830	227.500000
817.010986	226.100000
817.046204	227.400000
817.081421	223.100000
817.116577	224.600000
817.151733	233.000000
817.186951	232.000000
817.222107	228.700000
817.257324	231.100000
817.292419	229.000000
817.327637	220.400000
817.362854	225.700000
817.398010	221.000000
817.433167	221.700000
817.468323	221.200000
817.503479	223.100000
817.538635	231.500000
817.573853	224.300000
817.608948	223.000000
817.644165	220.000000
817.679321	218.700000
817.714478	217.600000
817.749634	221.000000
817.784790	232.100000
817.819946	228.600000
817.855103	210.300000
817.890198	220.700000
817.925415	213.000000
817.960571	221.000000
817.995667	218.900000
818.030823	221.900000
818.066040	214.900000
818.101135	219.000000
818.136292	216.800000
818.171448	212.800000
818.206543	213.900000
818.241699	219.300000
818.276855	215.700000
818.311951	214.700000
818.347107	210.600000
818.382263	220.500000
818.417358	222.300000
818.452515	221.800000
818.487610	221.900000
818.522766	212.200000
818.557922	222.400000
818.593018	218.100000
818.628113	214.800000
818.663269	209.800000
818.698364	214.200000
818.733521	210.900000
818.768677	215.100000
818.803711	207.300000
818.838867	209.900000
818.874023	210.600000
818.909058	207.000000
818.944214	207.300000
818.979370	213.000000
819.014404	209.500000
819.049561	207.700000
819.084595	213.300000
819.119751	202.300000
819.154846	211.400000
819.189941	207.500000
819.225037	205.100000
819.260193	198.900000
819.295227	200.400000
819.330322	197.300000
819.365479	196.400000
819.400513	231.400000
819.435608	196.700000
819.470764	194.000000
819.505798	197.500000
819.540894	201.000000
819.575989	198.400000
819.611084	207.400000
819.646179	208.400000
819.681213	203.800000
819.716309	199.500000
819.751404	200.500000
819.786438	205.400000
819.821533	196.600000
819.856628	200.200000
819.891663	204.200000
819.926758	210.200000
819.961853	207.200000
819.996887	197.000000
820.031982	203.700000
820.067017	197.400000
820.102112	228.300000
820.137207	195.700000
820.172302	212.700000
820.207275	196.000000
820.242371	195.100000
820.277405	195.300000
820.312500	199.300000
820.347534	200.200000
820.382568	203.900000
820.417664	195.100000
820.452759	196.000000
820.487732	193.800000
820.522827	195.500000
820.557861	191.800000
820.592896	195.500000
820.627930	195.900000
820.662964	193.600000
820.698059	197.200000
820.733093	193.800000
820.768127	200.000000
820.803162	196.800000
820.838196	193.500000
820.873230	197.500000
820.908264	195.500000
820.943298	192.400000
820.978333	199.400000
821.013367	196.900000
821.048401	200.100000
821.083435	201.000000
821.118469	186.700000
821.153503	200.300000
821.188477	196.200000
821.223511	188.300000
821.258484	194.300000
821.293579	194.900000
821.328613	188.200000
821.363647	193.300000
821.398621	189.200000
821.433655	191.200000
821.468628	206.200000
821.503662	192.200000
821.538696	197.000000
821.573669	189.000000
821.608704	197.300000
821.643677	190.800000
821.678650	198.400000
821.713684	201.500000
821.748718	193.400000
821.783691	192.800000
821.818726	196.200000
821.853638	195.700000
821.888672	193.000000
821.923706	193.200000
821.958618	190.600000
821.993652	191.200000
822.028687	199.000000
822.063599	201.300000
822.098633	194.900000
822.133667	188.600000
822.168579	193.500000
822.203613	195.800000
822.238586	189.200000
822.273560	196.300000
822.308533	188.900000
822.343567	189.700000
822.378479	191.700000
822.413452	190.100000
822.448425	188.400000
822.483398	196.300000
822.518372	198.200000
822.553345	189.000000
822.588318	201.000000
822.623291	190.800000
822.658203	190.500000
822.693237	192.000000
822.728210	188.500000
822.763123	194.700000
822.798096	188.500000
822.833069	192.400000
822.867981	192.500000
822.902954	194.200000
822.937927	193.700000
822.972900	202.800000
823.007874	184.900000
823.042725	195.100000
823.077698	203.500000
823.112671	187.100000
823.147583	189.200000
823.182556	195.900000
823.217529	195.200000
823.252441	190.700000
823.287415	204.000000
823.322388	195.200000
823.357239	192.200000
823.392212	200.300000
823.427185	195.200000
823.462097	187.900000
823.497009	194.200000
823.531982	190.400000
823.566895	191.900000
823.601807	189.600000
823.636719	188.900000
823.671631	196.700000
823.706604	189.300000
823.741455	195.700000
823.776428	185.700000
823.811340	196.900000
823.846252	198.200000
823.881165	199.500000
823.916138	194.100000
823.950989	201.300000
823.985901	189.600000
824.020813	193.100000
824.055725	191.600000
824.090637	185.100000
824.125610	192.400000
824.160461	194.400000
824.195374	194.100000
824.230225	197.400000
824.265198	185.800000
824.300110	189.100000
824.334961	202.500000
824.369873	182.800000
824.404785	194.700000
824.439636	199.000000
824.474548	184.900000
824.509460	182.600000
824.544312	196.600000
824.579224	192.800000
824.614075	195.300000
824.648987	190.600000
824.683899	190.200000
824.718811	188.500000
824.753662	198.700000
824.788574	195.600000
824.823364	192.400000
824.858276	188.100000
824.893188	196.100000
824.928040	197.500000
824.962952	194.600000
824.997803	195.300000
825.032654	191.400000
825.067566	194.900000
825.102417	189.100000
825.137268	189.100000
825.172119	191.300000
825.206970	187.400000
825.241882	189.700000
825.276733	188.200000
825.311646	188.300000
825.346436	184.700000
825.381348	185.200000
825.416138	189.800000
825.450989	186.600000
825.485901	181.700000
825.520691	182.900000
825.555542	183.300000
825.590454	190.200000
825.625244	181.300000
825.660095	196.400000
825.695007	193.800000
825.729797	189.100000
825.764648	186.000000
825.799438	190.400000
825.834290	188.300000
825.869202	182.100000
825.903992	191.200000
825.938843	185.800000
825.973694	183.400000
826.008484	200.400000
826.043335	185.100000
826.078186	179.900000
826.112976	194.800000
826.147827	194.000000
826.182678	195.600000
826.217468	181.000000
826.252319	192.400000
826.287109	183.000000
826.321899	196.100000
826.356750	187.100000
826.391541	184.200000
826.426392	193.000000
826.461182	185.500000
826.495972	182.500000
826.530823	178.900000
826.565613	188.300000
826.600403	182.400000
826.635254	189.200000
826.670044	178.300000
826.704834	179.700000
826.739685	182.900000
826.774475	189.200000
826.809265	187.500000
826.844055	183.600000
826.878906	194.100000
826.913635	188.500000
826.948425	191.400000
826.983215	189.400000
827.018005	191.900000
827.052856	185.600000
827.087585	192.100000
827.122375	178.900000
827.157227	186.500000
827.191956	198.100000
827.226746	184.100000
827.261536	189.800000
827.296265	181.000000
827.331116	183.900000
827.365906	191.000000
827.400635	183.000000
827.435425	179.000000
827.470215	192.700000
827.504944	185.800000
827.539734	190.400000
827.574463	187.200000
827.609253	192.800000
827.644043	187.100000
827.678772	191.200000
827.713562	185.300000
827.748352	185.000000
827.783081	183.900000
827.817871	187.400000
827.852600	182.100000
827.887329	186.800000
827.922119	177.200000
827.956848	189.000000
827.991638	200.300000
828.026367	187.300000
828.061157	187.100000
828.095886	186.800000
828.130615	201.000000
828.165344	177.100000
828.200073	187.200000
828.234863	184.400000
828.269592	187.700000
828.304321	192.600000
828.339111	187.400000
828.373779	183.400000
828.408569	191.500000
828.443298	190.600000
828.477966	184.900000
828.512756	188.600000
828.547424	181.800000
828.582214	185.200000
828.616943	185.900000
828.651672	185.600000
828.686340	191.000000
828.721130	184.300000
828.755798	185.500000
828.790527	187.200000
828.825256	186.100000
828.859924	187.100000
828.894714	192.500000
828.929443	195.400000
828.964111	182.700000
828.998840	189.600000
829.033569	182.300000
829.068237	184.600000
829.102966	182.600000
829.137634	188.700000
829.172363	187.600000
829.207092	188.200000
829.241821	182.300000
829.276489	179.800000
829.311157	187.900000
829.345825	184.500000
829.380554	190.200000
829.415283	182.600000
829.449951	179.900000
829.484619	194.200000
829.519348	193.300000
829.554016	186.000000
829.588745	186.100000
829.623413	179.500000
829.658081	197.100000
829.692749	179.400000
829.727417	191.200000
829.762146	187.900000
829.796814	182.600000
829.831482	184.900000
829.866150	187.300000
829.900879	184.400000
829.935486	189.200000
829.970154	184.200000
830.004883	195.900000
830.039490	187.300000
830.074219	184.000000
830.108887	187.500000
830.143494	186.400000
830.178223	181.600000
830.212891	184.900000
830.247498	186.400000
830.282166	193.500000
830.316772	193.500000
830.351501	182.800000
830.386169	185.300000
830.420776	185.100000
830.455444	185.300000
830.490112	184.000000
830.524719	179.100000
830.559387	188.600000
830.594055	188.800000
830.628662	186.300000
830.663330	185.400000
830.697998	195.900000
830.732605	186.000000
830.767273	188.900000
830.801941	186.000000
830.836487	194.900000
830.871155	187.100000
830.905762	189.200000
830.940430	178.300000
830.975098	183.200000
831.009644	187.700000
831.044312	194.600000
831.078979	187.500000
831.113525	178.600000
831.148193	186.200000
831.182861	184.000000
831.217407	190.500000
831.252075	202.700000
831.286621	183.300000
831.321289	182.200000
831.355896	185.900000
831.390564	194.300000
831.425110	187.500000
831.459778	192.500000
831.494324	197.800000
831.528931	189.900000
831.563599	190.800000
831.598145	179.800000
831.632751	186.700000
831.667419	185.700000
831.701965	189.400000
831.736572	190.800000
831.771179	180.400000
831.805786	183.800000
831.840393	192.600000
831.874939	179.300000
831.909546	191.400000
831.944153	179.700000
831.978760	186.100000
832.013306	182.700000
832.047913	192.800000
832.082458	194.700000
832.117065	183.600000
832.151672	195.700000
832.186218	186.900000
832.220825	189.200000
832.255432	178.500000
832.289978	184.000000
832.324585	188.900000
832.359192	188.100000
832.393677	185.200000
832.428284	187.000000
832.462830	185.500000
832.497437	184.400000
832.531982	190.600000
832.566589	183.800000
832.601135	187.500000
832.635681	179.200000
832.670227	187.400000
832.704773	193.500000
832.739380	188.400000
832.773926	187.500000
832.808472	182.500000
832.843079	187.100000
832.877563	190.000000
832.912170	182.600000
832.946716	179.700000
832.981201	191.800000
833.015808	189.400000
833.050293	185.700000
833.084839	181.600000
833.119446	185.000000
833.153992	189.900000
833.188477	186.000000
833.223022	181.900000
833.257568	189.800000
833.292114	193.400000
833.326660	196.700000
833.361145	183.700000
833.395691	179.300000
833.430237	185.200000
833.464783	190.000000
833.499329	183.200000
833.533875	181.300000
833.568359	189.000000
833.602905	192.600000
833.637390	192.300000
833.671875	184.400000
833.706421	186.400000
833.740906	182.600000
833.775452	176.000000
833.809998	183.600000
833.844482	194.500000
833.879028	186.300000
833.913513	181.600000
833.947998	188.500000
833.982544	182.800000
834.017090	183.700000
834.051514	176.300000
834.086060	188.600000
834.120544	186.100000
834.155029	189.000000
834.189575	183.200000
834.223999	188.700000
834.258545	186.800000
834.293030	186.900000
834.327515	186.700000
834.362000	183.900000
834.396545	188.800000
834.430969	184.900000
834.465454	191.100000
834.500000	178.700000
834.534424	188.400000
834.568970	177.500000
834.603455	178.500000
834.637878	183.200000
834.672363	185.400000
834.706909	187.000000
834.741333	185.200000
834.775818	179.200000
834.810242	181.500000
834.844727	186.200000
834.879211	184.100000
834.913635	188.400000
834.948181	188.600000
834.982666	186.700000
835.017090	185.400000
835.051575	188.800000
835.086060	182.900000
835.120483	190.800000
835.154907	190.800000
835.189331	186.300000
835.223816	190.500000
835.258301	182.300000
835.292786	181.400000
835.327209	191.100000
835.361694	182.700000
835.396057	183.500000
835.430542	189.100000
835.465027	187.200000
835.499390	180.800000
835.533875	206.300000
835.568359	184.800000
835.602722	180.100000
835.637207	187.500000
835.671692	179.700000
835.706055	203.200000
835.740540	188.300000
835.774902	189.800000
835.809387	187.200000
835.843811	181.400000
835.878235	192.600000
835.912659	180.200000
835.947083	182.900000
835.981506	186.200000
836.015930	178.900000
836.050354	191.700000
836.084778	195.200000
836.119202	192.000000
836.153625	198.600000
836.187988	183.400000
836.222473	183.100000
836.256897	186.600000
836.291260	185.700000
836.325684	187.700000
836.360046	183.500000
836.394470	185.500000
836.428894	192.400000
836.463318	184.000000
836.497681	189.900000
836.532104	193.100000
836.566467	187.700000
836.600891	185.500000
836.635315	191.400000
836.669678	189.900000
836.704102	190.000000
836.738525	186.700000
836.772888	178.600000
836.807251	183.600000
836.841675	188.400000
836.876038	183.300000
836.910461	183.400000
836.944763	190.300000
836.979187	181.900000
837.013611	192.600000
837.047974	181.200000
837.082336	198.900000
837.116699	189.500000
837.151062	186.300000
837.185486	179.900000
837.219849	183.800000
837.254211	188.800000
837.288574	187.200000
837.322937	181.900000
837.357300	174.900000
837.391663	199.600000
837.426086	191.900000
837.460388	186.500000
837.494751	192.000000
837.529114	184.500000
837.563477	192.200000
837.597839	189.400000
837.632141	186.100000
837.666565	183.200000
837.700928	188.400000
837.735229	190.300000
837.769592	187.700000
837.803955	191.700000
837.838257	184.100000
837.872620	184.500000
837.906982	193.300000
837.941284	186.300000
837.975647	186.400000
838.010010	193.500000
838.044312	183.700000
838.078674	185.300000
838.112976	186.500000
838.147339	192.000000
838.181702	185.400000
838.216003	196.600000
838.250366	187.200000
838.284668	189.700000
838.318970	178.700000
838.353333	185.900000
838.387634	184.600000
838.421936	187.300000
838.456299	187.200000
838.490601	194.200000
838.524902	191.300000
838.559265	192.600000
838.593567	189.700000
838.627869	180.900000
838.662170	188.200000
838.696472	180.400000
838.730774	183.800000
838.765137	190.600000
838.799377	174.300000
838.833740	187.600000
838.868042	193.100000
838.902283	178.400000
838.936646	192.500000
838.970947	189.000000
839.005188	191.800000
839.039551	180.500000
839.073792	193.900000
839.108093	184.400000
839.142395	195.200000
839.176697	178.400000
839.210937	188.300000
839.245300	197.600000
839.279541	180.900000
839.313843	183.900000
839.348145	191.800000
839.382385	191.800000
839.416687	192.900000
839.450989	187.500000
839.485229	184.600000
839.519531	181.900000
839.553833	192.900000
839.588013	186.500000
839.622314	187.700000
839.656555	187.800000
839.690857	187.200000
839.725159	180.900000
839.759460	186.100000
839.793640	183.800000
839.827942	186.800000
839.862183	182.400000
839.896423	188.300000
839.930725	195.500000
839.964966	193.900000
839.999207	192.300000
840.033508	194.900000
840.067688	184.600000
840.101990	195.400000
840.136230	186.000000
840.170471	194.600000
840.204712	183.000000
840.238953	182.400000
840.273193	188.000000
840.307434	190.900000
840.341736	183.500000
840.375916	180.700000
840.410217	183.800000
840.444397	191.200000
840.478638	189.800000
840.512878	192.500000
840.547119	186.400000
840.581360	189.800000
840.615601	197.000000
840.649780	196.800000
840.684021	186.200000
840.718262	195.700000
840.752441	193.600000
840.786682	187.100000
840.820862	189.500000
840.855103	195.500000
840.889343	187.300000
840.923584	191.300000
840.957764	189.700000
840.992004	189.400000
841.026184	200.700000
841.060425	184.600000
841.094666	184.300000
841.128845	190.700000
841.163025	189.400000
841.197266	190.100000
841.231445	188.700000
841.265686	187.900000
841.299866	181.400000
841.334045	195.100000
841.368286	186.400000
841.402405	194.500000
841.436646	192.500000
841.470825	184.000000
841.505005	185.900000
841.539185	182.800000
841.573425	185.200000
841.607544	188.100000
841.641785	187.800000
841.675964	182.600000
841.710144	186.600000
841.744324	184.400000
841.778503	185.300000
841.812683	182.100000
841.846863	196.200000
841.881042	193.600000
841.915222	183.400000
841.949402	201.000000
841.983521	179.800000
842.017700	185.600000
842.051880	188.600000
842.086060	189.800000
842.120239	187.800000
842.154419	184.200000
842.188538	188.200000
842.222717	183.700000
842.256897	198.200000
842.291016	185.200000
842.325195	189.500000
842.359375	199.200000
842.393494	195.100000
842.427673	188.400000
842.461853	190.000000
842.495911	194.600000
842.530090	189.600000
842.564209	186.900000
842.598389	188.500000
842.632568	187.800000
842.666626	191.100000
842.700806	184.000000
842.734985	184.700000
842.769043	190.500000
842.803223	185.900000
842.837402	185.900000
842.871460	184.100000
842.905640	196.500000
842.939697	182.800000
842.973877	187.500000
843.007996	192.100000
843.042175	197.600000
843.076233	186.000000
843.110413	189.800000
843.144470	196.900000
843.178589	191.000000
843.212769	184.500000
843.246826	192.000000
843.280945	185.000000
843.315125	185.600000
843.349182	182.900000
843.383301	194.000000
843.417419	199.600000
843.451538	187.800000
843.485657	185.900000
843.519714	186.100000
843.553833	188.600000
843.587952	185.500000
843.622070	183.700000
843.656128	190.200000
843.690247	186.000000
843.724304	185.800000
843.758423	187.700000
843.792542	186.400000
843.826599	186.500000
843.860718	185.000000
843.894836	181.800000
843.928894	187.900000
843.963013	190.600000
843.997070	184.200000
844.031128	181.400000
844.065247	192.900000
844.099304	192.400000
844.133362	189.300000
844.167480	190.800000
844.201599	193.700000
844.235596	189.500000
844.269714	189.400000
844.303711	190.000000
844.337830	179.700000
844.371948	191.300000
844.405945	187.200000
844.440063	183.100000
844.474121	201.000000
844.508118	187.400000
844.542236	187.000000
844.576294	187.900000
844.610352	181.300000
844.644409	187.800000
844.678406	179.200000
844.712524	192.200000
844.746582	194.300000
844.780640	187.500000
844.814636	188.400000
844.848755	199.800000
844.882751	186.600000
844.916809	193.200000
844.950867	187.900000
844.984863	196.400000
845.018921	187.500000
845.052979	185.500000
845.086975	187.300000
845.121033	181.400000
845.155090	182.600000
845.189087	194.000000
845.223145	183.600000
845.257141	187.600000
845.291199	190.200000
845.325256	194.900000
845.359253	189.100000
845.393250	198.500000
845.427307	187.400000
845.461304	188.900000
845.495361	188.600000
845.529358	199.500000
845.563354	186.000000
845.597412	184.400000
845.631409	196.200000
845.665405	195.100000
845.699463	192.600000
845.733459	186.600000
845.767456	196.000000
845.801453	187.600000
845.835449	195.000000
845.869446	192.200000
845.903503	192.800000
845.937439	183.600000
845.971497	195.100000
846.005493	182.300000
846.039429	192.100000
846.073486	198.200000
846.107483	187.800000
846.141418	186.600000
846.175476	189.100000
846.209473	194.300000
846.243408	185.700000
846.277405	189.100000
846.311401	183.900000
846.345337	188.200000
846.379395	192.100000
846.413330	183.600000
846.447327	197.200000
846.481323	183.800000
846.515259	185.200000
846.549255	188.500000
846.583252	190.200000
846.617187	182.500000
846.651184	191.100000
846.685120	186.400000
846.719055	197.600000
846.753052	193.400000
846.786987	193.200000
846.820984	181.500000
846.854980	195.900000
846.888916	183.100000
846.922852	191.400000
846.956848	197.100000
846.990723	184.100000
847.024719	188.200000
847.058716	187.100000
847.092590	195.200000
847.126587	188.900000
847.160522	186.000000
847.194458	192.000000
847.228455	185.400000
847.262390	184.100000
847.296265	187.000000
847.330261	194.000000
847.364136	186.600000
847.398132	184.700000
847.432068	188.300000
847.466003	186.600000
847.499939	186.200000
847.533875	190.200000
847.567749	185.900000
847.601746	187.300000
847.635681	192.200000
847.669556	179.900000
847.703491	193.800000
847.737427	202.800000
847.771301	184.100000
847.805237	190.200000
847.839233	187.500000
847.873108	187.700000
847.907043	186.600000
847.940918	193.500000
847.974854	189.300000
848.008789	191.300000
848.042664	187.500000
848.076538	190.100000
848.110474	188.500000
848.144348	189.100000
848.178284	182.000000
848.212219	188.500000
848.246094	186.600000
848.279968	189.500000
848.313904	192.300000
848.347778	188.300000
848.381653	187.100000
848.415588	183.800000
848.449463	186.300000
848.483337	190.000000
848.517212	193.700000
848.551086	189.100000
848.585022	184.700000
848.618835	197.800000
848.652771	186.200000
848.686646	183.500000
848.720520	196.000000
848.754395	186.600000
848.788330	193.800000
848.822144	193.500000
848.856018	186.700000
848.889954	198.400000
848.923767	184.200000
848.957642	184.800000
848.991577	192.200000
849.025391	185.800000
849.059265	187.600000
849.093079	184.800000
849.126953	182.500000
849.160828	194.800000
849.194641	190.400000
849.228577	186.500000
849.262451	187.600000
849.296265	187.000000
849.330139	183.100000
849.364014	189.800000
849.397827	191.400000
849.431702	188.900000
849.465515	193.800000
849.499329	180.400000
849.533203	183.600000
849.567078	178.300000
849.600891	190.800000
849.634766	188.600000
849.668518	192.100000
849.702393	188.600000
849.736267	181.200000
849.770020	199.300000
849.803894	191.700000
849.837769	188.700000
849.871521	188.300000
849.905396	194.100000
849.939270	182.700000
849.973022	185.400000
850.006897	192.100000
850.040710	191.900000
850.074524	191.700000
850.108337	188.300000
850.142151	191.600000
850.175964	196.200000
850.209778	188.600000
850.243530	176.700000
850.277405	192.800000
850.311218	188.900000
850.344971	184.300000
850.378845	195.700000
850.412659	185.400000
850.446411	189.200000
850.480225	188.000000
850.514038	194.800000
850.547791	190.200000
850.581665	188.400000
850.615417	186.100000
850.649231	188.700000
850.683044	188.500000
850.716858	187.800000
850.750610	188.000000
850.784424	192.800000
850.818176	184.100000
850.851929	186.200000
850.885742	185.800000
850.919495	188.200000
850.953308	194.700000
850.987122	195.900000
851.020874	184.600000
851.054626	182.200000
851.088440	192.200000
851.122192	192.700000
851.156006	188.100000
851.189697	187.900000
851.223511	182.600000
851.257263	193.000000
851.291077	191.400000
851.324829	187.600000
851.358582	186.000000
851.392334	186.600000
851.426086	187.700000
851.459900	196.500000
851.493591	189.100000
851.527344	188.000000
851.561157	188.600000
851.594849	189.600000
851.628662	190.100000
851.662415	196.100000
851.696106	191.700000
851.729858	193.500000
851.763611	182.200000
851.797363	189.800000
851.831116	183.700000
851.864868	192.200000
851.898560	192.900000
851.932312	185.300000
851.966064	189.400000
851.999817	188.100000
852.033569	186.700000
852.067261	192.200000
852.101013	185.400000
852.134766	187.000000
852.168457	178.400000
852.202209	192.000000
852.235901	184.800000
852.269592	192.000000
852.303345	197.400000
852.337036	191.100000
852.370789	188.100000
852.404541	193.000000
852.438171	186.300000
852.471924	188.300000
852.505676	183.000000
852.539307	189.900000
852.573059	186.200000
852.606812	187.100000
852.640442	187.800000
852.674194	194.300000
852.707886	198.900000
852.741577	196.500000
852.775269	184.000000
852.809021	189.700000
852.842651	191.100000
852.876404	193.500000
852.910034	189.000000
852.943787	193.500000
852.977478	192.200000
853.011108	186.700000
853.044861	185.600000
853.078552	196.500000
853.112183	191.600000
853.145874	190.000000
853.179626	179.000000
853.213257	189.800000
853.246948	185.500000
853.280640	197.400000
853.314270	187.200000
853.347961	196.100000
853.381653	189.700000
853.415283	193.700000
853.448975	183.800000
853.482605	190.800000
853.516296	188.500000
853.549988	182.900000
853.583618	189.300000
853.617310	191.700000
853.651001	189.400000
853.684631	184.600000
853.718323	184.500000
853.751953	195.800000
853.785583	179.600000
853.819275	191.200000
853.852966	189.600000
853.886536	178.900000
853.920227	182.400000
853.953918	194.600000
853.987488	186.100000
854.021179	193.000000
854.054749	196.100000
854.088440	191.400000
854.122131	184.200000
854.155701	191.800000
854.189331	184.000000
854.223022	192.700000
854.256592	189.800000
854.290283	184.800000
854.323914	191.900000
854.357483	190.500000
854.391174	190.800000
854.424744	198.600000
854.458374	189.500000
854.492065	199.200000
854.525696	186.700000
854.559265	194.800000
854.592896	199.900000
854.626465	187.100000
854.660095	188.700000
854.693787	191.000000
854.727356	186.600000
854.760986	192.300000
854.794617	191.200000
854.828186	185.300000
854.861816	192.600000
854.895447	189.300000
854.929016	191.100000
854.962585	190.800000
854.996155	196.400000
855.029785	189.500000
855.063416	191.800000
855.097046	193.000000
855.130615	183.400000
855.164185	194.100000
855.197754	188.800000
855.231384	190.800000
855.264954	188.200000
855.298523	191.000000
855.332153	189.500000
855.365723	197.600000
855.399292	185.500000
855.432922	186.100000
855.466492	190.300000
855.500061	185.500000
855.533630	185.700000
855.567200	190.500000
855.600769	192.500000
855.634338	192.900000
855.667969	189.400000
855.701477	184.400000
855.735046	185.600000
855.768616	180.700000
855.802185	191.500000
855.835754	203.500000
855.869324	182.000000
855.902893	187.400000
855.936401	195.700000
855.969971	190.200000
856.003540	182.600000
856.037109	193.600000
856.070618	189.200000
856.104187	182.800000
856.137695	186.300000
856.171265	180.200000
856.204834	189.700000
856.238403	194.000000
856.271912	187.000000
856.305481	190.100000
856.338989	181.000000
856.372559	191.500000
856.406128	191.400000
856.439636	193.900000
856.473145	186.600000
856.506653	196.000000
856.540222	189.300000
856.573792	196.200000
856.607300	192.100000
856.640808	183.200000
856.674377	189.100000
856.707825	218.700000
856.741394	192.600000
856.774902	184.900000
856.808472	180.300000
856.841980	193.200000
856.875488	194.400000
856.908936	182.100000
856.942505	186.800000
856.976013	189.600000
857.009521	183.300000
857.043030	189.100000
857.076477	187.500000
857.110046	194.800000
857.143555	189.600000
857.177063	193.400000
857.210571	186.000000
857.244080	182.700000
857.277527	191.300000
857.311035	188.100000
857.344543	192.500000
857.378052	188.800000
857.411499	194.800000
857.445068	197.900000
857.478516	187.800000
857.512024	182.600000
857.545532	187.700000
857.578979	191.700000
857.612427	187.900000
857.645874	185.000000
857.679382	190.800000
857.712891	193.600000
857.746399	188.500000
857.779846	193.800000
857.813354	193.800000
857.846741	188.400000
857.880249	184.700000
857.913757	190.700000
857.947266	190.900000
857.980652	192.400000
858.014160	186.800000
858.047546	188.100000
858.081055	187.700000
858.114563	198.200000
858.147949	183.600000
858.181458	192.300000
858.214844	186.600000
858.248352	179.300000
858.281799	194.400000
858.315308	202.200000
858.348694	193.200000
858.382141	196.800000
858.415588	192.500000
858.449036	193.900000
858.482483	191.300000
858.515930	185.600000
858.549377	188.400000
858.582825	195.400000
858.616211	192.700000
858.649658	190.700000
858.683105	184.700000
858.716553	185.000000
858.750000	183.100000
858.783386	185.500000
858.816833	181.800000
858.850281	190.500000
858.883728	191.500000
858.917114	189.000000
858.950562	198.500000
858.983948	196.700000
859.017395	192.400000
859.050781	186.700000
859.084167	184.800000
859.117615	182.400000
859.151062	191.700000
859.184448	185.600000
859.217834	187.200000
859.251282	186.800000
859.284668	184.200000
859.318054	180.200000
859.351440	186.700000
859.384888	197.300000
859.418274	180.800000
859.451721	180.600000
859.485046	191.400000
859.518494	189.100000
859.551819	183.800000
859.585266	191.500000
859.618652	191.200000
859.652039	182.100000
859.685425	183.900000
859.718811	181.400000
859.752197	177.200000
859.785583	195.400000
859.819031	196.800000
859.852356	190.600000
859.885742	185.400000
859.919067	187.700000
859.952454	185.500000
859.985901	193.300000
860.019287	185.700000
860.052612	0.000000
860.085999	0.000000
860.119324	0.000000
860.152710	0.000000
860.186096	0.000000
860.219421	0.000000
860.252808	0.000000
860.286133	0.000000
860.319519	0.000000
860.352905	0.000000
860.386292	0.000000
860.419617	0.000000
860.452942	0.000000
860.486267	0.000000
860.519653	0.000000
860.553040	0.000000
860.586365	0.000000
860.619690	0.000000
860.653076	0.000000
860.686340	0.000000
860.719727	0.000000
860.753113	0.000000
860.786377	0.000000
860.819763	0.000000
860.853027	0.000000
860.886414	0.000000
860.919739	0.000000
860.953125	0.000000
860.986389	0.000000
861.019714	0.000000
861.053040	0.000000
861.086365	0.000000
861.119690	0.000000
861.153076	0.000000
861.186340	0.000000
861.219666	0.000000
861.252930	0.000000
861.286316	0.000000
861.319641	0.000000
861.352905	0.000000
861.386230	0.000000
861.419495	0.000000
861.452820	0.000000
861.486145	0.000000
861.519470	0.000000
861.552734	0.000000
861.586060	0.000000
861.619324	0.000000
861.652649	0.000000
861.685974	0.000000
861.719238	0.000000
861.752563	0.000000
861.785828	0.000000
861.819092	0.000000
861.852417	0.000000
861.885742	0.000000
861.918945	0.000000
861.952271	0.000000
861.985535	0.000000
862.018799	0.000000
862.052124	0.000000
862.085449	0.000000
862.118652	0.000000
862.151978	0.000000
862.185181	0.000000
862.218506	0.000000
862.251770	0.000000
862.285034	0.000000
862.318298	0.000000
862.351562	0.000000
862.384827	0.000000
862.418091	0.000000
862.451355	0.000000
862.484619	0.000000
862.517883	0.000000
862.551086	0.000000
862.584351	0.000000
862.617676	0.000000
862.650940	0.000000
862.684143	0.000000
862.717407	0.000000
862.750610	0.000000
862.783875	0.000000
862.817139	0.000000
862.850342	0.000000
862.883606	0.000000
862.916870	0.000000
862.950073	0.000000
862.983337	0.000000
863.016602	0.000000
863.049805	0.000000
863.083069	0.000000
863.116211	0.000000
863.149475	0.000000
863.182739	0.000000
863.216003	0.000000
863.249146	0.000000
863.282410	0.000000
863.315613	0.000000
863.348816	0.000000
863.382080	0.000000
863.415222	0.000000
863.448486	0.000000
863.481689	0.000000
863.514893	0.000000
863.548157	0.000000
863.581360	0.000000
863.614502	0.000000
863.647766	0.000000
863.680908	0.000000
863.714172	0.000000
863.747375	0.000000
863.780579	0.000000
863.813721	0.000000
863.846985	0.000000
863.880127	0.000000
863.913330	0.000000
863.946533	0.000000
863.979675	0.000000
864.012939	0.000000
