Model Number: SPM-001-M   
Serial Number: 10090201
Firmware Version: 004.17.6
Exposure Time: 500000.000000us
Data Taken on: 03-03-2021 10:15:37.659
Wavelength	Amplitude
733.770752	0.000000
733.808716	0.000000
733.846619	0.000000
733.884583	0.000000
733.922546	0.000000
733.960449	0.000000
733.998413	0.000000
734.036377	0.000000
734.074219	0.000000
734.112183	0.000000
734.150085	0.000000
734.188049	0.000000
734.226013	0.000000
734.263916	0.000000
734.301819	0.000000
734.339783	0.000000
734.377686	0.000000
734.415588	0.000000
734.453552	0.000000
734.491455	0.000000
734.529419	0.000000
734.567322	0.000000
734.605225	0.000000
734.643127	0.000000
734.681091	0.000000
734.718994	0.000000
734.756897	0.000000
734.794800	0.000000
734.832703	0.000000
734.870667	0.000000
734.908508	0.000000
734.946472	0.000000
734.984375	0.000000
735.022278	0.000000
735.060181	0.000000
735.098083	0.000000
735.135986	0.000000
735.173889	0.000000
735.211792	0.000000
735.249695	0.000000
735.287598	0.000000
735.325439	0.000000
735.363403	0.000000
735.401306	0.000000
735.439148	0.000000
735.477051	0.000000
735.515015	0.000000
735.552856	0.000000
735.590759	0.000000
735.628662	0.000000
735.666504	0.000000
735.704407	0.000000
735.742310	0.000000
735.780212	0.000000
735.818115	0.000000
735.856018	0.000000
735.893860	0.000000
735.931763	0.000000
735.969604	0.000000
736.007507	0.000000
736.045410	0.000000
736.083252	0.000000
736.121094	0.000000
736.158997	0.000000
736.196838	0.000000
736.234741	0.000000
736.272644	0.000000
736.310486	0.000000
736.348389	0.000000
736.386230	0.000000
736.424072	0.000000
736.461975	0.000000
736.499878	0.000000
736.537720	0.000000
736.575562	0.000000
736.613403	0.000000
736.651306	0.000000
736.689148	0.000000
736.726990	0.000000
736.764893	0.000000
736.802734	0.000000
736.840576	0.000000
736.878418	0.000000
736.916321	0.000000
736.954102	0.000000
736.992004	0.000000
737.029846	0.000000
737.067688	0.000000
737.105530	0.000000
737.143372	0.000000
737.181213	0.000000
737.219116	0.000000
737.256897	0.000000
737.294739	0.000000
737.332642	0.000000
737.370422	0.000000
737.408325	0.000000
737.446167	0.000000
737.483948	0.000000
737.521790	0.000000
737.559692	0.000000
737.597473	0.000000
737.635315	0.000000
737.673157	0.000000
737.710999	0.000000
737.748840	0.000000
737.786621	0.000000
737.824463	0.000000
737.862305	0.000000
737.900085	0.000000
737.937927	0.000000
737.975769	0.000000
738.013550	0.000000
738.051392	0.000000
738.089233	0.000000
738.127014	0.000000
738.164856	0.000000
738.202698	0.000000
738.240479	0.000000
738.278320	0.000000
738.316162	0.000000
738.353943	0.000000
738.391785	0.000000
738.429565	0.000000
738.467407	0.000000
738.505188	0.000000
738.542969	0.000000
738.580811	0.000000
738.618652	0.000000
738.656372	0.000000
738.694214	0.000000
738.732056	0.000000
738.769836	0.000000
738.807617	0.000000
738.845459	0.000000
738.883240	0.000000
738.921021	0.000000
738.958862	0.000000
738.996582	0.000000
739.034424	0.000000
739.072205	0.000000
739.109985	0.000000
739.147827	0.000000
739.185547	0.000000
739.223389	0.000000
739.261169	0.000000
739.298889	0.000000
739.336731	0.000000
739.374512	0.000000
739.412292	0.000000
739.450073	0.000000
739.487854	0.000000
739.525635	0.000000
739.563416	0.000000
739.601135	0.000000
739.638977	0.000000
739.676758	0.000000
739.714478	0.000000
739.752258	0.000000
739.790100	0.000000
739.827820	0.000000
739.865601	0.000000
739.903381	0.000000
739.941101	0.000000
739.978882	190.200000
740.016724	187.700000
740.054443	190.800000
740.092224	184.000000
740.130005	182.200000
740.167725	185.200000
740.205505	182.100000
740.243225	194.700000
740.281006	188.300000
740.318787	180.000000
740.356506	193.000000
740.394287	191.800000
740.432068	182.700000
740.469727	181.200000
740.507507	189.100000
740.545288	187.500000
740.583008	189.800000
740.620789	188.100000
740.658569	178.700000
740.696228	186.200000
740.734009	192.400000
740.771790	177.700000
740.809509	191.200000
740.847229	183.400000
740.884949	183.800000
740.922729	180.900000
740.960449	184.600000
740.998169	183.000000
741.035950	183.100000
741.073669	188.200000
741.111389	186.800000
741.149170	197.400000
741.186890	198.000000
741.224609	191.200000
741.262329	188.000000
741.300110	195.300000
741.337769	182.400000
741.375549	180.300000
741.413208	187.300000
741.450989	183.400000
741.488708	185.100000
741.526367	185.400000
741.564148	190.900000
741.601868	190.400000
741.639526	186.600000
741.677307	188.000000
741.715027	191.300000
741.752686	182.400000
741.790466	194.600000
741.828186	189.400000
741.865845	183.000000
741.903564	178.800000
741.941345	187.900000
741.979004	183.000000
742.016724	190.400000
742.054382	187.100000
742.092102	194.200000
742.129822	181.100000
742.167480	185.900000
742.205200	185.000000
742.242920	189.700000
742.280640	192.300000
742.318359	184.400000
742.356079	184.400000
742.393738	192.100000
742.431396	186.200000
742.469116	191.600000
742.506775	177.700000
742.544495	190.800000
742.582214	190.700000
742.619873	186.400000
742.657593	194.700000
742.695251	192.200000
742.732971	185.800000
742.770630	188.200000
742.808289	186.900000
742.846008	187.400000
742.883728	190.200000
742.921326	187.800000
742.959045	185.000000
742.996765	187.000000
743.034424	186.700000
743.072083	184.900000
743.109802	188.200000
743.147400	179.900000
743.185120	189.100000
743.222839	187.600000
743.260437	193.900000
743.298157	188.400000
743.335754	179.400000
743.373474	185.400000
743.411133	180.100000
743.448792	187.200000
743.486450	187.700000
743.524170	178.900000
743.561768	187.500000
743.599487	192.000000
743.637146	199.100000
743.674744	185.100000
743.712463	186.300000
743.750122	185.700000
743.787720	190.900000
743.825439	182.300000
743.863037	185.400000
743.900696	186.300000
743.938416	214.200000
743.976013	185.900000
744.013672	195.700000
744.051331	190.100000
744.088928	197.400000
744.126587	192.900000
744.164307	187.900000
744.201904	182.800000
744.239563	190.300000
744.277222	188.200000
744.314819	186.900000
744.352478	194.000000
744.390137	189.700000
744.427734	190.100000
744.465393	186.100000
744.502991	183.600000
744.540649	190.500000
744.578308	188.400000
744.615906	182.100000
744.653564	176.600000
744.691223	190.100000
744.728821	179.800000
744.766418	186.600000
744.804077	189.100000
744.841675	185.300000
744.879333	181.500000
744.916992	187.700000
744.954529	185.300000
744.992187	191.300000
745.029785	187.300000
745.067444	183.600000
745.105042	188.800000
745.142639	189.700000
745.180298	197.300000
745.217896	185.900000
745.255493	186.300000
745.293152	191.700000
745.330750	190.500000
745.368347	195.300000
745.405945	190.500000
745.443604	187.500000
745.481140	191.300000
745.518799	184.400000
745.556396	192.100000
745.593994	191.000000
745.631592	186.900000
745.669189	182.500000
745.706787	189.300000
745.744385	183.000000
745.781982	188.900000
745.819580	184.600000
745.857178	187.100000
745.894775	187.000000
745.932373	189.600000
745.969971	188.500000
746.007568	179.900000
746.045166	196.500000
746.082764	194.100000
746.120300	190.500000
746.157898	192.200000
746.195557	186.700000
746.233093	182.000000
746.270691	190.500000
746.308228	189.100000
746.345825	192.500000
746.383423	191.000000
746.420959	182.500000
746.458557	185.800000
746.496155	184.100000
746.533691	188.300000
746.571289	182.600000
746.608887	188.300000
746.646423	188.800000
746.684021	188.400000
746.721619	186.100000
746.759155	189.400000
746.796753	180.900000
746.834351	180.600000
746.871826	183.100000
746.909424	194.100000
746.946960	189.900000
746.984558	186.700000
747.022156	186.200000
747.059631	194.000000
747.097229	190.400000
747.134827	186.300000
747.172363	194.500000
747.209900	190.300000
747.247498	182.800000
747.285034	193.900000
747.322571	195.000000
747.360168	186.400000
747.397644	181.200000
747.435242	190.000000
747.472778	195.000000
747.510315	184.300000
747.547913	185.200000
747.585388	193.000000
747.622925	186.900000
747.660522	178.400000
747.697998	185.300000
747.735596	185.900000
747.773132	184.600000
747.810669	186.900000
747.848206	192.100000
747.885742	182.100000
747.923279	182.600000
747.960815	190.100000
747.998352	189.800000
748.035889	189.800000
748.073425	191.700000
748.110901	184.100000
748.148437	183.800000
748.185974	187.400000
748.223511	197.500000
748.261047	189.200000
748.298584	189.100000
748.336060	186.600000
748.373596	191.500000
748.411133	207.200000
748.448608	185.200000
748.486145	191.700000
748.523682	195.800000
748.561218	192.300000
748.598755	187.500000
748.636292	190.900000
748.673706	185.900000
748.711243	194.700000
748.748718	188.800000
748.786255	186.400000
748.823792	188.200000
748.861267	182.100000
748.898804	189.600000
748.936340	188.800000
748.973816	185.000000
749.011292	193.100000
749.048828	189.400000
749.086304	192.800000
749.123840	197.800000
749.161316	183.000000
749.198792	196.900000
749.236328	194.400000
749.273743	187.800000
749.311279	187.100000
749.348816	190.800000
749.386230	188.100000
749.423767	175.700000
749.461304	192.000000
749.498718	188.500000
749.536255	195.600000
749.573730	198.400000
749.611206	194.500000
749.648682	186.400000
749.686218	187.400000
749.723633	190.400000
749.761169	186.900000
749.798645	182.600000
749.836060	187.200000
749.873596	183.500000
749.911011	189.500000
749.948547	192.400000
749.986023	190.100000
750.023437	187.100000
750.060913	180.900000
750.098450	180.500000
750.135864	187.400000
750.173340	186.600000
750.210815	192.700000
750.248291	181.400000
750.285767	189.100000
750.323242	195.000000
750.360657	190.500000
750.398132	182.900000
750.435608	190.300000
750.473022	184.100000
750.510498	184.500000
750.547974	183.800000
750.585449	186.800000
750.622925	177.600000
750.660339	196.800000
750.697815	187.600000
750.735291	187.600000
750.772644	188.500000
750.810120	188.800000
750.847595	191.400000
750.885010	182.300000
750.922485	196.000000
750.959961	185.300000
750.997375	195.000000
751.034851	191.200000
751.072266	193.700000
751.109680	179.300000
751.147156	193.600000
751.184570	189.900000
751.221985	187.600000
751.259460	179.500000
751.296875	188.000000
751.334290	187.900000
751.371765	191.700000
751.409180	190.900000
751.446594	193.800000
751.484070	190.400000
751.521423	191.000000
751.558899	189.400000
751.596375	196.000000
751.633728	194.200000
751.671204	199.900000
751.708618	181.800000
751.746033	190.000000
751.783447	181.000000
751.820801	184.000000
751.858276	191.200000
751.895691	187.400000
751.933105	184.700000
751.970520	184.900000
752.007935	185.200000
752.045349	192.000000
752.082764	188.400000
752.120178	187.100000
752.157532	183.500000
752.195007	186.300000
752.232422	190.400000
752.269775	193.500000
752.307190	191.000000
752.344543	182.800000
752.382019	186.600000
752.419434	185.400000
752.456787	189.700000
752.494202	193.100000
752.531616	189.800000
752.568970	193.100000
752.606384	188.100000
752.643799	189.400000
752.681152	197.000000
752.718567	190.900000
752.755981	180.400000
752.793335	190.200000
752.830750	179.200000
752.868164	192.500000
752.905518	183.500000
752.942932	191.600000
752.980225	183.300000
753.017639	191.600000
753.055054	186.000000
753.092407	189.000000
753.129822	193.600000
753.167175	198.000000
753.204529	186.800000
753.241943	184.000000
753.279358	183.000000
753.316650	190.900000
753.354065	191.200000
753.391479	191.400000
753.428772	198.100000
753.466187	190.500000
753.503479	182.700000
753.540894	186.400000
753.578308	183.500000
753.615601	181.600000
753.653015	188.500000
753.690369	184.900000
753.727722	184.700000
753.765076	181.000000
753.802490	183.000000
753.839783	179.300000
753.877136	185.700000
753.914551	201.600000
753.951843	183.800000
753.989258	191.300000
754.026611	188.300000
754.063904	189.300000
754.101257	184.400000
754.138611	179.800000
754.175964	188.400000
754.213318	200.000000
754.250610	182.200000
754.288025	184.300000
754.325378	182.000000
754.362671	192.600000
754.400024	186.200000
754.437378	196.900000
754.474670	198.900000
754.512085	184.800000
754.549438	187.800000
754.586731	186.800000
754.624084	186.200000
754.661438	183.900000
754.698730	196.100000
754.736084	186.100000
754.773376	186.900000
754.810730	191.300000
754.848083	185.700000
754.885315	192.400000
754.922668	179.600000
754.960022	184.300000
754.997314	190.800000
755.034668	188.900000
755.072021	188.200000
755.109253	185.300000
755.146606	194.700000
755.183960	186.000000
755.221252	195.300000
755.258545	193.000000
755.295898	192.300000
755.333191	193.600000
755.370544	190.300000
755.407776	187.200000
755.445129	187.500000
755.482422	191.200000
755.519714	185.200000
755.557068	180.700000
755.594360	180.100000
755.631653	192.400000
755.668945	194.000000
755.706299	189.200000
755.743530	199.000000
755.780884	196.900000
755.818176	193.500000
755.855408	194.300000
755.892761	189.900000
755.930054	190.000000
755.967346	189.300000
756.004639	190.900000
756.041870	188.300000
756.079224	194.500000
756.116516	184.700000
756.153748	193.200000
756.191040	195.800000
756.228394	191.700000
756.265625	183.500000
756.302917	189.300000
756.340210	185.600000
756.377441	193.300000
756.414795	195.200000
756.452087	189.000000
756.489319	183.300000
756.526611	191.300000
756.563843	189.700000
756.601135	198.700000
756.638428	198.100000
756.675659	189.200000
756.712952	194.200000
756.750244	191.000000
756.787476	191.400000
756.824768	196.100000
756.862061	189.600000
756.899292	237.100000
756.936584	194.000000
756.973816	198.800000
757.011047	203.700000
757.048340	190.100000
757.085632	190.900000
757.122864	205.100000
757.160156	188.800000
757.197327	192.700000
757.234619	195.100000
757.271912	188.800000
757.309082	196.400000
757.346375	185.900000
757.383667	198.600000
757.420837	192.400000
757.458130	191.100000
757.495422	190.100000
757.532593	194.000000
757.569885	182.800000
757.607117	189.000000
757.644348	192.600000
757.681580	206.000000
757.718811	181.400000
757.756042	192.300000
757.793335	188.300000
757.830505	195.200000
757.867798	188.600000
757.905029	187.900000
757.942200	192.800000
757.979492	188.400000
758.016724	190.700000
758.053894	190.300000
758.091187	209.700000
758.128418	193.500000
758.165588	191.800000
758.202820	205.100000
758.240112	190.300000
758.277283	202.500000
758.314514	194.600000
758.351685	191.100000
758.388916	202.200000
758.426147	200.300000
758.463379	202.800000
758.500610	196.400000
758.537842	195.200000
758.575012	200.300000
758.612244	189.700000
758.649475	206.800000
758.686646	187.200000
758.723877	200.700000
758.761108	202.900000
758.798279	192.200000
758.835510	197.300000
758.872742	201.400000
758.909851	198.300000
758.947083	199.400000
758.984253	196.700000
759.021484	201.100000
759.058716	201.100000
759.095886	199.800000
759.133057	195.600000
759.170288	199.800000
759.207458	194.200000
759.244690	208.300000
759.281860	205.900000
759.319031	196.500000
759.356262	195.800000
759.393433	195.900000
759.430603	198.600000
759.467773	196.800000
759.505005	203.900000
759.542175	203.800000
759.579346	196.400000
759.616516	198.500000
759.653687	202.600000
759.690918	194.800000
759.728027	201.200000
759.765259	200.200000
759.802429	203.300000
759.839539	203.100000
759.876770	207.800000
759.913940	210.500000
759.951111	201.700000
759.988281	202.700000
760.025452	198.300000
760.062561	196.800000
760.099792	210.100000
760.136963	204.000000
760.174072	199.700000
760.211243	196.200000
760.248413	197.100000
760.285583	196.600000
760.322754	211.900000
760.359863	208.200000
760.397034	208.300000
760.434204	200.400000
760.471375	202.400000
760.508545	199.800000
760.545715	200.900000
760.582825	197.700000
760.619995	206.400000
760.657166	195.700000
760.694275	208.000000
760.731445	204.800000
760.768555	205.400000
760.805664	207.200000
760.842834	203.200000
760.879944	206.100000
760.917114	205.000000
760.954285	204.100000
760.991394	196.300000
761.028564	209.000000
761.065674	206.400000
761.102783	199.300000
761.139954	207.300000
761.177124	209.200000
761.214172	210.800000
761.251343	203.700000
761.288452	203.900000
761.325562	207.700000
761.362732	202.200000
761.399841	204.300000
761.436951	205.700000
761.474121	202.300000
761.511169	206.100000
761.548340	209.300000
761.585449	208.500000
761.622559	210.700000
761.659668	205.400000
761.696838	213.500000
761.733887	208.900000
761.771057	205.400000
761.808167	206.300000
761.845276	210.200000
761.882385	219.800000
761.919434	207.600000
761.956604	226.000000
761.993713	204.700000
762.030762	216.000000
762.067871	208.300000
762.105042	207.900000
762.142090	217.300000
762.179199	211.400000
762.216309	215.300000
762.253418	225.800000
762.290527	218.700000
762.327637	215.500000
762.364685	203.500000
762.401794	214.900000
762.438904	214.700000
762.475952	209.900000
762.513062	206.300000
762.550110	208.300000
762.587219	222.600000
762.624329	220.600000
762.661377	215.700000
762.698486	214.000000
762.735596	213.800000
762.772644	208.600000
762.809753	205.800000
762.846863	214.100000
762.883911	218.200000
762.921021	217.000000
762.958069	214.000000
762.995117	222.700000
763.032227	221.500000
763.069336	214.900000
763.106323	210.100000
763.143433	211.200000
763.180481	217.500000
763.217590	219.000000
763.254639	213.500000
763.291687	216.500000
763.328735	222.800000
763.365845	216.700000
763.402893	214.100000
763.439941	217.600000
763.477051	221.000000
763.514038	222.100000
763.551147	216.000000
763.588196	220.300000
763.625244	218.500000
763.662292	226.400000
763.699402	226.900000
763.736389	223.800000
763.773499	232.000000
763.810486	223.700000
763.847534	221.800000
763.884644	223.700000
763.921631	220.600000
763.958679	233.900000
763.995728	222.100000
764.032776	230.200000
764.069824	218.800000
764.106873	229.200000
764.143860	232.800000
764.180969	224.500000
764.218018	231.500000
764.255005	223.200000
764.292053	225.500000
764.329102	235.500000
764.366089	235.800000
764.403137	233.700000
764.440125	225.100000
764.477173	229.300000
764.514221	232.100000
764.551208	231.100000
764.588257	225.800000
764.625305	234.300000
764.662292	238.500000
764.699341	241.500000
764.736389	232.900000
764.773376	247.400000
764.810425	236.300000
764.847473	242.000000
764.884399	238.800000
764.921448	245.300000
764.958435	244.800000
764.995483	236.400000
765.032532	251.300000
765.069458	235.300000
765.106506	237.800000
765.143555	233.900000
765.180481	239.600000
765.217529	249.000000
765.254578	233.200000
765.291504	242.400000
765.328552	238.900000
765.365540	237.000000
765.402527	252.500000
765.439575	240.200000
765.476501	235.700000
765.513550	235.400000
765.550537	243.500000
765.587463	250.900000
765.624512	243.300000
765.661499	233.200000
765.698486	249.600000
765.735474	239.800000
765.772461	243.700000
765.809448	252.100000
765.846436	248.800000
765.883423	252.800000
765.920410	247.700000
765.957397	244.000000
765.994385	249.800000
766.031311	256.900000
766.068359	252.300000
766.105286	252.800000
766.142273	257.600000
766.179260	252.200000
766.216187	246.300000
766.253174	245.800000
766.290161	251.100000
766.327148	255.600000
766.364136	257.200000
766.401123	268.600000
766.438049	247.500000
766.475037	262.100000
766.512024	257.400000
766.548950	271.500000
766.585937	266.000000
766.622864	262.200000
766.659790	259.200000
766.696777	252.500000
766.733704	264.600000
766.770691	255.600000
766.807678	267.000000
766.844604	263.200000
766.881531	262.600000
766.918518	268.800000
766.955444	267.900000
766.992432	264.400000
767.029358	266.700000
767.066284	269.900000
767.103271	264.200000
767.140198	294.900000
767.177124	281.000000
767.214050	269.300000
767.251038	272.900000
767.287964	268.900000
767.324890	263.600000
767.361816	270.300000
767.398743	274.300000
767.435730	268.500000
767.472595	273.000000
767.509583	279.300000
767.546509	265.200000
767.583374	271.100000
767.620361	267.200000
767.657288	273.200000
767.694214	271.600000
767.731140	270.600000
767.768066	273.200000
767.804993	277.100000
767.841919	267.400000
767.878845	274.600000
767.915710	281.500000
767.952698	273.500000
767.989563	278.200000
768.026489	277.900000
768.063416	272.800000
768.100281	272.600000
768.137207	286.300000
768.174133	282.800000
768.211060	281.800000
768.247986	280.000000
768.284912	280.400000
768.321777	280.900000
768.358704	277.200000
768.395630	279.500000
768.432495	275.100000
768.469421	283.500000
768.506348	288.300000
768.543152	294.800000
768.580078	288.800000
768.616943	289.700000
768.653870	292.100000
768.690796	289.800000
768.727661	288.800000
768.764587	289.200000
768.801453	285.600000
768.838318	294.300000
768.875244	292.600000
768.912109	296.000000
768.948975	288.600000
768.985901	290.200000
769.022766	287.900000
769.059631	296.900000
769.096558	291.100000
769.133362	289.700000
769.170288	292.700000
769.207214	289.900000
769.244019	298.000000
769.280945	296.000000
769.317810	303.300000
769.354675	295.500000
769.391541	306.500000
769.428406	299.600000
769.465271	310.000000
769.502136	300.200000
769.539062	305.300000
769.575867	303.000000
769.612732	306.100000
769.649597	311.900000
769.686462	312.800000
769.723328	307.900000
769.760193	308.600000
769.797058	308.600000
769.833923	320.300000
769.870728	312.000000
769.907593	315.400000
769.944519	315.400000
769.981323	318.500000
770.018188	320.200000
770.055054	313.300000
770.091858	316.500000
770.128723	324.500000
770.165588	332.000000
770.202393	314.800000
770.239258	328.800000
770.276062	324.000000
770.312927	322.900000
770.349792	329.900000
770.386597	329.600000
770.423462	336.700000
770.460327	347.700000
770.497131	330.400000
770.533997	325.600000
770.570862	338.500000
770.607605	340.400000
770.644470	337.300000
770.681335	339.800000
770.718140	339.100000
770.754944	333.500000
770.791809	332.900000
770.828613	335.900000
770.865479	336.700000
770.902222	346.600000
770.939087	341.400000
770.975952	332.200000
771.012695	338.300000
771.049561	355.300000
771.086365	340.400000
771.123169	342.100000
771.159973	344.500000
771.196838	344.500000
771.233582	345.900000
771.270447	350.100000
771.307251	354.300000
771.344055	350.000000
771.380859	353.000000
771.417664	348.900000
771.454468	359.800000
771.491272	359.400000
771.528076	358.600000
771.564880	357.600000
771.601685	367.000000
771.638428	354.500000
771.675293	363.800000
771.712097	352.700000
771.748840	369.900000
771.785645	362.800000
771.822449	367.400000
771.859253	368.200000
771.896057	365.800000
771.932861	376.000000
771.969604	364.300000
772.006409	358.900000
772.043213	372.600000
772.079956	369.300000
772.116760	362.500000
772.153503	365.300000
772.190308	375.700000
772.227112	369.400000
772.263855	365.900000
772.300659	367.300000
772.337463	377.200000
772.374207	368.400000
772.411011	366.200000
772.447754	370.400000
772.484497	387.100000
772.521301	376.500000
772.558105	374.900000
772.594849	376.000000
772.631592	384.200000
772.668396	380.500000
772.705139	386.500000
772.741882	380.600000
772.778625	393.700000
772.815430	393.500000
772.852173	389.400000
772.888916	394.900000
772.925720	398.100000
772.962463	402.500000
772.999207	399.200000
773.035950	402.400000
773.072754	402.200000
773.109436	394.500000
773.146240	398.900000
773.182922	396.400000
773.219727	407.900000
773.256470	401.000000
773.293152	394.000000
773.329956	397.700000
773.366699	403.700000
773.403381	392.900000
773.440186	403.400000
773.476929	404.900000
773.513611	399.400000
773.550354	401.400000
773.587158	397.400000
773.623840	394.400000
773.660583	401.100000
773.697327	413.500000
773.734009	405.300000
773.770813	400.000000
773.807495	401.000000
773.844238	405.100000
773.880981	417.600000
773.917664	415.700000
773.954407	418.000000
773.991150	411.500000
774.027832	416.400000
774.064575	410.100000
774.101318	414.500000
774.138000	418.000000
774.174744	415.300000
774.211487	418.000000
774.248108	404.700000
774.284851	404.800000
774.321594	411.400000
774.358276	416.200000
774.395020	423.600000
774.431702	424.500000
774.468384	413.300000
774.505127	409.700000
774.541809	420.200000
774.578491	427.400000
774.615234	426.200000
774.651917	420.600000
774.688599	424.900000
774.725342	433.600000
774.762024	432.000000
774.798706	438.200000
774.835449	434.700000
774.872070	442.900000
774.908813	438.600000
774.945496	439.700000
774.982178	438.000000
775.018860	440.600000
775.055542	441.600000
775.092224	443.900000
775.128967	449.600000
775.165588	449.600000
775.202271	438.000000
775.239014	452.400000
775.275635	452.300000
775.312317	448.500000
775.349060	455.900000
775.385681	454.500000
775.422363	448.100000
775.459045	456.300000
775.495667	456.600000
775.532410	460.900000
775.569092	463.900000
775.605713	465.300000
775.642395	459.800000
775.679016	463.700000
775.715698	465.600000
775.752380	466.700000
775.789001	460.200000
775.825684	466.800000
775.862366	467.500000
775.898987	479.300000
775.935669	468.600000
775.972351	489.500000
776.008972	488.100000
776.045654	487.400000
776.082336	481.800000
776.118958	482.100000
776.155640	486.400000
776.192322	493.400000
776.228882	499.600000
776.265564	497.300000
776.302185	493.200000
776.338867	502.100000
776.375488	492.600000
776.412109	502.700000
776.448792	501.800000
776.485413	513.500000
776.522034	505.600000
776.558716	498.900000
776.595337	503.700000
776.631958	504.500000
776.668579	507.900000
776.705261	512.100000
776.741882	507.800000
776.778503	509.200000
776.815186	506.500000
776.851746	514.400000
776.888367	512.600000
776.924988	521.200000
776.961609	511.400000
776.998291	510.500000
777.034851	509.200000
777.071472	521.200000
777.108154	517.500000
777.144714	530.800000
777.181335	528.000000
777.218018	521.200000
777.254578	528.500000
777.291199	525.500000
777.327759	531.900000
777.364380	540.000000
777.401062	546.600000
777.437622	559.700000
777.474243	547.000000
777.510864	551.300000
777.547424	546.100000
777.584045	548.900000
777.620667	551.900000
777.657227	555.100000
777.693848	552.900000
777.730469	572.600000
777.767029	564.900000
777.803650	567.200000
777.840271	559.600000
777.876831	560.000000
777.913452	569.400000
777.950012	557.000000
777.986633	557.800000
778.023193	554.600000
778.059753	553.100000
778.096375	555.800000
778.132996	567.700000
778.169556	557.400000
778.206116	555.200000
778.242737	552.600000
778.279297	560.000000
778.315857	551.400000
778.352478	558.500000
778.389038	567.000000
778.425598	567.100000
778.462219	574.100000
778.498718	571.600000
778.535339	579.400000
778.571838	576.700000
778.608459	584.300000
778.645020	574.000000
778.681580	585.900000
778.718140	584.700000
778.754761	579.200000
778.791260	585.000000
778.827881	595.800000
778.864441	591.800000
778.900940	601.500000
778.937561	596.400000
778.974121	595.900000
779.010620	580.700000
779.047241	586.100000
779.083801	594.400000
779.120300	595.900000
779.156860	595.700000
779.193359	595.700000
779.229980	596.000000
779.266541	600.600000
779.303040	601.700000
779.339600	595.700000
779.376160	594.100000
779.412659	600.800000
779.449219	592.400000
779.485779	594.700000
779.522278	592.300000
779.558838	597.200000
779.595398	598.200000
779.631897	599.600000
779.668457	591.100000
779.705017	601.700000
779.741516	594.900000
779.778076	589.100000
779.814575	594.000000
779.851074	598.000000
779.887634	596.200000
779.924133	601.900000
779.960693	591.500000
779.997253	598.600000
780.033691	605.000000
780.070251	605.100000
780.106812	617.600000
780.143250	612.500000
780.179810	608.100000
780.216370	609.400000
780.252808	613.600000
780.289368	624.500000
780.325867	624.000000
780.362366	622.600000
780.398865	635.300000
780.435364	625.600000
780.471863	638.000000
780.508423	633.100000
780.544861	638.000000
780.581421	642.300000
780.617920	635.600000
780.654419	629.600000
780.690918	635.400000
780.727417	641.200000
780.763916	639.400000
780.800415	649.500000
780.836914	633.200000
780.873352	640.700000
780.909912	637.000000
780.946411	643.100000
780.982849	647.700000
781.019348	662.700000
781.055786	654.700000
781.092346	651.300000
781.128845	660.000000
781.165283	665.500000
781.201782	672.600000
781.238281	672.200000
781.274719	678.400000
781.311218	670.800000
781.347717	682.800000
781.384155	673.000000
781.420654	677.900000
781.457092	685.900000
781.493591	683.600000
781.530090	675.900000
781.566528	677.000000
781.602966	682.200000
781.639465	680.500000
781.675903	675.900000
781.712402	684.100000
781.748901	689.500000
781.785278	678.200000
781.821777	683.700000
781.858276	684.900000
781.894714	702.000000
781.931152	695.800000
781.967651	706.800000
782.004089	694.900000
782.040527	707.200000
782.076965	705.400000
782.113403	707.400000
782.149902	712.000000
782.186340	705.000000
782.222778	721.700000
782.259277	709.800000
782.295654	713.200000
782.332092	722.200000
782.368591	722.800000
782.404968	720.900000
782.441467	724.400000
782.477905	724.400000
782.514282	721.200000
782.550781	730.300000
782.587219	730.500000
782.623596	738.900000
782.660095	742.500000
782.696472	748.700000
782.732910	749.000000
782.769348	754.900000
782.805786	774.500000
782.842224	771.300000
782.878662	766.200000
782.915039	766.200000
782.951477	769.000000
782.987915	762.400000
783.024292	772.900000
783.060730	775.200000
783.097168	765.500000
783.133545	757.700000
783.169983	751.700000
783.206421	742.600000
783.242798	744.700000
783.279236	736.900000
783.315613	736.700000
783.352051	731.300000
783.388489	729.000000
783.424866	713.400000
783.461304	727.900000
783.497681	737.100000
783.534058	733.600000
783.570496	731.000000
783.606934	731.500000
783.643250	739.500000
783.679687	747.800000
783.716125	738.900000
783.752441	751.900000
783.788879	770.800000
783.825317	777.600000
783.861633	780.200000
783.898071	784.800000
783.934448	793.900000
783.970825	802.700000
784.007263	806.100000
784.043579	807.500000
784.080017	813.600000
784.116394	805.200000
784.152710	813.900000
784.189148	818.500000
784.225525	824.000000
784.261902	810.000000
784.298279	811.900000
784.334656	808.400000
784.371033	794.300000
784.407410	793.700000
784.443787	779.400000
784.480164	758.400000
784.516541	745.000000
784.552856	747.400000
784.589233	737.700000
784.625610	736.600000
784.661987	767.800000
784.698364	757.400000
784.734741	754.800000
784.771057	758.500000
784.807434	760.400000
784.843811	774.700000
784.880127	776.300000
784.916504	802.800000
784.952881	809.100000
784.989197	804.400000
785.025574	808.100000
785.061951	814.300000
785.098267	835.600000
785.134644	829.100000
785.170959	827.000000
785.207275	832.100000
785.243652	824.100000
785.279968	796.900000
785.316345	772.800000
785.352722	731.700000
785.388977	678.800000
785.425354	612.900000
785.461731	566.800000
785.498047	549.500000
785.534363	554.000000
785.570679	587.300000
785.606995	632.400000
785.643372	684.900000
785.679687	717.400000
785.716003	729.300000
785.752380	738.300000
785.788635	747.900000
785.825012	770.600000
785.861328	784.800000
785.897644	779.900000
785.933960	795.900000
785.970337	797.700000
786.006592	808.900000
786.042908	818.700000
786.079285	833.200000
786.115540	840.900000
786.151855	837.300000
786.188171	834.300000
786.224487	833.000000
786.260803	820.700000
786.297119	824.800000
786.333435	827.200000
786.369751	815.100000
786.406006	814.300000
786.442322	794.500000
786.478638	787.700000
786.514954	804.200000
786.551270	797.900000
786.587585	810.200000
786.623840	797.000000
786.660156	790.100000
786.696472	779.600000
786.732727	778.300000
786.769043	784.900000
786.805298	780.900000
786.841614	788.600000
786.877930	790.300000
786.914124	784.400000
786.950439	802.500000
786.986755	807.500000
787.023010	824.700000
787.059326	834.800000
787.095642	840.400000
787.131836	853.800000
787.168152	846.300000
787.204468	847.000000
787.240723	860.000000
787.276978	867.600000
787.313293	869.700000
787.349548	863.000000
787.385803	863.200000
787.422058	852.200000
787.458313	850.200000
787.494629	846.800000
787.530823	840.400000
787.567139	834.800000
787.603455	829.900000
787.639648	819.000000
787.675903	825.700000
787.712219	821.900000
787.748413	820.800000
787.784729	830.500000
787.820984	823.700000
787.857178	814.700000
787.893494	816.500000
787.929749	815.300000
787.965942	823.900000
788.002258	839.000000
788.038452	854.100000
788.074707	847.400000
788.110962	862.500000
788.147217	861.300000
788.183472	867.500000
788.219727	880.400000
788.255920	896.200000
788.292175	901.300000
788.328430	900.300000
788.364624	890.200000
788.400879	882.700000
788.437134	882.000000
788.473328	881.700000
788.509583	880.000000
788.545837	874.100000
788.582031	871.900000
788.618286	864.200000
788.654480	862.500000
788.690735	872.100000
788.726990	895.200000
788.763184	888.800000
788.799377	904.400000
788.835632	890.000000
788.871826	907.800000
788.908081	902.000000
788.944336	892.900000
788.980469	911.000000
789.016724	903.500000
789.052979	903.500000
789.089111	895.300000
789.125366	902.700000
789.161621	883.700000
789.197754	906.100000
789.234009	899.700000
789.270142	890.100000
789.306396	890.800000
789.342590	877.600000
789.378784	860.600000
789.414978	858.200000
789.451233	874.100000
789.487366	874.700000
789.523621	884.800000
789.559814	878.900000
789.595947	864.500000
789.632202	872.100000
789.668335	885.000000
789.704529	902.300000
789.740784	923.300000
789.776917	928.800000
789.813110	923.900000
789.849304	932.300000
789.885498	931.800000
789.921692	951.200000
789.957886	951.600000
789.994019	957.700000
790.030212	955.200000
790.066406	959.200000
790.102539	951.700000
790.138733	961.800000
790.174927	955.600000
790.211060	963.200000
790.247253	953.100000
790.283386	950.500000
790.319580	937.900000
790.355774	920.000000
790.391907	921.200000
790.428101	939.700000
790.464294	935.100000
790.500427	942.500000
790.536621	919.400000
790.572754	903.300000
790.608887	901.400000
790.645081	913.100000
790.681274	923.000000
790.717346	926.600000
790.753540	916.600000
790.789734	894.600000
790.825867	882.400000
790.862000	883.800000
790.898132	899.900000
790.934265	898.700000
790.970459	902.500000
791.006592	901.400000
791.042725	896.900000
791.078918	890.700000
791.114990	882.200000
791.151184	879.000000
791.187317	898.800000
791.223389	890.900000
791.259583	877.100000
791.295715	882.000000
791.331848	880.100000
791.367981	891.100000
791.404114	898.600000
791.440247	906.400000
791.476379	910.600000
791.512451	891.300000
791.548584	890.500000
791.584778	882.300000
791.620850	904.900000
791.656982	910.100000
791.693115	909.400000
791.729187	906.900000
791.765381	903.100000
791.801514	900.000000
791.837585	896.600000
791.873718	907.100000
791.909851	922.900000
791.945923	936.300000
791.982056	900.500000
792.018188	895.200000
792.054260	902.900000
792.090393	900.700000
792.126465	889.900000
792.162598	903.800000
792.198669	891.200000
792.234741	881.800000
792.270874	871.800000
792.307007	860.100000
792.343079	860.100000
792.379150	874.000000
792.415283	859.900000
792.451355	862.000000
792.487488	842.300000
792.523560	837.300000
792.559631	823.500000
792.595764	789.700000
792.631836	761.100000
792.667908	750.500000
792.703979	731.700000
792.740051	749.500000
792.776184	776.400000
792.812256	788.600000
792.848328	793.600000
792.884399	805.600000
792.920471	804.600000
792.956543	800.800000
792.992615	802.100000
793.028748	801.500000
793.064758	806.900000
793.100830	820.500000
793.136963	837.700000
793.172974	838.600000
793.209045	829.200000
793.245178	835.700000
793.281189	822.700000
793.317261	824.200000
793.353271	830.600000
793.389404	843.500000
793.425476	837.800000
793.461487	824.800000
793.497559	817.500000
793.533630	819.800000
793.569641	818.700000
793.605713	818.800000
793.641785	824.100000
793.677795	837.400000
793.713867	830.100000
793.749878	835.300000
793.785950	843.800000
793.822021	845.900000
793.858032	836.500000
793.894104	846.200000
793.930176	830.700000
793.966187	833.600000
794.002258	822.300000
794.038269	833.000000
794.074280	828.200000
794.110352	854.400000
794.146423	839.400000
794.182373	837.100000
794.218445	829.600000
794.254517	826.200000
794.290466	808.800000
794.326538	816.200000
794.362549	818.100000
794.398560	824.700000
794.434631	833.200000
794.470581	807.300000
794.506653	803.700000
794.542664	806.500000
794.578674	807.700000
794.614685	816.700000
794.650757	810.900000
794.686707	813.500000
794.722778	802.700000
794.758789	804.800000
794.794739	816.400000
794.830811	839.100000
794.866821	859.700000
794.902771	858.800000
794.938843	850.900000
794.974792	845.700000
795.010803	845.200000
795.046814	849.900000
795.082825	839.800000
795.118835	856.100000
795.154846	834.000000
795.190796	841.100000
795.226807	818.900000
795.262817	826.800000
795.298767	826.900000
795.334778	841.700000
795.370850	828.600000
795.406799	837.900000
795.442810	820.200000
795.478821	816.300000
795.514709	816.200000
795.550720	837.300000
795.586670	820.400000
795.622681	823.900000
795.658691	825.700000
795.694641	819.400000
795.730652	810.500000
795.766663	819.800000
795.802551	828.500000
795.838562	844.800000
795.874573	835.600000
795.910522	832.600000
795.946472	822.700000
795.982483	824.300000
796.018433	823.200000
796.054382	833.700000
796.090393	827.800000
796.126282	817.800000
796.162292	811.900000
796.198242	803.000000
796.234192	800.700000
796.270203	792.500000
796.306091	799.100000
796.342041	809.600000
796.378052	799.500000
796.413940	799.000000
796.449951	800.100000
796.485901	797.800000
796.521790	808.500000
796.557800	824.600000
796.593689	826.800000
796.629639	818.700000
796.665649	810.700000
796.701599	804.500000
796.737488	802.700000
796.773437	811.900000
796.809387	812.400000
796.845337	816.000000
796.881287	812.100000
796.917175	791.200000
796.953125	790.700000
796.989075	801.300000
797.024963	803.900000
797.060913	802.900000
797.096863	799.200000
797.132751	792.900000
797.168701	778.600000
797.204590	781.900000
797.240540	783.000000
797.276489	787.500000
797.312439	795.400000
797.348328	798.200000
797.384277	787.000000
797.420166	774.000000
797.456055	775.800000
797.492004	770.700000
797.527893	779.100000
797.563843	785.100000
797.599731	774.700000
797.635620	766.300000
797.671570	779.900000
797.707520	778.700000
797.743347	778.100000
797.779297	788.300000
797.815125	781.000000
797.851074	766.300000
797.887024	756.700000
797.922913	750.200000
797.958801	757.900000
797.994690	753.900000
798.030579	761.000000
798.066467	770.300000
798.102356	758.800000
798.138245	753.500000
798.174133	747.600000
798.210083	758.800000
798.245911	765.700000
798.281799	766.100000
798.317749	758.800000
798.353577	759.300000
798.389465	753.800000
798.425293	748.200000
798.461243	750.400000
798.497131	759.000000
798.532959	758.900000
798.568848	770.100000
798.604736	750.700000
798.640564	735.600000
798.676453	737.900000
798.712402	743.100000
798.748230	745.400000
798.784119	748.200000
798.820007	745.000000
798.855835	738.000000
798.891724	733.900000
798.927551	728.600000
798.963379	736.900000
798.999268	736.200000
799.035095	728.800000
799.070984	723.000000
799.106873	710.800000
799.142700	717.400000
799.178528	704.700000
799.214417	710.300000
799.250244	723.900000
799.286133	717.800000
799.321960	717.900000
799.357788	711.100000
799.393677	702.700000
799.429504	701.200000
799.465332	703.000000
799.501221	708.500000
799.537048	708.500000
799.572876	701.600000
799.608704	699.300000
799.644531	708.500000
799.680359	714.700000
799.716248	720.900000
799.752014	731.000000
799.787903	717.900000
799.823730	714.700000
799.859558	703.100000
799.895386	712.600000
799.931213	707.500000
799.967041	703.300000
800.002869	705.900000
800.038696	722.700000
800.074463	708.100000
800.110352	712.000000
800.146179	698.400000
800.181946	709.700000
800.217773	708.000000
800.253540	709.500000
800.289429	701.300000
800.325256	691.300000
800.361023	677.500000
800.396851	687.200000
800.432678	688.700000
800.468445	689.700000
800.504272	687.000000
800.540100	673.400000
800.575867	673.900000
800.611694	680.400000
800.647461	673.100000
800.683289	679.200000
800.719116	684.600000
800.754883	674.700000
800.790649	660.800000
800.826477	657.900000
800.862244	675.100000
800.898071	665.300000
800.933838	664.500000
800.969604	667.000000
801.005432	664.000000
801.041199	666.200000
801.076965	657.600000
801.112793	647.800000
801.148560	642.400000
801.184326	645.700000
801.220154	646.200000
801.255859	642.800000
801.291687	642.900000
801.327454	639.100000
801.363281	636.800000
801.398987	636.500000
801.434814	635.300000
801.470520	646.400000
801.506287	632.300000
801.542114	625.100000
801.577820	627.200000
801.613647	626.100000
801.649414	627.600000
801.685120	634.900000
801.720886	636.700000
801.756714	628.400000
801.792419	620.000000
801.828186	613.800000
801.863892	623.200000
801.899719	614.800000
801.935486	614.400000
801.971252	621.200000
802.006958	619.800000
802.042725	609.300000
802.078430	608.200000
802.114197	602.200000
802.149963	624.100000
802.185669	609.400000
802.221436	603.700000
802.257202	607.900000
802.292908	603.300000
802.328674	606.700000
802.364441	613.200000
802.400146	611.200000
802.435913	610.900000
802.471558	605.400000
802.507324	603.900000
802.543091	594.800000
802.578796	605.200000
802.614502	608.000000
802.650269	613.200000
802.685974	598.200000
802.721741	604.600000
802.757446	606.700000
802.793152	599.000000
802.828918	612.000000
802.864624	606.700000
802.900330	605.800000
802.936035	602.200000
802.971802	600.500000
803.007446	595.500000
803.043213	590.200000
803.078857	600.300000
803.114624	585.000000
803.150330	588.300000
803.185974	580.400000
803.221741	584.300000
803.257446	592.900000
803.293152	592.100000
803.328857	587.300000
803.364563	583.700000
803.400208	578.100000
803.435974	587.400000
803.471680	575.000000
803.507324	577.700000
803.543030	587.500000
803.578735	588.900000
803.614441	581.600000
803.650146	588.600000
803.685791	576.800000
803.721497	578.400000
803.757202	565.500000
803.792847	575.300000
803.828552	567.100000
803.864258	570.200000
803.899902	565.100000
803.935608	551.100000
803.971313	558.400000
804.006958	557.900000
804.042664	556.400000
804.078308	560.900000
804.113953	552.200000
804.149658	557.200000
804.185364	546.600000
804.221008	555.400000
804.256714	545.700000
804.292297	541.800000
804.328003	545.100000
804.363708	539.100000
804.399292	541.400000
804.434998	540.000000
804.470703	534.700000
804.506287	543.200000
804.541992	536.000000
804.577637	536.500000
804.613281	528.600000
804.648926	523.200000
804.684570	530.500000
804.720215	521.000000
804.755920	524.600000
804.791565	522.300000
804.827209	529.500000
804.862854	521.800000
804.898437	517.600000
804.934143	518.600000
804.969788	515.900000
805.005371	515.600000
805.041077	515.300000
805.076721	514.200000
805.112305	504.300000
805.147949	504.600000
805.183655	496.400000
805.219238	506.700000
805.254883	507.300000
805.290466	511.300000
805.326111	506.700000
805.361755	497.500000
805.397400	499.400000
805.432983	503.000000
805.468628	498.400000
805.504211	502.500000
805.539856	500.700000
805.575500	504.000000
805.611084	495.300000
805.646729	486.200000
805.682373	490.200000
805.717957	498.900000
805.753601	498.600000
805.789246	482.200000
805.824768	495.500000
805.860413	496.100000
805.895996	485.000000
805.931641	485.000000
805.967224	488.500000
806.002869	484.500000
806.038452	494.900000
806.074036	493.600000
806.109619	483.400000
806.145264	480.100000
806.180847	479.300000
806.216431	480.000000
806.252014	483.000000
806.287659	479.200000
806.323181	489.800000
806.358826	484.700000
806.394409	467.900000
806.429993	473.800000
806.465576	486.400000
806.501160	470.700000
806.536743	462.200000
806.572327	474.100000
806.607910	471.700000
806.643494	471.800000
806.679077	463.300000
806.714661	465.200000
806.750244	465.100000
806.785828	461.100000
806.821350	464.400000
806.856934	470.200000
806.892517	465.900000
806.928101	458.800000
806.963684	461.100000
806.999268	470.700000
807.034790	451.500000
807.070374	458.800000
807.105896	453.300000
807.141479	450.100000
807.177063	455.900000
807.212585	449.300000
807.248169	447.600000
807.283752	455.400000
807.319275	448.700000
807.354858	450.000000
807.390381	443.600000
807.425903	443.700000
807.461487	439.600000
807.497070	434.300000
807.532593	440.400000
807.568115	437.800000
807.603699	432.500000
807.639221	429.700000
807.674744	435.900000
807.710266	440.100000
807.745850	442.500000
807.781372	436.600000
807.816895	434.500000
807.852417	434.300000
807.888000	435.600000
807.923523	427.400000
807.959045	433.400000
807.994629	425.100000
808.030090	423.500000
808.065613	430.700000
808.101135	432.000000
808.136658	425.500000
808.172241	426.000000
808.207764	423.100000
808.243225	416.700000
808.278809	415.400000
808.314270	421.400000
808.349792	408.700000
808.385315	410.200000
808.420837	416.400000
808.456360	419.900000
808.491882	420.400000
808.527344	415.800000
808.562866	423.900000
808.598389	415.700000
808.633850	410.500000
808.669434	406.100000
808.704895	416.900000
808.740417	417.700000
808.775940	412.000000
808.811462	406.100000
808.846924	404.000000
808.882385	400.600000
808.917847	399.800000
808.953369	402.800000
808.988892	398.100000
809.024353	405.500000
809.059875	404.100000
809.095398	400.600000
809.130798	394.500000
809.166321	390.900000
809.201843	393.200000
809.237305	393.300000
809.272766	400.700000
809.308228	387.600000
809.343750	388.700000
809.379211	390.100000
809.414734	393.000000
809.450134	399.200000
809.485657	384.300000
809.521118	389.700000
809.556580	385.600000
809.592102	385.800000
809.627502	381.400000
809.663025	381.700000
809.698486	378.200000
809.733887	376.200000
809.769409	381.100000
809.804871	369.800000
809.840271	373.100000
809.875793	377.000000
809.911194	380.900000
809.946655	370.900000
809.982178	369.100000
810.017639	375.100000
810.053040	370.300000
810.088501	369.000000
810.123901	370.800000
810.159424	367.100000
810.194885	361.300000
810.230286	364.900000
810.265747	361.800000
810.301208	357.600000
810.336609	359.700000
810.372070	353.200000
810.407532	355.800000
810.442932	358.700000
810.478394	361.600000
810.513794	357.800000
810.549255	354.000000
810.584717	352.300000
810.620117	347.700000
810.655518	354.800000
810.690979	353.700000
810.726379	351.000000
810.761841	339.000000
810.797302	343.100000
810.832642	341.500000
810.868103	351.200000
810.903564	339.800000
810.938904	349.600000
810.974365	337.800000
811.009827	342.600000
811.045166	336.000000
811.080627	330.400000
811.115967	336.000000
811.151428	343.300000
811.186829	337.600000
811.222229	336.500000
811.257629	328.700000
811.293091	333.500000
811.328430	342.900000
811.363892	337.100000
811.399292	338.800000
811.434631	333.100000
811.470093	336.900000
811.505493	329.400000
811.540833	329.700000
811.576294	335.300000
811.611694	327.300000
811.647034	324.200000
811.682434	329.400000
811.717773	327.100000
811.753235	333.400000
811.788635	326.300000
811.823975	327.500000
811.859375	336.400000
811.894775	322.600000
811.930115	325.900000
811.965515	322.400000
812.000916	326.800000
812.036255	321.300000
812.071655	326.000000
812.106995	318.600000
812.142395	320.200000
812.177795	326.700000
812.213196	325.100000
812.248474	324.500000
812.283875	315.500000
812.319214	319.700000
812.354614	318.700000
812.390015	315.300000
812.425293	316.300000
812.460693	314.500000
812.496094	314.100000
812.531433	307.400000
812.566772	307.300000
812.602173	312.500000
812.637451	312.700000
812.672852	307.900000
812.708191	313.100000
812.743530	306.900000
812.778931	299.900000
812.814270	302.300000
812.849609	311.600000
812.884949	306.000000
812.920227	297.700000
812.955627	316.000000
812.990967	304.900000
813.026306	303.300000
813.061646	291.500000
813.096985	290.700000
813.132324	287.200000
813.167664	290.600000
813.203003	295.800000
813.238281	283.500000
813.273682	283.300000
813.308960	281.400000
813.344299	282.200000
813.379639	290.800000
813.414978	282.900000
813.450256	284.000000
813.485596	288.000000
813.520874	279.500000
813.556213	282.600000
813.591614	286.200000
813.626831	278.000000
813.662170	283.700000
813.697510	291.100000
813.732788	276.700000
813.768127	280.200000
813.803467	281.400000
813.838745	276.800000
813.874084	280.800000
813.909363	280.600000
813.944641	281.300000
813.979980	269.500000
814.015320	273.100000
814.050598	270.900000
814.085876	274.900000
814.121155	274.500000
814.156494	271.200000
814.191772	273.200000
814.227051	268.000000
814.262390	269.700000
814.297668	269.900000
814.332947	272.400000
814.368225	264.200000
814.403564	269.000000
814.438782	263.600000
814.474121	267.500000
814.509338	263.700000
814.544617	273.400000
814.579956	262.700000
814.615173	273.600000
814.650513	266.800000
814.685791	262.800000
814.721008	263.800000
814.756348	264.800000
814.791626	261.100000
814.826843	261.800000
814.862122	261.800000
814.897400	259.100000
814.932678	261.300000
814.967957	260.200000
815.003235	261.300000
815.038452	254.700000
815.073730	252.300000
815.108948	264.300000
815.144226	260.700000
815.179504	264.400000
815.214722	250.600000
815.250000	250.400000
815.285278	256.600000
815.320496	251.800000
815.355774	252.800000
815.391052	256.900000
815.426270	253.300000
815.461487	251.900000
815.496765	247.600000
815.531982	244.800000
815.567261	249.900000
815.602539	257.400000
815.637695	252.200000
815.672974	254.800000
815.708191	254.300000
815.743408	255.300000
815.778687	246.600000
815.813904	256.800000
815.849121	242.000000
815.884399	243.200000
815.919556	242.200000
815.954834	243.600000
815.990051	247.400000
816.025269	248.700000
816.060486	241.400000
816.095703	241.200000
816.130920	244.600000
816.166199	240.100000
816.201416	245.500000
816.236572	248.300000
816.271851	239.800000
816.307007	245.800000
816.342224	237.800000
816.377441	239.800000
816.412659	232.300000
816.447876	242.600000
816.483093	237.100000
816.518250	239.200000
816.553467	236.000000
816.588745	238.900000
816.623901	232.300000
816.659119	227.800000
816.694275	234.500000
816.729492	229.200000
816.764709	265.600000
816.799927	226.300000
816.835083	234.300000
816.870300	226.600000
816.905457	230.600000
816.940674	231.800000
816.975830	229.100000
817.010986	223.600000
817.046204	228.000000
817.081421	222.500000
817.116577	222.700000
817.151733	233.200000
817.186951	231.000000
817.222107	227.700000
817.257324	232.900000
817.292419	228.500000
817.327637	220.200000
817.362854	225.100000
817.398010	220.100000
817.433167	221.400000
817.468323	222.200000
817.503479	222.200000
817.538635	231.700000
817.573853	226.100000
817.608948	225.500000
817.644165	219.800000
817.679321	217.800000
817.714478	216.400000
817.749634	222.600000
817.784790	231.600000
817.819946	227.400000
817.855103	209.500000
817.890198	218.000000
817.925415	209.900000
817.960571	219.500000
817.995667	219.600000
818.030823	219.600000
818.066040	214.600000
818.101135	217.800000
818.136292	217.100000
818.171448	209.600000
818.206543	214.700000
818.241699	218.200000
818.276855	216.300000
818.311951	215.100000
818.347107	211.300000
818.382263	218.900000
818.417358	222.300000
818.452515	222.400000
818.487610	222.300000
818.522766	211.800000
818.557922	223.000000
818.593018	216.800000
818.628113	215.300000
818.663269	207.800000
818.698364	213.400000
818.733521	210.000000
818.768677	216.300000
818.803711	206.200000
818.838867	208.900000
818.874023	210.700000
818.909058	208.400000
818.944214	206.900000
818.979370	213.800000
819.014404	211.400000
819.049561	208.200000
819.084595	212.100000
819.119751	204.400000
819.154846	210.100000
819.189941	207.600000
819.225037	202.700000
819.260193	200.200000
819.295227	201.400000
819.330322	198.400000
819.365479	197.500000
819.400513	228.200000
819.435608	196.000000
819.470764	195.400000
819.505798	197.600000
819.540894	199.300000
819.575989	198.300000
819.611084	205.700000
819.646179	207.800000
819.681213	203.100000
819.716309	198.400000
819.751404	199.900000
819.786438	204.900000
819.821533	196.700000
819.856628	201.600000
819.891663	204.600000
819.926758	211.300000
819.961853	206.400000
819.996887	198.200000
820.031982	203.200000
820.067017	198.000000
820.102112	226.900000
820.137207	198.300000
820.172302	214.200000
820.207275	196.300000
820.242371	194.800000
820.277405	196.300000
820.312500	197.400000
820.347534	201.100000
820.382568	202.800000
820.417664	195.900000
820.452759	195.700000
820.487732	192.900000
820.522827	193.700000
820.557861	192.800000
820.592896	195.300000
820.627930	197.300000
820.662964	193.300000
820.698059	199.200000
820.733093	194.500000
820.768127	200.000000
820.803162	196.400000
820.838196	192.900000
820.873230	196.800000
820.908264	196.400000
820.943298	193.200000
820.978333	201.100000
821.013367	196.600000
821.048401	199.600000
821.083435	200.400000
821.118469	187.800000
821.153503	198.900000
821.188477	195.400000
821.223511	189.900000
821.258484	193.400000
821.293579	195.600000
821.328613	188.200000
821.363647	193.800000
821.398621	188.300000
821.433655	191.900000
821.468628	206.600000
821.503662	193.300000
821.538696	196.500000
821.573669	189.800000
821.608704	196.800000
821.643677	191.000000
821.678650	196.300000
821.713684	202.300000
821.748718	191.300000
821.783691	193.600000
821.818726	194.200000
821.853638	195.400000
821.888672	194.000000
821.923706	194.000000
821.958618	189.700000
821.993652	191.800000
822.028687	198.700000
822.063599	200.600000
822.098633	194.900000
822.133667	190.100000
822.168579	192.300000
822.203613	195.200000
822.238586	190.900000
822.273560	196.200000
822.308533	188.800000
822.343567	190.100000
822.378479	190.700000
822.413452	192.100000
822.448425	188.600000
822.483398	198.500000
822.518372	197.500000
822.553345	190.000000
822.588318	199.300000
822.623291	190.800000
822.658203	192.000000
822.693237	192.100000
822.728210	188.000000
822.763123	194.200000
822.798096	187.600000
822.833069	192.600000
822.867981	192.900000
822.902954	194.600000
822.937927	194.500000
822.972900	203.600000
823.007874	184.500000
823.042725	197.600000
823.077698	204.700000
823.112671	188.600000
823.147583	191.000000
823.182556	193.000000
823.217529	195.700000
823.252441	191.100000
823.287415	204.900000
823.322388	194.700000
823.357239	191.500000
823.392212	200.500000
823.427185	196.600000
823.462097	188.800000
823.497009	195.400000
823.531982	188.600000
823.566895	191.900000
823.601807	186.600000
823.636719	189.400000
823.671631	195.100000
823.706604	190.400000
823.741455	195.400000
823.776428	186.800000
823.811340	197.300000
823.846252	199.000000
823.881165	198.200000
823.916138	193.900000
823.950989	200.300000
823.985901	190.500000
824.020813	192.300000
824.055725	190.600000
824.090637	185.400000
824.125610	195.200000
824.160461	193.600000
824.195374	194.800000
824.230225	197.900000
824.265198	186.200000
824.300110	188.800000
824.334961	202.600000
824.369873	182.700000
824.404785	195.100000
824.439636	198.200000
824.474548	183.800000
824.509460	182.600000
824.544312	198.300000
824.579224	193.600000
824.614075	193.200000
824.648987	190.600000
824.683899	191.200000
824.718811	189.000000
824.753662	197.000000
824.788574	198.000000
824.823364	192.700000
824.858276	188.400000
824.893188	196.600000
824.928040	196.900000
824.962952	193.600000
824.997803	195.700000
825.032654	192.200000
825.067566	194.700000
825.102417	188.400000
825.137268	190.100000
825.172119	189.600000
825.206970	187.200000
825.241882	187.600000
825.276733	187.900000
825.311646	187.700000
825.346436	185.700000
825.381348	185.900000
825.416138	191.800000
825.450989	185.500000
825.485901	181.400000
825.520691	181.900000
825.555542	184.200000
825.590454	189.800000
825.625244	182.000000
825.660095	194.700000
825.695007	194.500000
825.729797	187.100000
825.764648	186.000000
825.799438	188.800000
825.834290	190.200000
825.869202	182.200000
825.903992	191.900000
825.938843	186.000000
825.973694	183.500000
826.008484	200.500000
826.043335	185.000000
826.078186	180.500000
826.112976	195.000000
826.147827	193.400000
826.182678	197.400000
826.217468	181.100000
826.252319	193.500000
826.287109	185.300000
826.321899	195.100000
826.356750	186.700000
826.391541	182.400000
826.426392	193.200000
826.461182	188.200000
826.495972	182.500000
826.530823	178.900000
826.565613	187.800000
826.600403	183.700000
826.635254	190.300000
826.670044	179.400000
826.704834	179.800000
826.739685	182.000000
826.774475	189.800000
826.809265	186.500000
826.844055	183.800000
826.878906	192.600000
826.913635	188.900000
826.948425	190.000000
826.983215	189.200000
827.018005	191.100000
827.052856	184.500000
827.087585	190.200000
827.122375	180.800000
827.157227	186.500000
827.191956	199.600000
827.226746	182.000000
827.261536	191.200000
827.296265	179.700000
827.331116	184.700000
827.365906	190.000000
827.400635	183.700000
827.435425	177.300000
827.470215	193.600000
827.504944	184.500000
827.539734	191.100000
827.574463	185.900000
827.609253	193.400000
827.644043	186.300000
827.678772	193.100000
827.713562	184.300000
827.748352	185.100000
827.783081	184.100000
827.817871	187.700000
827.852600	181.800000
827.887329	188.200000
827.922119	177.600000
827.956848	192.100000
827.991638	200.900000
828.026367	188.600000
828.061157	186.600000
828.095886	186.400000
828.130615	200.900000
828.165344	177.300000
828.200073	187.000000
828.234863	184.000000
828.269592	186.700000
828.304321	191.800000
828.339111	188.200000
828.373779	183.700000
828.408569	192.200000
828.443298	191.300000
828.477966	184.000000
828.512756	188.000000
828.547424	181.800000
828.582214	182.800000
828.616943	184.800000
828.651672	185.200000
828.686340	189.000000
828.721130	182.500000
828.755798	185.700000
828.790527	185.400000
828.825256	190.000000
828.859924	186.700000
828.894714	192.500000
828.929443	194.900000
828.964111	183.100000
828.998840	189.800000
829.033569	185.500000
829.068237	183.500000
829.102966	184.600000
829.137634	188.800000
829.172363	188.600000
829.207092	187.900000
829.241821	182.700000
829.276489	178.700000
829.311157	188.200000
829.345825	185.100000
829.380554	189.900000
829.415283	180.600000
829.449951	181.100000
829.484619	194.300000
829.519348	194.700000
829.554016	185.600000
829.588745	187.500000
829.623413	180.100000
829.658081	198.900000
829.692749	180.800000
829.727417	192.000000
829.762146	187.900000
829.796814	183.200000
829.831482	184.700000
829.866150	189.400000
829.900879	182.800000
829.935486	189.800000
829.970154	183.900000
830.004883	199.000000
830.039490	187.000000
830.074219	183.600000
830.108887	187.300000
830.143494	185.200000
830.178223	181.200000
830.212891	184.500000
830.247498	186.600000
830.282166	194.000000
830.316772	191.400000
830.351501	184.400000
830.386169	185.800000
830.420776	184.100000
830.455444	186.900000
830.490112	183.200000
830.524719	178.200000
830.559387	188.900000
830.594055	189.400000
830.628662	186.700000
830.663330	187.000000
830.697998	196.000000
830.732605	185.200000
830.767273	189.100000
830.801941	186.900000
830.836487	195.600000
830.871155	188.800000
830.905762	188.200000
830.940430	179.800000
830.975098	182.200000
831.009644	187.200000
831.044312	194.100000
831.078979	190.700000
831.113525	178.500000
831.148193	189.100000
831.182861	184.900000
831.217407	189.800000
831.252075	202.200000
831.286621	182.500000
831.321289	183.200000
831.355896	186.800000
831.390564	192.900000
831.425110	188.100000
831.459778	192.800000
831.494324	199.300000
831.528931	190.100000
831.563599	191.200000
831.598145	180.900000
831.632751	186.300000
831.667419	184.300000
831.701965	189.300000
831.736572	189.800000
831.771179	181.500000
831.805786	184.300000
831.840393	193.400000
831.874939	179.800000
831.909546	191.800000
831.944153	178.100000
831.978760	186.200000
832.013306	181.800000
832.047913	193.100000
832.082458	195.300000
832.117065	183.200000
832.151672	195.200000
832.186218	187.600000
832.220825	189.600000
832.255432	178.000000
832.289978	183.200000
832.324585	188.200000
832.359192	191.200000
832.393677	185.200000
832.428284	187.000000
832.462830	183.700000
832.497437	186.000000
832.531982	189.400000
832.566589	184.600000
832.601135	187.600000
832.635681	179.100000
832.670227	185.700000
832.704773	194.000000
832.739380	188.600000
832.773926	188.600000
832.808472	181.900000
832.843079	187.100000
832.877563	190.000000
832.912170	185.200000
832.946716	178.700000
832.981201	192.500000
833.015808	190.100000
833.050293	185.900000
833.084839	182.800000
833.119446	185.100000
833.153992	190.300000
833.188477	187.800000
833.223022	182.000000
833.257568	187.900000
833.292114	193.600000
833.326660	198.100000
833.361145	184.000000
833.395691	179.400000
833.430237	185.500000
833.464783	191.300000
833.499329	183.000000
833.533875	180.800000
833.568359	188.900000
833.602905	192.600000
833.637390	191.200000
833.671875	183.800000
833.706421	185.800000
833.740906	182.100000
833.775452	175.600000
833.809998	183.000000
833.844482	194.000000
833.879028	184.500000
833.913513	183.600000
833.947998	188.000000
833.982544	181.000000
834.017090	182.700000
834.051514	175.900000
834.086060	189.300000
834.120544	186.300000
834.155029	187.700000
834.189575	183.900000
834.223999	188.800000
834.258545	186.400000
834.293030	188.000000
834.327515	185.800000
834.362000	183.200000
834.396545	190.400000
834.430969	184.400000
834.465454	191.200000
834.500000	178.400000
834.534424	189.000000
834.568970	177.200000
834.603455	178.800000
834.637878	181.600000
834.672363	186.800000
834.706909	186.700000
834.741333	188.400000
834.775818	179.700000
834.810242	183.400000
834.844727	186.000000
834.879211	184.600000
834.913635	186.800000
834.948181	189.300000
834.982666	188.500000
835.017090	186.000000
835.051575	188.700000
835.086060	184.000000
835.120483	189.900000
835.154907	191.700000
835.189331	186.400000
835.223816	189.100000
835.258301	181.200000
835.292786	181.600000
835.327209	191.400000
835.361694	182.900000
835.396057	183.400000
835.430542	187.300000
835.465027	185.900000
835.499390	181.400000
835.533875	207.400000
835.568359	183.400000
835.602722	178.100000
835.637207	186.900000
835.671692	181.800000
835.706055	203.300000
835.740540	187.400000
835.774902	188.600000
835.809387	186.100000
835.843811	179.000000
835.878235	193.100000
835.912659	180.100000
835.947083	183.200000
835.981506	185.200000
836.015930	179.100000
836.050354	191.700000
836.084778	194.300000
836.119202	190.800000
836.153625	200.200000
836.187988	181.900000
836.222473	184.000000
836.256897	187.800000
836.291260	186.500000
836.325684	187.000000
836.360046	184.000000
836.394470	186.100000
836.428894	193.700000
836.463318	182.700000
836.497681	192.400000
836.532104	194.000000
836.566467	187.200000
836.600891	186.300000
836.635315	191.700000
836.669678	189.100000
836.704102	191.700000
836.738525	188.700000
836.772888	179.600000
836.807251	185.300000
836.841675	189.800000
836.876038	181.800000
836.910461	184.600000
836.944763	191.100000
836.979187	183.500000
837.013611	192.200000
837.047974	180.800000
837.082336	198.500000
837.116699	190.600000
837.151062	187.000000
837.185486	181.400000
837.219849	185.900000
837.254211	190.400000
837.288574	185.100000
837.322937	180.900000
837.357300	175.000000
837.391663	198.400000
837.426086	191.100000
837.460388	186.600000
837.494751	191.000000
837.529114	184.300000
837.563477	192.300000
837.597839	186.700000
837.632141	186.900000
837.666565	183.600000
837.700928	190.400000
837.735229	189.800000
837.769592	188.400000
837.803955	190.300000
837.838257	183.900000
837.872620	183.300000
837.906982	193.400000
837.941284	186.300000
837.975647	188.200000
838.010010	192.800000
838.044312	184.800000
838.078674	183.000000
838.112976	187.300000
838.147339	190.000000
838.181702	187.600000
838.216003	196.600000
838.250366	188.500000
838.284668	188.500000
838.318970	180.100000
838.353333	184.900000
838.387634	184.300000
838.421936	185.800000
838.456299	187.800000
838.490601	193.900000
838.524902	191.200000
838.559265	192.500000
838.593567	191.000000
838.627869	180.900000
838.662170	189.700000
838.696472	180.100000
838.730774	183.500000
838.765137	191.600000
838.799377	173.800000
838.833740	187.300000
838.868042	191.700000
838.902283	179.000000
838.936646	194.300000
838.970947	187.300000
839.005188	191.100000
839.039551	180.300000
839.073792	192.800000
839.108093	183.800000
839.142395	194.900000
839.176697	180.200000
839.210937	186.600000
839.245300	197.800000
839.279541	180.500000
839.313843	185.000000
839.348145	189.900000
839.382385	190.600000
839.416687	190.200000
839.450989	189.100000
839.485229	186.000000
839.519531	182.800000
839.553833	192.300000
839.588013	187.300000
839.622314	186.900000
839.656555	189.000000
839.690857	186.400000
839.725159	180.500000
839.759460	185.100000
839.793640	184.600000
839.827942	185.800000
839.862183	182.800000
839.896423	189.200000
839.930725	197.700000
839.964966	194.700000
839.999207	193.800000
840.033508	193.200000
840.067688	185.400000
840.101990	196.000000
840.136230	186.400000
840.170471	193.800000
840.204712	183.500000
840.238953	182.700000
840.273193	188.800000
840.307434	190.300000
840.341736	183.500000
840.375916	181.300000
840.410217	184.900000
840.444397	191.800000
840.478638	190.400000
840.512878	192.500000
840.547119	188.400000
840.581360	189.600000
840.615601	197.100000
840.649780	197.200000
840.684021	188.700000
840.718262	195.100000
840.752441	192.200000
840.786682	189.100000
840.820862	189.100000
840.855103	195.200000
840.889343	187.300000
840.923584	191.800000
840.957764	189.600000
840.992004	188.700000
841.026184	201.000000
841.060425	185.500000
841.094666	183.900000
841.128845	190.100000
841.163025	187.300000
841.197266	190.300000
841.231445	189.100000
841.265686	187.900000
841.299866	182.200000
841.334045	195.800000
841.368286	186.300000
841.402405	195.500000
841.436646	191.300000
841.470825	185.200000
841.505005	187.000000
841.539185	183.200000
841.573425	183.700000
841.607544	187.800000
841.641785	186.700000
841.675964	181.700000
841.710144	187.600000
841.744324	185.400000
841.778503	186.300000
841.812683	183.700000
841.846863	195.900000
841.881042	195.100000
841.915222	183.600000
841.949402	202.400000
841.983521	179.500000
842.017700	187.900000
842.051880	188.100000
842.086060	190.900000
842.120239	187.800000
842.154419	184.400000
842.188538	188.400000
842.222717	183.600000
842.256897	197.100000
842.291016	187.400000
842.325195	188.900000
842.359375	197.900000
842.393494	195.300000
842.427673	188.400000
842.461853	190.500000
842.495911	196.200000
842.530090	189.000000
842.564209	186.900000
842.598389	187.700000
842.632568	187.400000
842.666626	192.400000
842.700806	183.600000
842.734985	186.400000
842.769043	190.500000
842.803223	186.100000
842.837402	185.600000
842.871460	184.300000
842.905640	195.300000
842.939697	184.200000
842.973877	188.800000
843.007996	193.400000
843.042175	195.900000
843.076233	186.000000
843.110413	189.000000
843.144470	196.200000
843.178589	193.100000
843.212769	185.400000
843.246826	191.800000
843.280945	185.600000
843.315125	184.800000
843.349182	184.400000
843.383301	194.000000
843.417419	199.800000
843.451538	187.400000
843.485657	186.300000
843.519714	186.400000
843.553833	189.600000
843.587952	185.400000
843.622070	184.800000
843.656128	191.400000
843.690247	187.100000
843.724304	185.600000
843.758423	190.700000
843.792542	186.700000
843.826599	188.200000
843.860718	186.200000
843.894836	181.200000
843.928894	187.700000
843.963013	190.200000
843.997070	184.600000
844.031128	180.200000
844.065247	192.500000
844.099304	192.400000
844.133362	188.400000
844.167480	192.000000
844.201599	195.200000
844.235596	190.200000
844.269714	189.000000
844.303711	190.800000
844.337830	180.300000
844.371948	190.700000
844.405945	186.800000
844.440063	183.000000
844.474121	201.000000
844.508118	186.400000
844.542236	186.800000
844.576294	187.000000
844.610352	181.400000
844.644409	186.300000
844.678406	179.200000
844.712524	192.700000
844.746582	193.900000
844.780640	186.400000
844.814636	187.400000
844.848755	198.600000
844.882751	184.400000
844.916809	192.100000
844.950867	189.200000
844.984863	195.500000
845.018921	186.500000
845.052979	185.700000
845.086975	189.800000
845.121033	181.600000
845.155090	183.700000
845.189087	194.200000
845.223145	187.800000
845.257141	187.200000
845.291199	192.400000
845.325256	195.100000
845.359253	190.800000
845.393250	198.400000
845.427307	186.500000
845.461304	189.400000
845.495361	190.500000
845.529358	197.400000
845.563354	186.000000
845.597412	182.800000
845.631409	196.400000
845.665405	194.400000
845.699463	194.200000
845.733459	186.600000
845.767456	195.900000
845.801453	185.700000
845.835449	193.600000
845.869446	192.900000
845.903503	193.800000
845.937439	185.300000
845.971497	196.200000
846.005493	183.500000
846.039429	194.000000
846.073486	198.800000
846.107483	186.900000
846.141418	189.600000
846.175476	188.300000
846.209473	194.800000
846.243408	184.300000
846.277405	189.500000
846.311401	183.400000
846.345337	188.600000
846.379395	193.300000
846.413330	184.800000
846.447327	197.500000
846.481323	183.800000
846.515259	185.400000
846.549255	190.000000
846.583252	190.700000
846.617187	184.700000
846.651184	189.600000
846.685120	186.800000
846.719055	195.800000
846.753052	192.600000
846.786987	191.800000
846.820984	182.600000
846.854980	196.400000
846.888916	184.500000
846.922852	190.700000
846.956848	198.600000
846.990723	183.400000
847.024719	190.900000
847.058716	187.700000
847.092590	194.800000
847.126587	188.600000
847.160522	186.300000
847.194458	192.500000
847.228455	184.800000
847.262390	182.300000
847.296265	187.000000
847.330261	194.600000
847.364136	187.500000
847.398132	184.700000
847.432068	189.600000
847.466003	186.100000
847.499939	187.800000
847.533875	191.900000
847.567749	186.100000
847.601746	186.700000
847.635681	191.500000
847.669556	179.800000
847.703491	193.700000
847.737427	203.000000
847.771301	182.200000
847.805237	191.000000
847.839233	188.600000
847.873108	187.300000
847.907043	186.800000
847.940918	195.300000
847.974854	188.600000
848.008789	192.800000
848.042664	188.900000
848.076538	191.600000
848.110474	186.900000
848.144348	190.400000
848.178284	181.000000
848.212219	189.800000
848.246094	185.700000
848.279968	189.000000
848.313904	190.500000
848.347778	189.500000
848.381653	187.300000
848.415588	185.600000
848.449463	186.100000
848.483337	191.600000
848.517212	194.200000
848.551086	189.400000
848.585022	184.100000
848.618835	198.000000
848.652771	185.200000
848.686646	184.200000
848.720520	196.400000
848.754395	188.500000
848.788330	192.600000
848.822144	192.200000
848.856018	187.300000
848.889954	197.700000
848.923767	184.400000
848.957642	186.200000
848.991577	192.200000
849.025391	187.400000
849.059265	188.700000
849.093079	185.700000
849.126953	182.600000
849.160828	194.400000
849.194641	188.900000
849.228577	186.200000
849.262451	186.300000
849.296265	186.000000
849.330139	183.400000
849.364014	188.900000
849.397827	191.200000
849.431702	190.400000
849.465515	192.800000
849.499329	179.800000
849.533203	183.400000
849.567078	178.400000
849.600891	192.000000
849.634766	187.500000
849.668518	192.800000
849.702393	188.900000
849.736267	181.300000
849.770020	198.200000
849.803894	192.500000
849.837769	188.400000
849.871521	187.800000
849.905396	193.300000
849.939270	183.700000
849.973022	186.800000
850.006897	192.700000
850.040710	190.700000
850.074524	191.800000
850.108337	187.400000
850.142151	194.100000
850.175964	195.000000
850.209778	189.900000
850.243530	177.000000
850.277405	193.200000
850.311218	187.800000
850.344971	186.400000
850.378845	196.300000
850.412659	185.900000
850.446411	189.000000
850.480225	188.600000
850.514038	194.300000
850.547791	192.100000
850.581665	188.400000
850.615417	186.900000
850.649231	190.100000
850.683044	187.400000
850.716858	188.400000
850.750610	191.000000
850.784424	192.100000
850.818176	187.600000
850.851929	186.100000
850.885742	185.800000
850.919495	187.000000
850.953308	196.400000
850.987122	195.200000
851.020874	184.600000
851.054626	180.700000
851.088440	192.200000
851.122192	191.600000
851.156006	190.600000
851.189697	187.100000
851.223511	183.000000
851.257263	192.400000
851.291077	191.500000
851.324829	188.200000
851.358582	186.500000
851.392334	186.700000
851.426086	187.500000
851.459900	197.200000
851.493591	188.300000
851.527344	190.200000
851.561157	187.600000
851.594849	192.100000
851.628662	188.900000
851.662415	196.600000
851.696106	191.800000
851.729858	194.100000
851.763611	182.500000
851.797363	190.000000
851.831116	184.200000
851.864868	190.700000
851.898560	191.600000
851.932312	186.500000
851.966064	190.500000
851.999817	188.400000
852.033569	188.100000
852.067261	194.000000
852.101013	184.500000
852.134766	190.200000
852.168457	178.900000
852.202209	194.400000
852.235901	185.600000
852.269592	192.100000
852.303345	198.200000
852.337036	193.300000
852.370789	187.700000
852.404541	192.800000
852.438171	185.300000
852.471924	188.400000
852.505676	182.500000
852.539307	190.900000
852.573059	185.800000
852.606812	188.600000
852.640442	186.400000
852.674194	193.900000
852.707886	198.800000
852.741577	196.500000
852.775269	184.500000
852.809021	189.500000
852.842651	191.200000
852.876404	193.800000
852.910034	189.700000
852.943787	194.300000
852.977478	191.400000
853.011108	185.400000
853.044861	184.700000
853.078552	196.000000
853.112183	190.100000
853.145874	189.600000
853.179626	180.500000
853.213257	189.500000
853.246948	186.500000
853.280640	195.700000
853.314270	188.000000
853.347961	194.600000
853.381653	191.000000
853.415283	192.100000
853.448975	186.800000
853.482605	189.600000
853.516296	187.300000
853.549988	181.900000
853.583618	190.300000
853.617310	190.500000
853.651001	190.100000
853.684631	184.900000
853.718323	186.400000
853.751953	195.900000
853.785583	181.200000
853.819275	192.700000
853.852966	190.700000
853.886536	180.400000
853.920227	184.100000
853.953918	194.700000
853.987488	187.900000
854.021179	193.700000
854.054749	198.100000
854.088440	193.600000
854.122131	185.100000
854.155701	191.400000
854.189331	186.600000
854.223022	192.300000
854.256592	191.600000
854.290283	186.400000
854.323914	192.700000
854.357483	191.000000
854.391174	192.400000
854.424744	197.000000
854.458374	189.400000
854.492065	199.800000
854.525696	186.900000
854.559265	195.800000
854.592896	200.500000
854.626465	190.100000
854.660095	189.100000
854.693787	190.200000
854.727356	187.200000
854.760986	193.500000
854.794617	190.700000
854.828186	188.000000
854.861816	192.100000
854.895447	190.000000
854.929016	189.000000
854.962585	192.600000
854.996155	198.300000
855.029785	191.800000
855.063416	191.300000
855.097046	192.500000
855.130615	185.000000
855.164185	195.300000
855.197754	187.900000
855.231384	191.900000
855.264954	187.700000
855.298523	193.200000
855.332153	188.500000
855.365723	197.300000
855.399292	185.500000
855.432922	189.000000
855.466492	190.600000
855.500061	184.100000
855.533630	185.900000
855.567200	193.500000
855.600769	193.000000
855.634338	194.400000
855.667969	190.900000
855.701477	186.000000
855.735046	184.900000
855.768616	182.300000
855.802185	191.100000
855.835754	204.000000
855.869324	181.100000
855.902893	188.900000
855.936401	195.100000
855.969971	190.800000
856.003540	183.500000
856.037109	194.300000
856.070618	189.300000
856.104187	183.700000
856.137695	186.200000
856.171265	180.100000
856.204834	188.800000
856.238403	194.700000
856.271912	186.500000
856.305481	190.800000
856.338989	183.200000
856.372559	190.700000
856.406128	191.700000
856.439636	194.000000
856.473145	186.200000
856.506653	196.900000
856.540222	188.800000
856.573792	195.200000
856.607300	192.100000
856.640808	183.400000
856.674377	189.700000
856.707825	217.400000
856.741394	192.400000
856.774902	184.600000
856.808472	179.900000
856.841980	191.700000
856.875488	197.100000
856.908936	180.400000
856.942505	188.500000
856.976013	188.500000
857.009521	184.400000
857.043030	189.200000
857.076477	188.200000
857.110046	194.100000
857.143555	189.700000
857.177063	191.900000
857.210571	186.700000
857.244080	181.100000
857.277527	192.400000
857.311035	186.900000
857.344543	193.700000
857.378052	188.300000
857.411499	194.400000
857.445068	198.300000
857.478516	190.200000
857.512024	184.200000
857.545532	188.800000
857.578979	190.900000
857.612427	189.600000
857.645874	185.000000
857.679382	192.200000
857.712891	193.500000
857.746399	189.500000
857.779846	194.200000
857.813354	194.700000
857.846741	187.100000
857.880249	185.600000
857.913757	190.600000
857.947266	190.700000
857.980652	191.300000
858.014160	186.700000
858.047546	187.200000
858.081055	187.200000
858.114563	197.200000
858.147949	183.200000
858.181458	193.800000
858.214844	188.500000
858.248352	180.100000
858.281799	193.400000
858.315308	201.200000
858.348694	191.900000
858.382141	197.100000
858.415588	192.000000
858.449036	194.400000
858.482483	190.500000
858.515930	185.600000
858.549377	189.100000
858.582825	196.600000
858.616211	190.000000
858.649658	191.600000
858.683105	183.600000
858.716553	185.500000
858.750000	182.600000
858.783386	186.800000
858.816833	181.900000
858.850281	192.000000
858.883728	191.900000
858.917114	188.600000
858.950562	197.900000
858.983948	197.900000
859.017395	193.100000
859.050781	189.200000
859.084167	186.000000
859.117615	184.800000
859.151062	192.500000
859.184448	186.100000
859.217834	186.500000
859.251282	187.700000
859.284668	186.100000
859.318054	180.100000
859.351440	187.400000
859.384888	197.600000
859.418274	179.800000
859.451721	182.900000
859.485046	192.800000
859.518494	190.800000
859.551819	185.900000
859.585266	191.800000
859.618652	193.000000
859.652039	183.400000
859.685425	185.000000
859.718811	183.100000
859.752197	178.300000
859.785583	195.100000
859.819031	196.000000
859.852356	191.800000
859.885742	187.500000
859.919067	189.100000
859.952454	186.900000
859.985901	194.700000
860.019287	185.900000
860.052612	0.000000
860.085999	0.000000
860.119324	0.000000
860.152710	0.000000
860.186096	0.000000
860.219421	0.000000
860.252808	0.000000
860.286133	0.000000
860.319519	0.000000
860.352905	0.000000
860.386292	0.000000
860.419617	0.000000
860.452942	0.000000
860.486267	0.000000
860.519653	0.000000
860.553040	0.000000
860.586365	0.000000
860.619690	0.000000
860.653076	0.000000
860.686340	0.000000
860.719727	0.000000
860.753113	0.000000
860.786377	0.000000
860.819763	0.000000
860.853027	0.000000
860.886414	0.000000
860.919739	0.000000
860.953125	0.000000
860.986389	0.000000
861.019714	0.000000
861.053040	0.000000
861.086365	0.000000
861.119690	0.000000
861.153076	0.000000
861.186340	0.000000
861.219666	0.000000
861.252930	0.000000
861.286316	0.000000
861.319641	0.000000
861.352905	0.000000
861.386230	0.000000
861.419495	0.000000
861.452820	0.000000
861.486145	0.000000
861.519470	0.000000
861.552734	0.000000
861.586060	0.000000
861.619324	0.000000
861.652649	0.000000
861.685974	0.000000
861.719238	0.000000
861.752563	0.000000
861.785828	0.000000
861.819092	0.000000
861.852417	0.000000
861.885742	0.000000
861.918945	0.000000
861.952271	0.000000
861.985535	0.000000
862.018799	0.000000
862.052124	0.000000
862.085449	0.000000
862.118652	0.000000
862.151978	0.000000
862.185181	0.000000
862.218506	0.000000
862.251770	0.000000
862.285034	0.000000
862.318298	0.000000
862.351562	0.000000
862.384827	0.000000
862.418091	0.000000
862.451355	0.000000
862.484619	0.000000
862.517883	0.000000
862.551086	0.000000
862.584351	0.000000
862.617676	0.000000
862.650940	0.000000
862.684143	0.000000
862.717407	0.000000
862.750610	0.000000
862.783875	0.000000
862.817139	0.000000
862.850342	0.000000
862.883606	0.000000
862.916870	0.000000
862.950073	0.000000
862.983337	0.000000
863.016602	0.000000
863.049805	0.000000
863.083069	0.000000
863.116211	0.000000
863.149475	0.000000
863.182739	0.000000
863.216003	0.000000
863.249146	0.000000
863.282410	0.000000
863.315613	0.000000
863.348816	0.000000
863.382080	0.000000
863.415222	0.000000
863.448486	0.000000
863.481689	0.000000
863.514893	0.000000
863.548157	0.000000
863.581360	0.000000
863.614502	0.000000
863.647766	0.000000
863.680908	0.000000
863.714172	0.000000
863.747375	0.000000
863.780579	0.000000
863.813721	0.000000
863.846985	0.000000
863.880127	0.000000
863.913330	0.000000
863.946533	0.000000
863.979675	0.000000
864.012939	0.000000
