Model Number: SPM-001-M   
Serial Number: 10090201
Firmware Version: 004.17.6
Exposure Time: 500000.000000us
Data Taken on: 03-03-2021 10:23:20.155
Wavelength	Amplitude
733.770752	0.000000
733.808716	0.000000
733.846619	0.000000
733.884583	0.000000
733.922546	0.000000
733.960449	0.000000
733.998413	0.000000
734.036377	0.000000
734.074219	0.000000
734.112183	0.000000
734.150085	0.000000
734.188049	0.000000
734.226013	0.000000
734.263916	0.000000
734.301819	0.000000
734.339783	0.000000
734.377686	0.000000
734.415588	0.000000
734.453552	0.000000
734.491455	0.000000
734.529419	0.000000
734.567322	0.000000
734.605225	0.000000
734.643127	0.000000
734.681091	0.000000
734.718994	0.000000
734.756897	0.000000
734.794800	0.000000
734.832703	0.000000
734.870667	0.000000
734.908508	0.000000
734.946472	0.000000
734.984375	0.000000
735.022278	0.000000
735.060181	0.000000
735.098083	0.000000
735.135986	0.000000
735.173889	0.000000
735.211792	0.000000
735.249695	0.000000
735.287598	0.000000
735.325439	0.000000
735.363403	0.000000
735.401306	0.000000
735.439148	0.000000
735.477051	0.000000
735.515015	0.000000
735.552856	0.000000
735.590759	0.000000
735.628662	0.000000
735.666504	0.000000
735.704407	0.000000
735.742310	0.000000
735.780212	0.000000
735.818115	0.000000
735.856018	0.000000
735.893860	0.000000
735.931763	0.000000
735.969604	0.000000
736.007507	0.000000
736.045410	0.000000
736.083252	0.000000
736.121094	0.000000
736.158997	0.000000
736.196838	0.000000
736.234741	0.000000
736.272644	0.000000
736.310486	0.000000
736.348389	0.000000
736.386230	0.000000
736.424072	0.000000
736.461975	0.000000
736.499878	0.000000
736.537720	0.000000
736.575562	0.000000
736.613403	0.000000
736.651306	0.000000
736.689148	0.000000
736.726990	0.000000
736.764893	0.000000
736.802734	0.000000
736.840576	0.000000
736.878418	0.000000
736.916321	0.000000
736.954102	0.000000
736.992004	0.000000
737.029846	0.000000
737.067688	0.000000
737.105530	0.000000
737.143372	0.000000
737.181213	0.000000
737.219116	0.000000
737.256897	0.000000
737.294739	0.000000
737.332642	0.000000
737.370422	0.000000
737.408325	0.000000
737.446167	0.000000
737.483948	0.000000
737.521790	0.000000
737.559692	0.000000
737.597473	0.000000
737.635315	0.000000
737.673157	0.000000
737.710999	0.000000
737.748840	0.000000
737.786621	0.000000
737.824463	0.000000
737.862305	0.000000
737.900085	0.000000
737.937927	0.000000
737.975769	0.000000
738.013550	0.000000
738.051392	0.000000
738.089233	0.000000
738.127014	0.000000
738.164856	0.000000
738.202698	0.000000
738.240479	0.000000
738.278320	0.000000
738.316162	0.000000
738.353943	0.000000
738.391785	0.000000
738.429565	0.000000
738.467407	0.000000
738.505188	0.000000
738.542969	0.000000
738.580811	0.000000
738.618652	0.000000
738.656372	0.000000
738.694214	0.000000
738.732056	0.000000
738.769836	0.000000
738.807617	0.000000
738.845459	0.000000
738.883240	0.000000
738.921021	0.000000
738.958862	0.000000
738.996582	0.000000
739.034424	0.000000
739.072205	0.000000
739.109985	0.000000
739.147827	0.000000
739.185547	0.000000
739.223389	0.000000
739.261169	0.000000
739.298889	0.000000
739.336731	0.000000
739.374512	0.000000
739.412292	0.000000
739.450073	0.000000
739.487854	0.000000
739.525635	0.000000
739.563416	0.000000
739.601135	0.000000
739.638977	0.000000
739.676758	0.000000
739.714478	0.000000
739.752258	0.000000
739.790100	0.000000
739.827820	0.000000
739.865601	0.000000
739.903381	0.000000
739.941101	0.000000
739.978882	191.100000
740.016724	186.300000
740.054443	192.100000
740.092224	183.300000
740.130005	184.900000
740.167725	184.700000
740.205505	184.800000
740.243225	193.600000
740.281006	189.100000
740.318787	180.400000
740.356506	193.400000
740.394287	192.100000
740.432068	183.900000
740.469727	180.700000
740.507507	192.700000
740.545288	185.700000
740.583008	190.800000
740.620789	189.100000
740.658569	179.100000
740.696228	186.200000
740.734009	193.100000
740.771790	176.400000
740.809509	191.100000
740.847229	183.500000
740.884949	186.400000
740.922729	180.300000
740.960449	185.200000
740.998169	182.300000
741.035950	184.900000
741.073669	189.600000
741.111389	188.500000
741.149170	195.800000
741.186890	197.000000
741.224609	191.300000
741.262329	188.200000
741.300110	197.400000
741.337769	182.400000
741.375549	181.300000
741.413208	189.000000
741.450989	182.800000
741.488708	183.900000
741.526367	185.700000
741.564148	190.800000
741.601868	191.700000
741.639526	185.400000
741.677307	189.500000
741.715027	189.300000
741.752686	184.600000
741.790466	193.900000
741.828186	191.600000
741.865845	183.200000
741.903564	179.700000
741.941345	186.300000
741.979004	182.900000
742.016724	189.100000
742.054382	187.600000
742.092102	191.000000
742.129822	180.300000
742.167480	184.900000
742.205200	186.000000
742.242920	189.200000
742.280640	192.200000
742.318359	183.800000
742.356079	185.300000
742.393738	190.400000
742.431396	187.100000
742.469116	190.000000
742.506775	179.300000
742.544495	191.700000
742.582214	192.000000
742.619873	185.200000
742.657593	194.000000
742.695251	191.300000
742.732971	186.900000
742.770630	189.700000
742.808289	187.100000
742.846008	187.000000
742.883728	189.000000
742.921326	187.200000
742.959045	185.600000
742.996765	186.900000
743.034424	186.500000
743.072083	183.300000
743.109802	187.500000
743.147400	180.700000
743.185120	188.300000
743.222839	186.900000
743.260437	193.000000
743.298157	190.100000
743.335754	179.400000
743.373474	186.400000
743.411133	179.100000
743.448792	188.500000
743.486450	186.100000
743.524170	180.800000
743.561768	187.800000
743.599487	195.000000
743.637146	197.400000
743.674744	186.500000
743.712463	186.300000
743.750122	189.200000
743.787720	187.800000
743.825439	183.700000
743.863037	185.100000
743.900696	188.100000
743.938416	211.300000
743.976013	186.500000
744.013672	194.800000
744.051331	192.800000
744.088928	195.900000
744.126587	193.200000
744.164307	187.700000
744.201904	184.600000
744.239563	190.900000
744.277222	189.900000
744.314819	186.500000
744.352478	194.900000
744.390137	188.100000
744.427734	189.700000
744.465393	185.100000
744.502991	184.600000
744.540649	190.800000
744.578308	188.400000
744.615906	182.200000
744.653564	179.400000
744.691223	190.800000
744.728821	181.400000
744.766418	184.700000
744.804077	190.500000
744.841675	184.500000
744.879333	180.400000
744.916992	187.500000
744.954529	184.600000
744.992187	192.000000
745.029785	186.000000
745.067444	184.800000
745.105042	188.400000
745.142639	190.700000
745.180298	197.800000
745.217896	186.300000
745.255493	186.300000
745.293152	192.800000
745.330750	191.800000
745.368347	196.400000
745.405945	189.800000
745.443604	189.100000
745.481140	191.300000
745.518799	187.100000
745.556396	190.100000
745.593994	192.100000
745.631592	187.000000
745.669189	183.000000
745.706787	189.200000
745.744385	183.700000
745.781982	189.300000
745.819580	186.200000
745.857178	186.200000
745.894775	187.700000
745.932373	187.500000
745.969971	189.900000
746.007568	178.400000
746.045166	196.700000
746.082764	190.900000
746.120300	190.900000
746.157898	191.100000
746.195557	187.300000
746.233093	181.800000
746.270691	192.200000
746.308228	189.800000
746.345825	193.500000
746.383423	191.400000
746.420959	185.100000
746.458557	183.700000
746.496155	186.100000
746.533691	187.700000
746.571289	182.600000
746.608887	189.500000
746.646423	188.800000
746.684021	187.900000
746.721619	184.400000
746.759155	188.500000
746.796753	181.500000
746.834351	181.600000
746.871826	184.500000
746.909424	193.800000
746.946960	189.400000
746.984558	187.600000
747.022156	185.600000
747.059631	195.600000
747.097229	190.500000
747.134827	186.300000
747.172363	194.700000
747.209900	191.900000
747.247498	182.100000
747.285034	196.200000
747.322571	194.300000
747.360168	187.900000
747.397644	180.000000
747.435242	192.300000
747.472778	192.900000
747.510315	186.300000
747.547913	186.800000
747.585388	195.800000
747.622925	186.300000
747.660522	181.000000
747.697998	182.900000
747.735596	186.400000
747.773132	184.700000
747.810669	187.000000
747.848206	190.200000
747.885742	183.100000
747.923279	181.200000
747.960815	190.600000
747.998352	186.700000
748.035889	193.000000
748.073425	192.200000
748.110901	186.000000
748.148437	181.300000
748.185974	187.900000
748.223511	196.600000
748.261047	189.900000
748.298584	188.400000
748.336060	186.600000
748.373596	188.900000
748.411133	208.400000
748.448608	182.800000
748.486145	191.700000
748.523682	196.500000
748.561218	194.700000
748.598755	188.500000
748.636292	191.300000
748.673706	186.100000
748.711243	195.000000
748.748718	188.500000
748.786255	187.500000
748.823792	189.200000
748.861267	183.600000
748.898804	190.000000
748.936340	190.900000
748.973816	187.500000
749.011292	194.400000
749.048828	188.500000
749.086304	190.000000
749.123840	200.800000
749.161316	182.900000
749.198792	196.800000
749.236328	193.200000
749.273743	188.400000
749.311279	184.800000
749.348816	190.700000
749.386230	187.300000
749.423767	178.800000
749.461304	189.300000
749.498718	188.900000
749.536255	193.500000
749.573730	200.100000
749.611206	192.700000
749.648682	188.100000
749.686218	187.000000
749.723633	192.500000
749.761169	184.800000
749.798645	184.800000
749.836060	187.500000
749.873596	185.000000
749.911011	187.700000
749.948547	193.700000
749.986023	188.400000
750.023437	187.700000
750.060913	182.300000
750.098450	182.800000
750.135864	187.400000
750.173340	188.400000
750.210815	192.300000
750.248291	184.700000
750.285767	188.100000
750.323242	194.600000
750.360657	190.100000
750.398132	184.200000
750.435608	191.900000
750.473022	184.800000
750.510498	183.500000
750.547974	184.700000
750.585449	186.800000
750.622925	177.400000
750.660339	197.900000
750.697815	188.900000
750.735291	186.700000
750.772644	188.200000
750.810120	190.900000
750.847595	189.900000
750.885010	184.200000
750.922485	196.500000
750.959961	186.500000
750.997375	194.300000
751.034851	192.700000
751.072266	192.100000
751.109680	181.300000
751.147156	192.900000
751.184570	190.800000
751.221985	187.900000
751.259460	180.800000
751.296875	187.400000
751.334290	189.000000
751.371765	191.900000
751.409180	192.600000
751.446594	192.900000
751.484070	191.000000
751.521423	189.300000
751.558899	190.100000
751.596375	194.700000
751.633728	195.300000
751.671204	199.700000
751.708618	184.900000
751.746033	188.500000
751.783447	183.900000
751.820801	183.600000
751.858276	191.600000
751.895691	187.600000
751.933105	187.300000
751.970520	181.800000
752.007935	186.200000
752.045349	192.300000
752.082764	190.100000
752.120178	186.900000
752.157532	184.200000
752.195007	185.000000
752.232422	191.000000
752.269775	192.200000
752.307190	191.700000
752.344543	184.500000
752.382019	187.600000
752.419434	186.700000
752.456787	190.700000
752.494202	192.300000
752.531616	188.700000
752.568970	192.000000
752.606384	189.300000
752.643799	190.100000
752.681152	195.400000
752.718567	191.400000
752.755981	179.400000
752.793335	191.300000
752.830750	180.900000
752.868164	193.100000
752.905518	182.800000
752.942932	192.400000
752.980225	182.500000
753.017639	193.800000
753.055054	187.100000
753.092407	192.200000
753.129822	193.000000
753.167175	197.200000
753.204529	186.700000
753.241943	186.200000
753.279358	180.300000
753.316650	192.500000
753.354065	190.200000
753.391479	192.900000
753.428772	196.600000
753.466187	192.400000
753.503479	182.000000
753.540894	188.400000
753.578308	182.200000
753.615601	183.100000
753.653015	186.900000
753.690369	187.400000
753.727722	184.000000
753.765076	181.100000
753.802490	182.200000
753.839783	179.400000
753.877136	184.400000
753.914551	202.400000
753.951843	183.300000
753.989258	193.300000
754.026611	188.400000
754.063904	191.200000
754.101257	182.700000
754.138611	180.800000
754.175964	188.400000
754.213318	200.000000
754.250610	181.500000
754.288025	186.200000
754.325378	182.200000
754.362671	193.300000
754.400024	186.400000
754.437378	196.600000
754.474670	197.300000
754.512085	185.200000
754.549438	188.700000
754.586731	183.200000
754.624084	185.700000
754.661438	182.800000
754.698730	197.500000
754.736084	187.200000
754.773376	186.700000
754.810730	189.500000
754.848083	187.900000
754.885315	191.200000
754.922668	180.900000
754.960022	181.500000
754.997314	190.800000
755.034668	187.900000
755.072021	187.400000
755.109253	184.100000
755.146606	193.300000
755.183960	183.800000
755.221252	194.900000
755.258545	189.200000
755.295898	193.900000
755.333191	193.400000
755.370544	188.900000
755.407776	186.600000
755.445129	188.500000
755.482422	191.200000
755.519714	184.400000
755.557068	178.900000
755.594360	178.100000
755.631653	189.300000
755.668945	195.300000
755.706299	187.000000
755.743530	198.800000
755.780884	192.300000
755.818176	193.500000
755.855408	190.900000
755.892761	188.200000
755.930054	187.300000
755.967346	189.500000
756.004639	190.300000
756.041870	186.800000
756.079224	191.100000
756.116516	182.800000
756.153748	191.800000
756.191040	195.500000
756.228394	190.000000
756.265625	183.900000
756.302917	187.900000
756.340210	184.800000
756.377441	193.400000
756.414795	194.200000
756.452087	187.500000
756.489319	182.300000
756.526611	191.600000
756.563843	188.900000
756.601135	197.100000
756.638428	196.800000
756.675659	186.800000
756.712952	191.300000
756.750244	191.200000
756.787476	189.300000
756.824768	194.100000
756.862061	185.000000
756.899292	235.700000
756.936584	193.200000
756.973816	199.300000
757.011047	199.100000
757.048340	189.700000
757.085632	188.100000
757.122864	205.300000
757.160156	185.200000
757.197327	192.600000
757.234619	193.100000
757.271912	188.700000
757.309082	193.000000
757.346375	186.100000
757.383667	195.400000
757.420837	190.600000
757.458130	190.400000
757.495422	188.800000
757.532593	190.500000
757.569885	184.800000
757.607117	185.800000
757.644348	190.800000
757.681580	203.300000
757.718811	177.500000
757.756042	188.000000
757.793335	187.700000
757.830505	193.700000
757.867798	187.400000
757.905029	184.900000
757.942200	191.500000
757.979492	185.800000
758.016724	189.900000
758.053894	187.000000
758.091187	207.600000
758.128418	189.600000
758.165588	190.100000
758.202820	201.700000
758.240112	188.800000
758.277283	200.600000
758.314514	191.600000
758.351685	189.400000
758.388916	199.700000
758.426147	197.400000
758.463379	198.500000
758.500610	193.000000
758.537842	191.000000
758.575012	197.400000
758.612244	185.900000
758.649475	203.300000
758.686646	184.600000
758.723877	198.800000
758.761108	200.200000
758.798279	191.300000
758.835510	193.500000
758.872742	200.600000
758.909851	193.300000
758.947083	196.400000
758.984253	192.800000
759.021484	197.600000
759.058716	195.800000
759.095886	197.900000
759.133057	191.300000
759.170288	197.800000
759.207458	188.500000
759.244690	204.600000
759.281860	201.100000
759.319031	194.600000
759.356262	190.500000
759.393433	192.600000
759.430603	191.000000
759.467773	192.600000
759.505005	199.000000
759.542175	199.800000
759.579346	193.100000
759.616516	195.500000
759.653687	196.100000
759.690918	192.300000
759.728027	195.800000
759.765259	196.200000
759.802429	198.300000
759.839539	197.400000
759.876770	200.900000
759.913940	206.300000
759.951111	199.000000
759.988281	197.400000
760.025452	195.000000
760.062561	192.100000
760.099792	205.800000
760.136963	200.200000
760.174072	196.500000
760.211243	191.500000
760.248413	192.600000
760.285583	192.800000
760.322754	206.300000
760.359863	202.500000
760.397034	203.900000
760.434204	195.700000
760.471375	198.000000
760.508545	195.400000
760.545715	197.400000
760.582825	192.200000
760.619995	203.300000
760.657166	191.300000
760.694275	203.900000
760.731445	199.600000
760.768555	199.400000
760.805664	201.900000
760.842834	200.500000
760.879944	201.700000
760.917114	201.900000
760.954285	198.100000
760.991394	193.000000
761.028564	204.900000
761.065674	202.600000
761.102783	193.800000
761.139954	202.400000
761.177124	202.400000
761.214172	206.400000
761.251343	198.000000
761.288452	200.300000
761.325562	202.300000
761.362732	196.800000
761.399841	197.700000
761.436951	201.200000
761.474121	194.000000
761.511169	200.200000
761.548340	202.100000
761.585449	204.000000
761.622559	203.500000
761.659668	200.800000
761.696838	205.000000
761.733887	203.400000
761.771057	197.200000
761.808167	197.800000
761.845276	203.600000
761.882385	212.600000
761.919434	200.200000
761.956604	218.600000
761.993713	197.300000
762.030762	208.200000
762.067871	201.100000
762.105042	200.100000
762.142090	208.700000
762.179199	203.200000
762.216309	207.700000
762.253418	217.400000
762.290527	212.200000
762.327637	207.900000
762.364685	198.900000
762.401794	208.300000
762.438904	206.600000
762.475952	202.000000
762.513062	200.200000
762.550110	201.200000
762.587219	215.700000
762.624329	212.300000
762.661377	208.300000
762.698486	206.900000
762.735596	207.900000
762.772644	199.700000
762.809753	199.300000
762.846863	205.500000
762.883911	210.800000
762.921021	209.300000
762.958069	206.300000
762.995117	213.500000
763.032227	213.100000
763.069336	204.000000
763.106323	202.500000
763.143433	200.500000
763.180481	210.800000
763.217590	208.600000
763.254639	207.400000
763.291687	206.300000
763.328735	214.300000
763.365845	205.700000
763.402893	207.300000
763.439941	209.100000
763.477051	212.700000
763.514038	213.400000
763.551147	207.600000
763.588196	210.500000
763.625244	209.200000
763.662292	215.200000
763.699402	219.200000
763.736389	212.700000
763.773499	222.100000
763.810486	212.900000
763.847534	210.900000
763.884644	212.000000
763.921631	208.400000
763.958679	221.000000
763.995728	211.900000
764.032776	220.700000
764.069824	207.200000
764.106873	216.900000
764.143860	220.700000
764.180969	211.600000
764.218018	220.000000
764.255005	208.900000
764.292053	211.500000
764.329102	221.800000
764.366089	220.700000
764.403137	220.200000
764.440125	212.500000
764.477173	214.100000
764.514221	218.600000
764.551208	218.600000
764.588257	210.600000
764.625305	221.300000
764.662292	223.600000
764.699341	228.400000
764.736389	216.800000
764.773376	234.300000
764.810425	220.300000
764.847473	228.500000
764.884399	221.800000
764.921448	234.100000
764.958435	229.500000
764.995483	220.800000
765.032532	238.200000
765.069458	223.100000
765.106506	221.900000
765.143555	221.000000
765.180481	224.400000
765.217529	234.000000
765.254578	217.200000
765.291504	229.200000
765.328552	223.600000
765.365540	222.700000
765.402527	236.600000
765.439575	225.100000
765.476501	218.900000
765.513550	219.900000
765.550537	225.600000
765.587463	232.700000
765.624512	223.800000
765.661499	215.600000
765.698486	233.000000
765.735474	221.500000
765.772461	225.500000
765.809448	233.400000
765.846436	231.700000
765.883423	235.700000
765.920410	229.500000
765.957397	224.700000
765.994385	231.100000
766.031311	238.400000
766.068359	232.900000
766.105286	233.000000
766.142273	239.000000
766.179260	233.200000
766.216187	227.500000
766.253174	224.300000
766.290161	234.900000
766.327148	233.900000
766.364136	235.800000
766.401123	250.700000
766.438049	229.800000
766.475037	241.800000
766.512024	237.500000
766.548950	249.700000
766.585937	246.300000
766.622864	239.700000
766.659790	239.700000
766.696777	229.300000
766.733704	244.000000
766.770691	230.200000
766.807678	247.200000
766.844604	240.500000
766.881531	241.100000
766.918518	245.900000
766.955444	248.500000
766.992432	238.500000
767.029358	241.900000
767.066284	244.700000
767.103271	242.300000
767.140198	269.900000
767.177124	259.100000
767.214050	247.200000
767.251038	248.800000
767.287964	242.500000
767.324890	240.800000
767.361816	243.700000
767.398743	250.800000
767.435730	243.800000
767.472595	248.800000
767.509583	251.700000
767.546509	239.100000
767.583374	245.500000
767.620361	237.100000
767.657288	244.600000
767.694214	246.400000
767.731140	246.000000
767.768066	247.100000
767.804993	250.600000
767.841919	240.200000
767.878845	248.700000
767.915710	255.200000
767.952698	249.500000
767.989563	250.900000
768.026489	253.300000
768.063416	244.600000
768.100281	245.800000
768.137207	257.400000
768.174133	254.600000
768.211060	253.700000
768.247986	254.000000
768.284912	251.400000
768.321777	252.500000
768.358704	249.600000
768.395630	254.000000
768.432495	247.000000
768.469421	254.400000
768.506348	258.100000
768.543152	265.100000
768.580078	259.700000
768.616943	261.600000
768.653870	262.000000
768.690796	263.500000
768.727661	257.700000
768.764587	261.000000
768.801453	254.000000
768.838318	264.000000
768.875244	261.900000
768.912109	266.100000
768.948975	258.600000
768.985901	260.000000
769.022766	257.500000
769.059631	264.600000
769.096558	258.200000
769.133362	260.700000
769.170288	260.100000
769.207214	260.600000
769.244019	266.600000
769.280945	263.800000
769.317810	270.200000
769.354675	267.700000
769.391541	276.100000
769.428406	269.400000
769.465271	278.100000
769.502136	266.000000
769.539062	268.500000
769.575867	268.100000
769.612732	270.900000
769.649597	276.000000
769.686462	277.600000
769.723328	271.900000
769.760193	270.100000
769.797058	272.900000
769.833923	282.100000
769.870728	276.100000
769.907593	278.500000
769.944519	277.000000
769.981323	280.800000
770.018188	279.200000
770.055054	277.800000
770.091858	274.300000
770.128723	287.100000
770.165588	290.400000
770.202393	277.600000
770.239258	288.300000
770.276062	284.300000
770.312927	283.000000
770.349792	290.100000
770.386597	285.600000
770.423462	294.100000
770.460327	301.500000
770.497131	287.800000
770.533997	278.900000
770.570862	294.400000
770.607605	297.000000
770.644470	292.600000
770.681335	293.800000
770.718140	295.500000
770.754944	289.200000
770.791809	289.300000
770.828613	289.700000
770.865479	294.200000
770.902222	302.400000
770.939087	298.200000
770.975952	288.200000
771.012695	295.100000
771.049561	309.100000
771.086365	295.600000
771.123169	294.500000
771.159973	297.200000
771.196838	297.800000
771.233582	300.900000
771.270447	298.900000
771.307251	304.800000
771.344055	299.900000
771.380859	306.200000
771.417664	297.800000
771.454468	309.900000
771.491272	307.500000
771.528076	306.900000
771.564880	304.700000
771.601685	314.600000
771.638428	303.900000
771.675293	309.700000
771.712097	300.300000
771.748840	315.500000
771.785645	307.800000
771.822449	311.400000
771.859253	314.300000
771.896057	309.500000
771.932861	320.900000
771.969604	312.700000
772.006409	305.900000
772.043213	318.800000
772.079956	315.000000
772.116760	310.200000
772.153503	314.700000
772.190308	325.100000
772.227112	316.100000
772.263855	309.600000
772.300659	314.600000
772.337463	321.800000
772.374207	312.500000
772.411011	309.300000
772.447754	314.800000
772.484497	329.400000
772.521301	320.000000
772.558105	319.000000
772.594849	318.000000
772.631592	320.900000
772.668396	320.900000
772.705139	325.900000
772.741882	321.200000
772.778625	333.300000
772.815430	335.200000
772.852173	327.700000
772.888916	334.100000
772.925720	336.300000
772.962463	342.700000
772.999207	335.700000
773.035950	343.900000
773.072754	339.600000
773.109436	334.600000
773.146240	335.500000
773.182922	334.100000
773.219727	341.100000
773.256470	336.800000
773.293152	326.500000
773.329956	335.900000
773.366699	341.300000
773.403381	331.500000
773.440186	336.400000
773.476929	338.300000
773.513611	335.400000
773.550354	335.300000
773.587158	333.400000
773.623840	329.700000
773.660583	335.700000
773.697327	346.400000
773.734009	340.900000
773.770813	342.100000
773.807495	339.700000
773.844238	339.500000
773.880981	351.000000
773.917664	346.700000
773.954407	350.600000
773.991150	346.900000
774.027832	353.000000
774.064575	343.700000
774.101318	352.000000
774.138000	352.100000
774.174744	349.500000
774.211487	349.500000
774.248108	338.900000
774.284851	338.600000
774.321594	347.000000
774.358276	341.400000
774.395020	354.500000
774.431702	348.400000
774.468384	343.300000
774.505127	337.200000
774.541809	348.500000
774.578491	353.100000
774.615234	359.200000
774.651917	347.200000
774.688599	357.200000
774.725342	362.400000
774.762024	358.900000
774.798706	358.600000
774.835449	358.800000
774.872070	365.700000
774.908813	366.600000
774.945496	361.600000
774.982178	364.000000
775.018860	364.300000
775.055542	366.400000
775.092224	364.800000
775.128967	372.800000
775.165588	371.300000
775.202271	362.200000
775.239014	375.000000
775.275635	375.700000
775.312317	370.100000
775.349060	378.900000
775.385681	377.000000
775.422363	370.400000
775.459045	374.500000
775.495667	376.000000
775.532410	377.200000
775.569092	379.300000
775.605713	383.300000
775.642395	380.200000
775.679016	385.600000
775.715698	384.100000
775.752380	385.000000
775.789001	380.700000
775.825684	380.700000
775.862366	383.600000
775.898987	395.700000
775.935669	382.800000
775.972351	402.800000
776.008972	397.900000
776.045654	396.900000
776.082336	390.300000
776.118958	391.500000
776.155640	397.400000
776.192322	401.200000
776.228882	399.400000
776.265564	402.900000
776.302185	397.300000
776.338867	408.500000
776.375488	394.200000
776.412109	405.900000
776.448792	408.100000
776.485413	418.100000
776.522034	406.000000
776.558716	403.100000
776.595337	402.300000
776.631958	408.400000
776.668579	408.300000
776.705261	414.500000
776.741882	410.000000
776.778503	413.600000
776.815186	415.600000
776.851746	422.800000
776.888367	418.800000
776.924988	428.800000
776.961609	416.800000
776.998291	418.700000
777.034851	412.200000
777.071472	425.600000
777.108154	421.800000
777.144714	433.600000
777.181335	431.800000
777.218018	425.200000
777.254578	433.500000
777.291199	426.200000
777.327759	431.000000
777.364380	441.700000
777.401062	449.200000
777.437622	456.800000
777.474243	443.200000
777.510864	451.700000
777.547424	446.500000
777.584045	446.100000
777.620667	447.400000
777.657227	445.300000
777.693848	445.000000
777.730469	461.500000
777.767029	452.400000
777.803650	456.500000
777.840271	453.800000
777.876831	452.800000
777.913452	462.300000
777.950012	446.400000
777.986633	448.300000
778.023193	444.200000
778.059753	441.900000
778.096375	443.800000
778.132996	461.500000
778.169556	445.300000
778.206116	448.200000
778.242737	443.000000
778.279297	452.800000
778.315857	439.300000
778.352478	448.600000
778.389038	454.600000
778.425598	458.700000
778.462219	467.000000
778.498718	463.100000
778.535339	462.800000
778.571838	467.200000
778.608459	467.000000
778.645020	463.600000
778.681580	472.000000
778.718140	473.400000
778.754761	464.100000
778.791260	472.900000
778.827881	477.200000
778.864441	469.000000
778.900940	478.600000
778.937561	475.500000
778.974121	473.000000
779.010620	462.100000
779.047241	464.200000
779.083801	475.900000
779.120300	476.600000
779.156860	479.100000
779.193359	478.100000
779.229980	477.800000
779.266541	480.600000
779.303040	481.300000
779.339600	474.800000
779.376160	471.300000
779.412659	477.200000
779.449219	470.500000
779.485779	480.200000
779.522278	476.800000
779.558838	477.800000
779.595398	477.400000
779.631897	479.800000
779.668457	467.900000
779.705017	481.300000
779.741516	469.400000
779.778076	465.100000
779.814575	467.600000
779.851074	474.800000
779.887634	474.900000
779.924133	483.500000
779.960693	468.800000
779.997253	483.900000
780.033691	481.800000
780.070251	483.300000
780.106812	495.900000
780.143250	493.600000
780.179810	493.200000
780.216370	495.300000
780.252808	494.500000
780.289368	502.100000
780.325867	497.400000
780.362366	492.600000
780.398865	504.000000
780.435364	494.500000
780.471863	501.600000
780.508423	495.500000
780.544861	499.500000
780.581421	502.000000
780.617920	492.600000
780.654419	491.200000
780.690918	496.600000
780.727417	506.200000
780.763916	501.700000
780.800415	509.300000
780.836914	499.900000
780.873352	511.200000
780.909912	502.300000
780.946411	506.100000
780.982849	510.400000
781.019348	523.600000
781.055786	514.400000
781.092346	510.800000
781.128845	515.400000
781.165283	515.300000
781.201782	527.300000
781.238281	523.600000
781.274719	528.400000
781.311218	523.400000
781.347717	536.600000
781.384155	522.100000
781.420654	526.800000
781.457092	534.100000
781.493591	532.600000
781.530090	527.400000
781.566528	528.900000
781.602966	536.700000
781.639465	532.600000
781.675903	528.400000
781.712402	533.400000
781.748901	537.200000
781.785278	532.500000
781.821777	537.300000
781.858276	534.200000
781.894714	548.000000
781.931152	538.900000
781.967651	545.600000
782.004089	539.000000
782.040527	550.100000
782.076965	551.000000
782.113403	552.200000
782.149902	561.000000
782.186340	550.500000
782.222778	566.600000
782.259277	553.500000
782.295654	550.800000
782.332092	557.600000
782.368591	556.100000
782.404968	552.900000
782.441467	561.900000
782.477905	563.300000
782.514282	561.300000
782.550781	577.700000
782.587219	573.300000
782.623596	577.400000
782.660095	579.000000
782.696472	581.700000
782.732910	587.000000
782.769348	584.800000
782.805786	601.300000
782.842224	602.000000
782.878662	599.400000
782.915039	600.600000
782.951477	601.300000
782.987915	592.200000
783.024292	597.800000
783.060730	599.400000
783.097168	590.300000
783.133545	591.800000
783.169983	584.900000
783.206421	580.600000
783.242798	577.900000
783.279236	570.800000
783.315613	570.900000
783.352051	573.600000
783.388489	566.300000
783.424866	561.300000
783.461304	564.000000
783.497681	570.800000
783.534058	567.600000
783.570496	570.700000
783.606934	563.500000
783.643250	575.400000
783.679687	584.700000
783.716125	572.300000
783.752441	582.600000
783.788879	600.500000
783.825317	607.200000
783.861633	609.200000
783.898071	607.000000
783.934448	616.100000
783.970825	628.400000
784.007263	627.900000
784.043579	626.300000
784.080017	629.300000
784.116394	623.500000
784.152710	627.700000
784.189148	631.300000
784.225525	639.000000
784.261902	633.800000
784.298279	629.800000
784.334656	624.700000
784.371033	611.700000
784.407410	612.700000
784.443787	598.600000
784.480164	588.200000
784.516541	571.300000
784.552856	579.200000
784.589233	574.400000
784.625610	565.400000
784.661987	590.300000
784.698364	577.500000
784.734741	567.100000
784.771057	557.700000
784.807434	537.100000
784.843811	528.400000
784.880127	494.300000
784.916504	492.900000
784.952881	471.400000
784.989197	446.400000
785.025574	424.300000
785.061951	406.100000
785.098267	401.100000
785.134644	380.100000
785.170959	373.900000
785.207275	386.400000
785.243652	396.300000
785.279968	398.500000
785.316345	422.500000
785.352722	443.600000
785.388977	461.300000
785.425354	472.300000
785.461731	480.200000
785.498047	499.800000
785.534363	511.800000
785.570679	531.200000
785.606995	543.600000
785.643372	563.200000
785.679687	571.500000
785.716003	571.200000
785.752380	571.400000
785.788635	575.900000
785.825012	590.800000
785.861328	599.600000
785.897644	589.600000
785.933960	606.800000
785.970337	611.000000
786.006592	627.600000
786.042908	628.400000
786.079285	635.700000
786.115540	639.600000
786.151855	639.500000
786.188171	643.800000
786.224487	647.700000
786.260803	636.900000
786.297119	645.700000
786.333435	639.000000
786.369751	634.100000
786.406006	630.400000
786.442322	619.000000
786.478638	612.000000
786.514954	620.000000
786.551270	617.200000
786.587585	635.700000
786.623840	626.800000
786.660156	628.600000
786.696472	611.100000
786.732727	605.100000
786.769043	606.300000
786.805298	600.800000
786.841614	611.100000
786.877930	620.200000
786.914124	612.700000
786.950439	628.000000
786.986755	638.900000
787.023010	643.300000
787.059326	649.500000
787.095642	654.300000
787.131836	666.900000
787.168152	657.000000
787.204468	660.300000
787.240723	669.600000
787.276978	679.600000
787.313293	681.300000
787.349548	676.700000
787.385803	677.500000
787.422058	665.700000
787.458313	661.600000
787.494629	659.300000
787.530823	655.800000
787.567139	643.800000
787.603455	636.500000
787.639648	634.600000
787.675903	634.800000
787.712219	638.100000
787.748413	632.100000
787.784729	645.400000
787.820984	631.800000
787.857178	630.100000
787.893494	625.900000
787.929749	626.100000
787.965942	632.800000
788.002258	645.000000
788.038452	651.400000
788.074707	646.700000
788.110962	660.400000
788.147217	661.300000
788.183472	670.300000
788.219727	673.200000
788.255920	684.500000
788.292175	688.600000
788.328430	683.900000
788.364624	674.300000
788.400879	672.300000
788.437134	673.700000
788.473328	674.400000
788.509583	677.800000
788.545837	679.400000
788.582031	676.200000
788.618286	666.700000
788.654480	656.500000
788.690735	663.300000
788.726990	680.800000
788.763184	677.100000
788.799377	690.500000
788.835632	683.900000
788.871826	695.800000
788.908081	688.700000
788.944336	681.100000
788.980469	703.200000
789.016724	697.200000
789.052979	703.700000
789.089111	686.800000
789.125366	698.500000
789.161621	684.000000
789.197754	696.700000
789.234009	693.600000
789.270142	685.400000
789.306396	679.300000
789.342590	674.600000
789.378784	660.100000
789.414978	661.400000
789.451233	677.300000
789.487366	680.000000
789.523621	689.900000
789.559814	677.200000
789.595947	669.200000
789.632202	669.000000
789.668335	680.300000
789.704529	692.300000
789.740784	701.500000
789.776917	700.700000
789.813110	696.700000
789.849304	710.500000
789.885498	708.300000
789.921692	722.800000
789.957886	718.400000
789.994019	725.200000
790.030212	722.300000
790.066406	727.500000
790.102539	723.000000
790.138733	734.900000
790.174927	726.100000
790.211060	740.400000
790.247253	727.500000
790.283386	723.000000
790.319580	717.700000
790.355774	711.400000
790.391907	711.100000
790.428101	729.100000
790.464294	726.000000
790.500427	726.500000
790.536621	707.100000
790.572754	696.500000
790.608887	697.600000
790.645081	708.700000
790.681274	717.600000
790.717346	711.900000
790.753540	700.000000
790.789734	688.100000
790.825867	668.600000
790.862000	671.700000
790.898132	681.500000
790.934265	674.400000
790.970459	678.900000
791.006592	675.300000
791.042725	672.200000
791.078918	666.500000
791.114990	667.900000
791.151184	669.200000
791.187317	690.000000
791.223389	689.100000
791.259583	676.500000
791.295715	680.600000
791.331848	690.800000
791.367981	694.300000
791.404114	701.900000
791.440247	701.500000
791.476379	712.500000
791.512451	691.800000
791.548584	692.200000
791.584778	685.600000
791.620850	697.100000
791.656982	699.300000
791.693115	694.000000
791.729187	693.200000
791.765381	688.600000
791.801514	686.400000
791.837585	689.300000
791.873718	697.600000
791.909851	713.700000
791.945923	722.400000
791.982056	697.800000
792.018188	698.000000
792.054260	700.000000
792.090393	697.900000
792.126465	685.500000
792.162598	690.900000
792.198669	676.400000
792.234741	675.800000
792.270874	672.200000
792.307007	659.600000
792.343079	665.500000
792.379150	677.400000
792.415283	662.100000
792.451355	671.100000
792.487488	648.200000
792.523560	646.500000
792.559631	634.900000
792.595764	606.400000
792.631836	580.500000
792.667908	566.200000
792.703979	546.000000
792.740051	555.700000
792.776184	573.900000
792.812256	574.300000
792.848328	580.700000
792.884399	583.800000
792.920471	579.200000
792.956543	580.700000
792.992615	584.200000
793.028748	579.900000
793.064758	584.900000
793.100830	600.000000
793.136963	611.300000
793.172974	607.600000
793.209045	595.000000
793.245178	609.300000
793.281189	587.900000
793.317261	592.900000
793.353271	593.800000
793.389404	606.200000
793.425476	605.900000
793.461487	591.900000
793.497559	586.200000
793.533630	587.700000
793.569641	582.200000
793.605713	586.600000
793.641785	586.000000
793.677795	593.700000
793.713867	583.900000
793.749878	592.500000
793.785950	604.200000
793.822021	607.500000
793.858032	595.300000
793.894104	611.600000
793.930176	594.700000
793.966187	599.400000
794.002258	588.600000
794.038269	597.800000
794.074280	592.500000
794.110352	615.500000
794.146423	599.000000
794.182373	595.300000
794.218445	597.200000
794.254517	590.200000
794.290466	575.700000
794.326538	582.800000
794.362549	580.700000
794.398560	587.800000
794.434631	595.400000
794.470581	574.000000
794.506653	573.500000
794.542664	576.600000
794.578674	583.200000
794.614685	583.400000
794.650757	586.300000
794.686707	585.400000
794.722778	573.100000
794.758789	574.600000
794.794739	579.400000
794.830811	594.900000
794.866821	613.300000
794.902771	613.400000
794.938843	599.700000
794.974792	604.800000
795.010803	606.500000
795.046814	608.800000
795.082825	594.000000
795.118835	611.200000
795.154846	591.400000
795.190796	601.400000
795.226807	583.600000
795.262817	590.800000
795.298767	590.700000
795.334778	594.700000
795.370850	589.100000
795.406799	590.300000
795.442810	584.400000
795.478821	588.400000
795.514709	589.600000
795.550720	611.800000
795.586670	585.700000
795.622681	591.600000
795.658691	594.400000
795.694641	590.500000
795.730652	576.200000
795.766663	586.600000
795.802551	588.500000
795.838562	601.100000
795.874573	588.500000
795.910522	586.000000
795.946472	580.900000
795.982483	587.700000
796.018433	587.700000
796.054382	597.800000
796.090393	590.100000
796.126282	586.800000
796.162292	579.600000
796.198242	576.700000
796.234192	578.300000
796.270203	570.800000
796.306091	575.300000
796.342041	583.000000
796.378052	566.300000
796.413940	569.400000
796.449951	576.400000
796.485901	577.100000
796.521790	577.600000
796.557800	590.000000
796.593689	586.200000
796.629639	579.900000
796.665649	581.800000
796.701599	579.700000
796.737488	576.100000
796.773437	581.300000
796.809387	575.900000
796.845337	580.400000
796.881287	576.700000
796.917175	564.600000
796.953125	561.500000
796.989075	570.000000
797.024963	575.900000
797.060913	576.600000
797.096863	577.900000
797.132751	572.900000
797.168701	558.300000
797.204590	566.100000
797.240540	566.300000
797.276489	570.100000
797.312439	575.400000
797.348328	567.500000
797.384277	560.900000
797.420166	559.700000
797.456055	559.500000
797.492004	559.400000
797.527893	562.500000
797.563843	563.400000
797.599731	561.300000
797.635620	552.600000
797.671570	563.800000
797.707520	562.900000
797.743347	557.900000
797.779297	563.800000
797.815125	558.000000
797.851074	546.500000
797.887024	545.500000
797.922913	538.000000
797.958801	550.200000
797.994690	544.600000
798.030579	550.000000
798.066467	554.300000
798.102356	547.600000
798.138245	541.600000
798.174133	537.900000
798.210083	547.900000
798.245911	553.500000
798.281799	548.800000
798.317749	544.500000
798.353577	543.600000
798.389465	541.500000
798.425293	535.100000
798.461243	536.600000
798.497131	540.900000
798.532959	547.500000
798.568848	557.200000
798.604736	541.000000
798.640564	527.700000
798.676453	535.000000
798.712402	530.100000
798.748230	538.800000
798.784119	538.800000
798.820007	536.700000
798.855835	529.500000
798.891724	528.700000
798.927551	522.300000
798.963379	532.700000
798.999268	527.700000
799.035095	527.700000
799.070984	525.300000
799.106873	521.000000
799.142700	526.800000
799.178528	520.400000
799.214417	521.700000
799.250244	533.300000
799.286133	524.000000
799.321960	525.400000
799.357788	516.100000
799.393677	511.900000
799.429504	510.900000
799.465332	512.100000
799.501221	518.800000
799.537048	517.000000
799.572876	510.300000
799.608704	508.200000
799.644531	519.000000
799.680359	514.300000
799.716248	523.900000
799.752014	525.700000
799.787903	520.500000
799.823730	517.500000
799.859558	511.300000
799.895386	515.300000
799.931213	516.000000
799.967041	509.500000
800.002869	513.800000
800.038696	525.100000
800.074463	509.300000
800.110352	510.200000
800.146179	502.900000
800.181946	510.700000
800.217773	513.400000
800.253540	511.400000
800.289429	507.200000
800.325256	497.800000
800.361023	493.100000
800.396851	498.800000
800.432678	501.400000
800.468445	499.100000
800.504272	506.700000
800.540100	491.800000
800.575867	491.500000
800.611694	497.200000
800.647461	493.100000
800.683289	495.400000
800.719116	505.300000
800.754883	499.100000
800.790649	487.000000
800.826477	483.100000
800.862244	504.100000
800.898071	488.000000
800.933838	490.600000
800.969604	492.600000
801.005432	491.800000
801.041199	492.600000
801.076965	486.300000
801.112793	475.100000
801.148560	468.100000
801.184326	473.600000
801.220154	476.200000
801.255859	472.700000
801.291687	473.100000
801.327454	470.600000
801.363281	473.100000
801.398987	472.500000
801.434814	472.000000
801.470520	485.200000
801.506287	467.600000
801.542114	464.300000
801.577820	468.000000
801.613647	464.300000
801.649414	463.200000
801.685120	472.800000
801.720886	473.700000
801.756714	466.400000
801.792419	456.800000
801.828186	452.200000
801.863892	458.700000
801.899719	450.900000
801.935486	448.900000
801.971252	459.400000
802.006958	455.700000
802.042725	453.200000
802.078430	452.700000
802.114197	452.200000
802.149963	471.200000
802.185669	460.100000
802.221436	455.800000
802.257202	460.900000
802.292908	451.900000
802.328674	457.600000
802.364441	457.100000
802.400146	454.600000
802.435913	457.500000
802.471558	452.200000
802.507324	447.800000
802.543091	444.000000
802.578796	454.000000
802.614502	452.300000
802.650269	454.000000
802.685974	441.100000
802.721741	448.400000
802.757446	454.300000
802.793152	449.600000
802.828918	458.500000
802.864624	457.300000
802.900330	455.700000
802.936035	456.600000
802.971802	453.900000
803.007446	448.200000
803.043213	442.300000
803.078857	449.500000
803.114624	434.200000
803.150330	442.300000
803.185974	433.200000
803.221741	437.900000
803.257446	445.200000
803.293152	446.000000
803.328857	440.200000
803.364563	437.500000
803.400208	432.000000
803.435974	447.300000
803.471680	438.100000
803.507324	437.400000
803.543030	447.300000
803.578735	449.200000
803.614441	441.000000
803.650146	449.600000
803.685791	436.600000
803.721497	442.300000
803.757202	426.400000
803.792847	442.400000
803.828552	434.400000
803.864258	435.900000
803.899902	433.400000
803.935608	420.900000
803.971313	423.000000
804.006958	426.200000
804.042664	421.700000
804.078308	428.500000
804.113953	422.200000
804.149658	428.700000
804.185364	418.900000
804.221008	429.200000
804.256714	417.400000
804.292297	415.700000
804.328003	415.000000
804.363708	411.100000
804.399292	412.200000
804.434998	411.600000
804.470703	402.400000
804.506287	418.300000
804.541992	409.200000
804.577637	414.600000
804.613281	405.000000
804.648926	402.200000
804.684570	409.300000
804.720215	402.700000
804.755920	400.300000
804.791565	398.700000
804.827209	408.300000
804.862854	399.700000
804.898437	394.900000
804.934143	397.300000
804.969788	396.700000
805.005371	398.000000
805.041077	396.900000
805.076721	393.600000
805.112305	387.200000
805.147949	387.900000
805.183655	384.000000
805.219238	390.700000
805.254883	387.400000
805.290466	391.600000
805.326111	390.800000
805.361755	382.200000
805.397400	388.500000
805.432983	392.500000
805.468628	390.500000
805.504211	393.300000
805.539856	390.600000
805.575500	395.700000
805.611084	387.100000
805.646729	377.000000
805.682373	380.800000
805.717957	389.600000
805.753601	391.500000
805.789246	370.900000
805.824768	384.000000
805.860413	383.700000
805.895996	373.900000
805.931641	371.900000
805.967224	381.800000
806.002869	371.000000
806.038452	384.300000
806.074036	382.900000
806.109619	370.300000
806.145264	367.800000
806.180847	370.200000
806.216431	368.400000
806.252014	375.700000
806.287659	372.800000
806.323181	385.300000
806.358826	376.300000
806.394409	360.700000
806.429993	366.800000
806.465576	384.800000
806.501160	369.400000
806.536743	361.400000
806.572327	371.700000
806.607910	366.600000
806.643494	364.900000
806.679077	361.500000
806.714661	362.500000
806.750244	365.400000
806.785828	359.300000
806.821350	363.900000
806.856934	370.400000
806.892517	364.500000
806.928101	359.200000
806.963684	359.900000
806.999268	368.500000
807.034790	351.200000
807.070374	361.500000
807.105896	356.500000
807.141479	355.400000
807.177063	361.800000
807.212585	353.400000
807.248169	352.600000
807.283752	360.400000
807.319275	352.900000
807.354858	357.600000
807.390381	351.000000
807.425903	351.400000
807.461487	344.800000
807.497070	342.500000
807.532593	346.900000
807.568115	344.400000
807.603699	340.500000
807.639221	339.600000
807.674744	344.100000
807.710266	349.800000
807.745850	348.700000
807.781372	345.400000
807.816895	340.600000
807.852417	343.600000
807.888000	337.400000
807.923523	337.400000
807.959045	339.500000
807.994629	330.900000
808.030090	330.600000
808.065613	339.400000
808.101135	340.700000
808.136658	336.900000
808.172241	333.500000
808.207764	335.800000
808.243225	329.800000
808.278809	329.900000
808.314270	336.500000
808.349792	328.800000
808.385315	328.000000
808.420837	333.700000
808.456360	339.700000
808.491882	336.100000
808.527344	333.900000
808.562866	342.800000
808.598389	335.500000
808.633850	331.500000
808.669434	327.100000
808.704895	335.700000
808.740417	340.100000
808.775940	333.600000
808.811462	332.300000
808.846924	328.000000
808.882385	324.000000
808.917847	324.300000
808.953369	325.500000
808.988892	318.000000
809.024353	328.800000
809.059875	325.800000
809.095398	322.900000
809.130798	314.700000
809.166321	319.100000
809.201843	318.300000
809.237305	322.100000
809.272766	328.000000
809.308228	313.900000
809.343750	315.400000
809.379211	314.700000
809.414734	316.200000
809.450134	323.900000
809.485657	308.100000
809.521118	319.100000
809.556580	314.300000
809.592102	315.200000
809.627502	312.000000
809.663025	311.600000
809.698486	308.100000
809.733887	306.900000
809.769409	311.200000
809.804871	300.000000
809.840271	306.800000
809.875793	308.600000
809.911194	310.000000
809.946655	303.900000
809.982178	300.300000
810.017639	307.100000
810.053040	303.500000
810.088501	301.500000
810.123901	299.400000
810.159424	296.800000
810.194885	296.400000
810.230286	302.000000
810.265747	296.600000
810.301208	293.000000
810.336609	296.200000
810.372070	289.400000
810.407532	292.400000
810.442932	294.100000
810.478394	297.800000
810.513794	293.300000
810.549255	293.900000
810.584717	290.700000
810.620117	287.900000
810.655518	292.000000
810.690979	292.000000
810.726379	291.300000
810.761841	281.300000
810.797302	283.900000
810.832642	284.600000
810.868103	294.700000
810.903564	285.500000
810.938904	291.700000
810.974365	281.100000
811.009827	285.400000
811.045166	279.500000
811.080627	271.100000
811.115967	279.100000
811.151428	286.900000
811.186829	278.200000
811.222229	279.300000
811.257629	274.700000
811.293091	280.700000
811.328430	289.500000
811.363892	281.400000
811.399292	284.800000
811.434631	277.200000
811.470093	283.300000
811.505493	274.000000
811.540833	276.900000
811.576294	282.700000
811.611694	277.900000
811.647034	271.700000
811.682434	273.300000
811.717773	275.300000
811.753235	282.200000
811.788635	274.900000
811.823975	277.700000
811.859375	282.700000
811.894775	270.400000
811.930115	272.400000
811.965515	274.300000
812.000916	278.300000
812.036255	270.400000
812.071655	276.700000
812.106995	268.900000
812.142395	270.100000
812.177795	276.900000
812.213196	274.200000
812.248474	277.800000
812.283875	267.800000
812.319214	271.500000
812.354614	273.700000
812.390015	270.500000
812.425293	271.700000
812.460693	273.300000
812.496094	268.400000
812.531433	263.200000
812.566772	265.600000
812.602173	267.900000
812.637451	269.600000
812.672852	264.900000
812.708191	269.000000
812.743530	264.000000
812.778931	256.800000
812.814270	259.600000
812.849609	267.700000
812.884949	261.900000
812.920227	255.800000
812.955627	270.100000
812.990967	264.500000
813.026306	260.900000
813.061646	251.400000
813.096985	249.800000
813.132324	247.100000
813.167664	250.700000
813.203003	256.600000
813.238281	244.100000
813.273682	245.600000
813.308960	242.900000
813.344299	246.100000
813.379639	254.700000
813.414978	248.600000
813.450256	245.300000
813.485596	252.500000
813.520874	242.700000
813.556213	248.800000
813.591614	250.500000
813.626831	243.100000
813.662170	248.400000
813.697510	258.100000
813.732788	241.100000
813.768127	248.900000
813.803467	247.500000
813.838745	243.900000
813.874084	246.900000
813.909363	244.700000
813.944641	249.200000
813.979980	237.100000
814.015320	242.600000
814.050598	241.300000
814.085876	244.900000
814.121155	241.900000
814.156494	239.600000
814.191772	243.000000
814.227051	238.100000
814.262390	241.100000
814.297668	241.300000
814.332947	242.000000
814.368225	235.300000
814.403564	237.600000
814.438782	235.900000
814.474121	237.200000
814.509338	235.000000
814.544617	242.100000
814.579956	231.500000
814.615173	243.100000
814.650513	241.000000
814.685791	231.500000
814.721008	237.400000
814.756348	236.700000
814.791626	231.300000
814.826843	232.200000
814.862122	233.000000
814.897400	230.300000
814.932678	234.500000
814.967957	234.400000
815.003235	234.100000
815.038452	227.900000
815.073730	225.100000
815.108948	236.000000
815.144226	233.800000
815.179504	237.100000
815.214722	225.300000
815.250000	222.400000
815.285278	230.200000
815.320496	224.100000
815.355774	228.100000
815.391052	230.400000
815.426270	228.100000
815.461487	227.600000
815.496765	224.000000
815.531982	217.500000
815.567261	226.400000
815.602539	232.400000
815.637695	228.900000
815.672974	229.700000
815.708191	231.200000
815.743408	231.400000
815.778687	224.200000
815.813904	237.200000
815.849121	218.000000
815.884399	220.400000
815.919556	220.100000
815.954834	220.300000
815.990051	224.800000
816.025269	230.600000
816.060486	218.300000
816.095703	219.000000
816.130920	222.600000
816.166199	219.300000
816.201416	222.200000
816.236572	228.400000
816.271851	220.100000
816.307007	226.300000
816.342224	216.100000
816.377441	220.600000
816.412659	212.100000
816.447876	225.500000
816.483093	218.600000
816.518250	220.200000
816.553467	218.600000
816.588745	222.800000
816.623901	215.000000
816.659119	210.900000
816.694275	214.400000
816.729492	212.500000
816.764709	248.400000
816.799927	210.700000
816.835083	214.400000
816.870300	211.500000
816.905457	212.300000
816.940674	217.900000
816.975830	210.600000
817.010986	209.200000
817.046204	210.800000
817.081421	208.600000
817.116577	207.600000
817.151733	217.600000
817.186951	216.700000
817.222107	212.900000
817.257324	216.300000
817.292419	214.300000
817.327637	206.100000
817.362854	211.500000
817.398010	205.400000
817.433167	208.400000
817.468323	206.300000
817.503479	206.300000
817.538635	216.100000
817.573853	212.600000
817.608948	209.200000
817.644165	205.800000
817.679321	204.700000
817.714478	206.700000
817.749634	208.400000
817.784790	219.300000
817.819946	216.600000
817.855103	198.600000
817.890198	207.700000
817.925415	198.800000
817.960571	208.700000
817.995667	207.500000
818.030823	210.300000
818.066040	203.000000
818.101135	207.300000
818.136292	205.000000
818.171448	199.800000
818.206543	203.300000
818.241699	208.600000
818.276855	204.000000
818.311951	203.400000
818.347107	200.000000
818.382263	207.100000
818.417358	210.700000
818.452515	211.400000
818.487610	211.100000
818.522766	202.100000
818.557922	210.700000
818.593018	205.500000
818.628113	205.300000
818.663269	200.800000
818.698364	202.700000
818.733521	201.100000
818.768677	204.900000
818.803711	197.700000
818.838867	199.100000
818.874023	202.000000
818.909058	198.300000
818.944214	196.300000
818.979370	203.400000
819.014404	202.700000
819.049561	199.600000
819.084595	205.000000
819.119751	195.300000
819.154846	201.900000
819.189941	199.500000
819.225037	196.900000
819.260193	192.700000
819.295227	194.400000
819.330322	189.600000
819.365479	190.000000
819.400513	223.900000
819.435608	190.700000
819.470764	187.600000
819.505798	189.800000
819.540894	194.400000
819.575989	192.300000
819.611084	201.900000
819.646179	203.100000
819.681213	198.200000
819.716309	192.300000
819.751404	191.900000
819.786438	198.600000
819.821533	191.700000
819.856628	194.100000
819.891663	197.900000
819.926758	205.100000
819.961853	202.400000
819.996887	190.800000
820.031982	198.500000
820.067017	192.500000
820.102112	221.900000
820.137207	190.400000
820.172302	207.500000
820.207275	188.700000
820.242371	191.000000
820.277405	189.000000
820.312500	193.300000
820.347534	195.000000
820.382568	199.400000
820.417664	189.900000
820.452759	192.000000
820.487732	188.800000
820.522827	190.500000
820.557861	187.300000
820.592896	191.100000
820.627930	189.200000
820.662964	189.900000
820.698059	193.600000
820.733093	190.800000
820.768127	194.600000
820.803162	192.100000
820.838196	188.300000
820.873230	192.100000
820.908264	191.800000
820.943298	189.100000
820.978333	195.800000
821.013367	191.000000
821.048401	195.500000
821.083435	198.500000
821.118469	182.900000
821.153503	197.100000
821.188477	193.200000
821.223511	183.900000
821.258484	190.100000
821.293579	191.900000
821.328613	183.200000
821.363647	187.900000
821.398621	184.700000
821.433655	186.900000
821.468628	203.200000
821.503662	187.800000
821.538696	193.100000
821.573669	183.900000
821.608704	194.400000
821.643677	186.200000
821.678650	194.300000
821.713684	198.000000
821.748718	190.100000
821.783691	189.000000
821.818726	192.700000
821.853638	192.200000
821.888672	189.300000
821.923706	189.600000
821.958618	188.100000
821.993652	187.500000
822.028687	195.300000
822.063599	196.500000
822.098633	193.000000
822.133667	185.600000
822.168579	189.000000
822.203613	190.800000
822.238586	186.200000
822.273560	192.100000
822.308533	186.800000
822.343567	187.100000
822.378479	189.200000
822.413452	188.100000
822.448425	187.800000
822.483398	193.800000
822.518372	194.800000
822.553345	186.600000
822.588318	197.700000
822.623291	188.200000
822.658203	187.400000
822.693237	188.900000
822.728210	186.100000
822.763123	191.000000
822.798096	186.500000
822.833069	190.200000
822.867981	188.300000
822.902954	190.200000
822.937927	191.700000
822.972900	199.900000
823.007874	183.500000
823.042725	192.400000
823.077698	201.500000
823.112671	185.200000
823.147583	188.300000
823.182556	192.500000
823.217529	194.400000
823.252441	187.700000
823.287415	202.600000
823.322388	191.700000
823.357239	189.500000
823.392212	197.300000
823.427185	194.900000
823.462097	185.000000
823.497009	192.700000
823.531982	187.700000
823.566895	189.000000
823.601807	185.200000
823.636719	187.600000
823.671631	193.900000
823.706604	188.400000
823.741455	193.500000
823.776428	182.500000
823.811340	193.600000
823.846252	195.100000
823.881165	197.300000
823.916138	190.500000
823.950989	198.800000
823.985901	186.000000
824.020813	190.000000
824.055725	188.200000
824.090637	183.800000
824.125610	191.600000
824.160461	191.700000
824.195374	190.900000
824.230225	196.300000
824.265198	182.400000
824.300110	187.300000
824.334961	201.300000
824.369873	182.000000
824.404785	191.900000
824.439636	196.600000
824.474548	181.600000
824.509460	180.900000
824.544312	193.700000
824.579224	191.700000
824.614075	194.100000
824.648987	188.300000
824.683899	188.500000
824.718811	186.900000
824.753662	197.300000
824.788574	195.700000
824.823364	191.500000
824.858276	185.500000
824.893188	194.100000
824.928040	194.500000
824.962952	190.900000
824.997803	194.400000
825.032654	191.100000
825.067566	193.000000
825.102417	187.600000
825.137268	188.600000
825.172119	188.600000
825.206970	185.800000
825.241882	188.000000
825.276733	184.500000
825.311646	186.000000
825.346436	182.600000
825.381348	183.500000
825.416138	188.900000
825.450989	183.700000
825.485901	179.500000
825.520691	181.400000
825.555542	182.400000
825.590454	187.500000
825.625244	180.400000
825.660095	194.600000
825.695007	192.700000
825.729797	187.900000
825.764648	183.200000
825.799438	188.500000
825.834290	188.100000
825.869202	181.000000
825.903992	189.000000
825.938843	185.600000
825.973694	182.800000
826.008484	200.200000
826.043335	182.800000
826.078186	179.700000
826.112976	194.100000
826.147827	194.800000
826.182678	197.700000
826.217468	181.300000
826.252319	192.000000
826.287109	183.300000
826.321899	195.200000
826.356750	185.900000
826.391541	183.300000
826.426392	192.700000
826.461182	187.200000
826.495972	180.800000
826.530823	179.200000
826.565613	188.000000
826.600403	181.500000
826.635254	190.000000
826.670044	179.100000
826.704834	178.800000
826.739685	182.400000
826.774475	188.400000
826.809265	187.300000
826.844055	183.600000
826.878906	192.600000
826.913635	187.800000
826.948425	189.800000
826.983215	189.000000
827.018005	191.100000
827.052856	185.900000
827.087585	190.100000
827.122375	178.700000
827.157227	186.800000
827.191956	197.500000
827.226746	182.300000
827.261536	189.000000
827.296265	180.100000
827.331116	183.800000
827.365906	191.000000
827.400635	182.100000
827.435425	178.300000
827.470215	192.600000
827.504944	185.000000
827.539734	190.700000
827.574463	186.600000
827.609253	193.100000
827.644043	186.500000
827.678772	190.800000
827.713562	183.500000
827.748352	185.800000
827.783081	184.200000
827.817871	186.200000
827.852600	182.100000
827.887329	188.400000
827.922119	176.700000
827.956848	190.200000
827.991638	200.700000
828.026367	187.300000
828.061157	186.600000
828.095886	186.700000
828.130615	200.500000
828.165344	176.800000
828.200073	187.900000
828.234863	182.200000
828.269592	186.000000
828.304321	192.000000
828.339111	187.400000
828.373779	182.800000
828.408569	191.500000
828.443298	190.800000
828.477966	183.400000
828.512756	186.700000
828.547424	182.100000
828.582214	185.500000
828.616943	183.400000
828.651672	185.300000
828.686340	190.400000
828.721130	183.200000
828.755798	185.500000
828.790527	188.300000
828.825256	188.200000
828.859924	187.500000
828.894714	191.200000
828.929443	195.000000
828.964111	183.000000
828.998840	189.300000
829.033569	182.100000
829.068237	185.600000
829.102966	184.900000
829.137634	187.700000
829.172363	187.500000
829.207092	187.100000
829.241821	182.500000
829.276489	179.200000
829.311157	187.800000
829.345825	184.100000
829.380554	190.200000
829.415283	183.000000
829.449951	180.300000
829.484619	195.100000
829.519348	193.100000
829.554016	186.500000
829.588745	186.900000
829.623413	180.000000
829.658081	197.600000
829.692749	182.000000
829.727417	192.100000
829.762146	189.600000
829.796814	182.600000
829.831482	185.100000
829.866150	188.400000
829.900879	184.300000
829.935486	189.400000
829.970154	184.300000
830.004883	197.300000
830.039490	188.000000
830.074219	183.400000
830.108887	187.100000
830.143494	186.300000
830.178223	180.900000
830.212891	185.800000
830.247498	186.600000
830.282166	195.300000
830.316772	193.200000
830.351501	183.400000
830.386169	186.100000
830.420776	184.600000
830.455444	185.900000
830.490112	184.200000
830.524719	178.400000
830.559387	188.300000
830.594055	188.000000
830.628662	185.500000
830.663330	185.600000
830.697998	194.900000
830.732605	184.200000
830.767273	188.300000
830.801941	186.100000
830.836487	196.100000
830.871155	186.700000
830.905762	189.700000
830.940430	178.500000
830.975098	182.900000
831.009644	187.000000
831.044312	195.200000
831.078979	187.900000
831.113525	178.900000
831.148193	186.100000
831.182861	185.000000
831.217407	188.500000
831.252075	203.100000
831.286621	183.000000
831.321289	183.300000
831.355896	186.000000
831.390564	194.100000
831.425110	186.900000
831.459778	193.400000
831.494324	200.400000
831.528931	189.800000
831.563599	190.000000
831.598145	180.700000
831.632751	186.200000
831.667419	185.500000
831.701965	187.600000
831.736572	189.500000
831.771179	181.000000
831.805786	183.800000
831.840393	193.300000
831.874939	179.600000
831.909546	192.500000
831.944153	179.000000
831.978760	184.800000
832.013306	183.000000
832.047913	193.800000
832.082458	194.100000
832.117065	182.700000
832.151672	195.800000
832.186218	187.100000
832.220825	190.000000
832.255432	179.200000
832.289978	182.900000
832.324585	188.800000
832.359192	188.800000
832.393677	185.700000
832.428284	186.500000
832.462830	184.100000
832.497437	185.300000
832.531982	190.300000
832.566589	183.900000
832.601135	188.000000
832.635681	178.400000
832.670227	185.200000
832.704773	192.800000
832.739380	189.000000
832.773926	186.900000
832.808472	183.000000
832.843079	185.900000
832.877563	190.800000
832.912170	183.900000
832.946716	180.000000
832.981201	193.200000
833.015808	189.000000
833.050293	185.000000
833.084839	183.300000
833.119446	183.500000
833.153992	191.000000
833.188477	186.100000
833.223022	182.300000
833.257568	188.100000
833.292114	193.300000
833.326660	198.600000
833.361145	184.200000
833.395691	178.400000
833.430237	186.300000
833.464783	190.300000
833.499329	182.800000
833.533875	181.400000
833.568359	190.200000
833.602905	192.800000
833.637390	191.500000
833.671875	184.300000
833.706421	185.600000
833.740906	183.100000
833.775452	176.800000
833.809998	184.300000
833.844482	193.600000
833.879028	186.100000
833.913513	183.500000
833.947998	188.600000
833.982544	181.600000
834.017090	182.900000
834.051514	176.700000
834.086060	190.600000
834.120544	186.000000
834.155029	187.300000
834.189575	183.900000
834.223999	189.100000
834.258545	187.500000
834.293030	189.000000
834.327515	186.300000
834.362000	183.100000
834.396545	189.400000
834.430969	186.000000
834.465454	190.800000
834.500000	179.100000
834.534424	188.700000
834.568970	177.800000
834.603455	177.900000
834.637878	182.700000
834.672363	187.200000
834.706909	187.500000
834.741333	185.800000
834.775818	179.400000
834.810242	180.600000
834.844727	187.800000
834.879211	184.200000
834.913635	187.500000
834.948181	186.600000
834.982666	186.600000
835.017090	185.100000
835.051575	190.000000
835.086060	182.000000
835.120483	189.700000
835.154907	189.600000
835.189331	187.400000
835.223816	189.900000
835.258301	180.600000
835.292786	182.400000
835.327209	190.300000
835.361694	182.400000
835.396057	184.600000
835.430542	189.300000
835.465027	187.200000
835.499390	181.200000
835.533875	207.000000
835.568359	184.400000
835.602722	178.900000
835.637207	189.000000
835.671692	180.800000
835.706055	203.400000
835.740540	187.300000
835.774902	188.800000
835.809387	187.400000
835.843811	179.700000
835.878235	193.500000
835.912659	180.700000
835.947083	183.300000
835.981506	185.500000
836.015930	178.100000
836.050354	191.000000
836.084778	195.600000
836.119202	191.800000
836.153625	198.800000
836.187988	182.800000
836.222473	181.300000
836.256897	186.900000
836.291260	184.900000
836.325684	187.000000
836.360046	184.200000
836.394470	186.200000
836.428894	192.800000
836.463318	183.400000
836.497681	189.500000
836.532104	193.100000
836.566467	186.800000
836.600891	185.700000
836.635315	191.200000
836.669678	189.200000
836.704102	191.100000
836.738525	188.700000
836.772888	178.700000
836.807251	185.000000
836.841675	189.000000
836.876038	181.200000
836.910461	182.800000
836.944763	191.400000
836.979187	183.100000
837.013611	192.700000
837.047974	179.800000
837.082336	198.500000
837.116699	190.200000
837.151062	188.400000
837.185486	180.700000
837.219849	185.600000
837.254211	191.300000
837.288574	186.500000
837.322937	181.500000
837.357300	175.200000
837.391663	197.900000
837.426086	191.000000
837.460388	189.100000
837.494751	191.200000
837.529114	184.200000
837.563477	192.200000
837.597839	188.600000
837.632141	185.100000
837.666565	183.800000
837.700928	188.800000
837.735229	190.600000
837.769592	190.000000
837.803955	191.700000
837.838257	184.800000
837.872620	183.200000
837.906982	193.200000
837.941284	186.900000
837.975647	186.800000
838.010010	194.500000
838.044312	184.500000
838.078674	185.200000
838.112976	187.000000
838.147339	190.800000
838.181702	186.400000
838.216003	196.600000
838.250366	188.800000
838.284668	189.200000
838.318970	179.000000
838.353333	187.800000
838.387634	185.300000
838.421936	187.500000
838.456299	188.000000
838.490601	195.600000
838.524902	190.100000
838.559265	192.800000
838.593567	189.800000
838.627869	181.900000
838.662170	189.300000
838.696472	180.100000
838.730774	184.700000
838.765137	191.700000
838.799377	172.500000
838.833740	188.600000
838.868042	193.900000
838.902283	178.700000
838.936646	193.500000
838.970947	189.400000
839.005188	192.900000
839.039551	180.100000
839.073792	193.900000
839.108093	183.700000
839.142395	196.300000
839.176697	179.600000
839.210937	187.900000
839.245300	198.300000
839.279541	181.800000
839.313843	185.800000
839.348145	190.800000
839.382385	192.100000
839.416687	192.700000
839.450989	188.700000
839.485229	186.000000
839.519531	182.100000
839.553833	193.100000
839.588013	186.300000
839.622314	188.300000
839.656555	188.200000
839.690857	186.000000
839.725159	181.300000
839.759460	186.800000
839.793640	183.600000
839.827942	186.000000
839.862183	181.500000
839.896423	189.100000
839.930725	196.100000
839.964966	194.600000
839.999207	194.600000
840.033508	195.100000
840.067688	184.900000
840.101990	196.300000
840.136230	185.500000
840.170471	194.900000
840.204712	181.700000
840.238953	184.100000
840.273193	189.300000
840.307434	192.900000
840.341736	182.200000
840.375916	181.300000
840.410217	184.400000
840.444397	192.500000
840.478638	190.300000
840.512878	193.700000
840.547119	186.500000
840.581360	189.800000
840.615601	195.800000
840.649780	197.500000
840.684021	188.000000
840.718262	195.000000
840.752441	193.800000
840.786682	188.100000
840.820862	188.200000
840.855103	193.500000
840.889343	188.200000
840.923584	191.300000
840.957764	190.500000
840.992004	189.900000
841.026184	201.800000
841.060425	186.100000
841.094666	184.600000
841.128845	189.900000
841.163025	189.200000
841.197266	189.400000
841.231445	188.900000
841.265686	187.800000
841.299866	183.000000
841.334045	194.700000
841.368286	185.700000
841.402405	194.700000
841.436646	192.000000
841.470825	183.700000
841.505005	186.300000
841.539185	182.900000
841.573425	184.200000
841.607544	187.300000
841.641785	187.600000
841.675964	182.500000
841.710144	188.800000
841.744324	185.600000
841.778503	186.300000
841.812683	183.200000
841.846863	196.700000
841.881042	193.400000
841.915222	186.500000
841.949402	202.400000
841.983521	181.100000
842.017700	185.700000
842.051880	189.500000
842.086060	189.500000
842.120239	188.000000
842.154419	184.200000
842.188538	187.900000
842.222717	183.400000
842.256897	197.600000
842.291016	186.700000
842.325195	189.400000
842.359375	199.200000
842.393494	195.900000
842.427673	187.100000
842.461853	189.900000
842.495911	197.000000
842.530090	190.300000
842.564209	187.000000
842.598389	190.300000
842.632568	189.000000
842.666626	192.800000
842.700806	184.500000
842.734985	185.300000
842.769043	190.200000
842.803223	186.000000
842.837402	187.100000
842.871460	185.100000
842.905640	196.700000
842.939697	184.000000
842.973877	189.100000
843.007996	193.300000
843.042175	196.300000
843.076233	184.500000
843.110413	189.200000
843.144470	196.200000
843.178589	192.000000
843.212769	184.700000
843.246826	193.000000
843.280945	185.400000
843.315125	186.400000
843.349182	186.100000
843.383301	194.800000
843.417419	200.500000
843.451538	187.700000
843.485657	186.100000
843.519714	186.200000
843.553833	190.000000
843.587952	186.300000
843.622070	183.000000
843.656128	192.000000
843.690247	186.100000
843.724304	185.900000
843.758423	189.000000
843.792542	186.800000
843.826599	186.700000
843.860718	186.000000
843.894836	180.900000
843.928894	189.500000
843.963013	189.600000
843.997070	184.300000
844.031128	181.300000
844.065247	192.500000
844.099304	192.600000
844.133362	190.300000
844.167480	191.700000
844.201599	195.300000
844.235596	189.700000
844.269714	189.900000
844.303711	189.700000
844.337830	180.100000
844.371948	190.600000
844.405945	186.300000
844.440063	182.000000
844.474121	201.600000
844.508118	186.400000
844.542236	186.400000
844.576294	186.600000
844.610352	182.200000
844.644409	186.000000
844.678406	178.500000
844.712524	193.000000
844.746582	194.100000
844.780640	187.900000
844.814636	187.800000
844.848755	200.100000
844.882751	185.800000
844.916809	193.400000
844.950867	189.700000
844.984863	196.100000
845.018921	186.300000
845.052979	184.300000
845.086975	189.000000
845.121033	184.000000
845.155090	184.700000
845.189087	194.800000
845.223145	185.400000
845.257141	189.000000
845.291199	190.200000
845.325256	196.000000
845.359253	188.000000
845.393250	199.000000
845.427307	186.500000
845.461304	191.100000
845.495361	189.300000
845.529358	198.500000
845.563354	186.200000
845.597412	184.300000
845.631409	195.600000
845.665405	196.200000
845.699463	192.800000
845.733459	187.000000
845.767456	194.300000
845.801453	187.200000
845.835449	194.000000
845.869446	192.800000
845.903503	192.300000
845.937439	184.100000
845.971497	194.800000
846.005493	183.600000
846.039429	191.800000
846.073486	197.400000
846.107483	186.500000
846.141418	188.300000
846.175476	188.700000
846.209473	194.000000
846.243408	184.100000
846.277405	188.600000
846.311401	184.100000
846.345337	186.700000
846.379395	193.300000
846.413330	185.400000
846.447327	196.000000
846.481323	183.100000
846.515259	185.500000
846.549255	189.100000
846.583252	192.200000
846.617187	182.300000
846.651184	190.700000
846.685120	185.800000
846.719055	196.300000
846.753052	192.600000
846.786987	192.900000
846.820984	181.000000
846.854980	196.400000
846.888916	183.300000
846.922852	189.600000
846.956848	197.200000
846.990723	183.400000
847.024719	189.400000
847.058716	187.600000
847.092590	195.300000
847.126587	190.700000
847.160522	186.500000
847.194458	193.500000
847.228455	185.200000
847.262390	184.000000
847.296265	186.300000
847.330261	194.300000
847.364136	187.400000
847.398132	186.600000
847.432068	188.200000
847.466003	187.100000
847.499939	186.400000
847.533875	190.500000
847.567749	187.000000
847.601746	187.400000
847.635681	192.900000
847.669556	180.600000
847.703491	193.700000
847.737427	202.600000
847.771301	183.500000
847.805237	191.000000
847.839233	190.500000
847.873108	187.400000
847.907043	187.200000
847.940918	194.400000
847.974854	190.800000
848.008789	192.000000
848.042664	188.200000
848.076538	190.700000
848.110474	188.400000
848.144348	190.400000
848.178284	182.200000
848.212219	189.300000
848.246094	185.000000
848.279968	188.600000
848.313904	191.800000
848.347778	188.800000
848.381653	188.400000
848.415588	183.600000
848.449463	185.700000
848.483337	191.300000
848.517212	195.500000
848.551086	187.900000
848.585022	183.200000
848.618835	197.100000
848.652771	186.100000
848.686646	184.800000
848.720520	197.200000
848.754395	188.100000
848.788330	194.600000
848.822144	192.700000
848.856018	187.800000
848.889954	198.300000
848.923767	184.200000
848.957642	185.300000
848.991577	194.300000
849.025391	186.100000
849.059265	188.600000
849.093079	185.300000
849.126953	183.900000
849.160828	193.000000
849.194641	190.600000
849.228577	186.200000
849.262451	187.400000
849.296265	187.500000
849.330139	184.400000
849.364014	189.900000
849.397827	191.900000
849.431702	188.300000
849.465515	193.500000
849.499329	178.800000
849.533203	182.900000
849.567078	179.200000
849.600891	191.900000
849.634766	186.200000
849.668518	192.400000
849.702393	189.800000
849.736267	180.700000
849.770020	200.100000
849.803894	192.200000
849.837769	189.300000
849.871521	188.400000
849.905396	194.200000
849.939270	184.100000
849.973022	186.400000
850.006897	192.600000
850.040710	191.700000
850.074524	190.700000
850.108337	188.100000
850.142151	191.200000
850.175964	195.100000
850.209778	187.600000
850.243530	176.100000
850.277405	193.900000
850.311218	188.500000
850.344971	185.500000
850.378845	196.300000
850.412659	184.900000
850.446411	190.700000
850.480225	187.000000
850.514038	195.000000
850.547791	190.800000
850.581665	189.700000
850.615417	185.800000
850.649231	188.500000
850.683044	187.500000
850.716858	187.700000
850.750610	188.700000
850.784424	193.500000
850.818176	185.100000
850.851929	187.500000
850.885742	185.400000
850.919495	189.000000
850.953308	194.900000
850.987122	196.500000
851.020874	183.800000
851.054626	182.100000
851.088440	191.900000
851.122192	193.100000
851.156006	190.800000
851.189697	187.800000
851.223511	183.600000
851.257263	192.500000
851.291077	192.500000
851.324829	188.400000
851.358582	187.000000
851.392334	187.100000
851.426086	186.900000
851.459900	196.600000
851.493591	188.600000
851.527344	189.400000
851.561157	187.800000
851.594849	191.100000
851.628662	190.800000
851.662415	194.500000
851.696106	192.500000
851.729858	193.000000
851.763611	182.800000
851.797363	189.700000
851.831116	185.700000
851.864868	190.800000
851.898560	194.500000
851.932312	186.600000
851.966064	191.100000
851.999817	187.900000
852.033569	188.900000
852.067261	191.600000
852.101013	185.700000
852.134766	188.900000
852.168457	178.800000
852.202209	194.300000
852.235901	185.900000
852.269592	190.600000
852.303345	198.200000
852.337036	192.800000
852.370789	188.000000
852.404541	192.300000
852.438171	187.000000
852.471924	188.700000
852.505676	183.000000
852.539307	191.200000
852.573059	186.900000
852.606812	185.600000
852.640442	187.800000
852.674194	192.900000
852.707886	200.700000
852.741577	196.300000
852.775269	185.300000
852.809021	189.700000
852.842651	191.400000
852.876404	194.600000
852.910034	189.900000
852.943787	194.700000
852.977478	193.000000
853.011108	186.100000
853.044861	186.200000
853.078552	197.100000
853.112183	191.000000
853.145874	190.800000
853.179626	179.800000
853.213257	191.000000
853.246948	186.000000
853.280640	196.300000
853.314270	187.300000
853.347961	195.700000
853.381653	192.000000
853.415283	194.100000
853.448975	185.000000
853.482605	190.000000
853.516296	188.000000
853.549988	182.500000
853.583618	190.500000
853.617310	191.300000
853.651001	190.300000
853.684631	185.500000
853.718323	186.100000
853.751953	195.700000
853.785583	180.600000
853.819275	194.500000
853.852966	189.800000
853.886536	180.900000
853.920227	184.400000
853.953918	195.400000
853.987488	186.400000
854.021179	193.300000
854.054749	195.800000
854.088440	191.500000
854.122131	184.400000
854.155701	192.200000
854.189331	184.400000
854.223022	193.700000
854.256592	190.700000
854.290283	185.700000
854.323914	192.300000
854.357483	189.700000
854.391174	190.800000
854.424744	198.000000
854.458374	191.400000
854.492065	200.900000
854.525696	188.100000
854.559265	194.400000
854.592896	200.600000
854.626465	189.400000
854.660095	189.300000
854.693787	191.800000
854.727356	188.900000
854.760986	192.900000
854.794617	190.600000
854.828186	187.000000
854.861816	190.800000
854.895447	189.100000
854.929016	188.500000
854.962585	190.600000
854.996155	197.800000
855.029785	191.300000
855.063416	191.700000
855.097046	193.500000
855.130615	184.500000
855.164185	195.400000
855.197754	188.400000
855.231384	190.300000
855.264954	187.700000
855.298523	192.400000
855.332153	189.800000
855.365723	196.600000
855.399292	185.200000
855.432922	187.200000
855.466492	191.300000
855.500061	183.800000
855.533630	185.900000
855.567200	191.200000
855.600769	193.000000
855.634338	193.400000
855.667969	191.400000
855.701477	185.500000
855.735046	187.000000
855.768616	181.300000
855.802185	191.000000
855.835754	203.700000
855.869324	180.900000
855.902893	187.300000
855.936401	197.100000
855.969971	190.400000
856.003540	182.600000
856.037109	193.700000
856.070618	187.700000
856.104187	183.900000
856.137695	187.000000
856.171265	179.600000
856.204834	189.400000
856.238403	195.300000
856.271912	186.900000
856.305481	190.500000
856.338989	182.300000
856.372559	192.500000
856.406128	191.800000
856.439636	193.400000
856.473145	186.800000
856.506653	196.400000
856.540222	189.400000
856.573792	195.600000
856.607300	192.800000
856.640808	184.000000
856.674377	189.000000
856.707825	218.900000
856.741394	193.200000
856.774902	184.800000
856.808472	179.600000
856.841980	191.700000
856.875488	195.400000
856.908936	181.400000
856.942505	186.700000
856.976013	187.500000
857.009521	183.800000
857.043030	190.100000
857.076477	187.600000
857.110046	194.500000
857.143555	189.300000
857.177063	194.400000
857.210571	186.200000
857.244080	183.000000
857.277527	191.600000
857.311035	187.100000
857.344543	192.300000
857.378052	188.500000
857.411499	194.100000
857.445068	200.100000
857.478516	189.600000
857.512024	185.100000
857.545532	186.300000
857.578979	192.100000
857.612427	189.900000
857.645874	185.600000
857.679382	190.000000
857.712891	194.300000
857.746399	187.700000
857.779846	195.600000
857.813354	194.400000
857.846741	189.900000
857.880249	185.800000
857.913757	190.800000
857.947266	190.000000
857.980652	193.400000
858.014160	187.100000
858.047546	186.400000
858.081055	187.700000
858.114563	198.500000
858.147949	184.300000
858.181458	191.800000
858.214844	188.200000
858.248352	180.400000
858.281799	195.200000
858.315308	202.400000
858.348694	192.600000
858.382141	197.700000
858.415588	192.100000
858.449036	192.600000
858.482483	192.300000
858.515930	184.300000
858.549377	187.800000
858.582825	195.600000
858.616211	191.400000
858.649658	190.600000
858.683105	184.300000
858.716553	185.300000
858.750000	183.800000
858.783386	187.100000
858.816833	181.500000
858.850281	190.200000
858.883728	192.400000
858.917114	188.400000
858.950562	197.000000
858.983948	197.300000
859.017395	193.200000
859.050781	186.100000
859.084167	184.900000
859.117615	182.600000
859.151062	191.600000
859.184448	184.900000
859.217834	187.500000
859.251282	186.900000
859.284668	185.800000
859.318054	180.600000
859.351440	187.000000
859.384888	196.200000
859.418274	181.900000
859.451721	180.300000
859.485046	193.000000
859.518494	190.400000
859.551819	185.600000
859.585266	191.500000
859.618652	192.300000
859.652039	183.300000
859.685425	185.300000
859.718811	181.400000
859.752197	178.600000
859.785583	194.600000
859.819031	196.700000
859.852356	191.900000
859.885742	185.500000
859.919067	188.600000
859.952454	187.800000
859.985901	192.800000
860.019287	186.500000
860.052612	0.000000
860.085999	0.000000
860.119324	0.000000
860.152710	0.000000
860.186096	0.000000
860.219421	0.000000
860.252808	0.000000
860.286133	0.000000
860.319519	0.000000
860.352905	0.000000
860.386292	0.000000
860.419617	0.000000
860.452942	0.000000
860.486267	0.000000
860.519653	0.000000
860.553040	0.000000
860.586365	0.000000
860.619690	0.000000
860.653076	0.000000
860.686340	0.000000
860.719727	0.000000
860.753113	0.000000
860.786377	0.000000
860.819763	0.000000
860.853027	0.000000
860.886414	0.000000
860.919739	0.000000
860.953125	0.000000
860.986389	0.000000
861.019714	0.000000
861.053040	0.000000
861.086365	0.000000
861.119690	0.000000
861.153076	0.000000
861.186340	0.000000
861.219666	0.000000
861.252930	0.000000
861.286316	0.000000
861.319641	0.000000
861.352905	0.000000
861.386230	0.000000
861.419495	0.000000
861.452820	0.000000
861.486145	0.000000
861.519470	0.000000
861.552734	0.000000
861.586060	0.000000
861.619324	0.000000
861.652649	0.000000
861.685974	0.000000
861.719238	0.000000
861.752563	0.000000
861.785828	0.000000
861.819092	0.000000
861.852417	0.000000
861.885742	0.000000
861.918945	0.000000
861.952271	0.000000
861.985535	0.000000
862.018799	0.000000
862.052124	0.000000
862.085449	0.000000
862.118652	0.000000
862.151978	0.000000
862.185181	0.000000
862.218506	0.000000
862.251770	0.000000
862.285034	0.000000
862.318298	0.000000
862.351562	0.000000
862.384827	0.000000
862.418091	0.000000
862.451355	0.000000
862.484619	0.000000
862.517883	0.000000
862.551086	0.000000
862.584351	0.000000
862.617676	0.000000
862.650940	0.000000
862.684143	0.000000
862.717407	0.000000
862.750610	0.000000
862.783875	0.000000
862.817139	0.000000
862.850342	0.000000
862.883606	0.000000
862.916870	0.000000
862.950073	0.000000
862.983337	0.000000
863.016602	0.000000
863.049805	0.000000
863.083069	0.000000
863.116211	0.000000
863.149475	0.000000
863.182739	0.000000
863.216003	0.000000
863.249146	0.000000
863.282410	0.000000
863.315613	0.000000
863.348816	0.000000
863.382080	0.000000
863.415222	0.000000
863.448486	0.000000
863.481689	0.000000
863.514893	0.000000
863.548157	0.000000
863.581360	0.000000
863.614502	0.000000
863.647766	0.000000
863.680908	0.000000
863.714172	0.000000
863.747375	0.000000
863.780579	0.000000
863.813721	0.000000
863.846985	0.000000
863.880127	0.000000
863.913330	0.000000
863.946533	0.000000
863.979675	0.000000
864.012939	0.000000
