Model Number: SPM-001-M   
Serial Number: 10090201
Firmware Version: 004.17.6
Exposure Time: 500000.000000us
Data Taken on: 03-03-2021 10:26:22.656
Wavelength	Amplitude
733.770752	0.000000
733.808716	0.000000
733.846619	0.000000
733.884583	0.000000
733.922546	0.000000
733.960449	0.000000
733.998413	0.000000
734.036377	0.000000
734.074219	0.000000
734.112183	0.000000
734.150085	0.000000
734.188049	0.000000
734.226013	0.000000
734.263916	0.000000
734.301819	0.000000
734.339783	0.000000
734.377686	0.000000
734.415588	0.000000
734.453552	0.000000
734.491455	0.000000
734.529419	0.000000
734.567322	0.000000
734.605225	0.000000
734.643127	0.000000
734.681091	0.000000
734.718994	0.000000
734.756897	0.000000
734.794800	0.000000
734.832703	0.000000
734.870667	0.000000
734.908508	0.000000
734.946472	0.000000
734.984375	0.000000
735.022278	0.000000
735.060181	0.000000
735.098083	0.000000
735.135986	0.000000
735.173889	0.000000
735.211792	0.000000
735.249695	0.000000
735.287598	0.000000
735.325439	0.000000
735.363403	0.000000
735.401306	0.000000
735.439148	0.000000
735.477051	0.000000
735.515015	0.000000
735.552856	0.000000
735.590759	0.000000
735.628662	0.000000
735.666504	0.000000
735.704407	0.000000
735.742310	0.000000
735.780212	0.000000
735.818115	0.000000
735.856018	0.000000
735.893860	0.000000
735.931763	0.000000
735.969604	0.000000
736.007507	0.000000
736.045410	0.000000
736.083252	0.000000
736.121094	0.000000
736.158997	0.000000
736.196838	0.000000
736.234741	0.000000
736.272644	0.000000
736.310486	0.000000
736.348389	0.000000
736.386230	0.000000
736.424072	0.000000
736.461975	0.000000
736.499878	0.000000
736.537720	0.000000
736.575562	0.000000
736.613403	0.000000
736.651306	0.000000
736.689148	0.000000
736.726990	0.000000
736.764893	0.000000
736.802734	0.000000
736.840576	0.000000
736.878418	0.000000
736.916321	0.000000
736.954102	0.000000
736.992004	0.000000
737.029846	0.000000
737.067688	0.000000
737.105530	0.000000
737.143372	0.000000
737.181213	0.000000
737.219116	0.000000
737.256897	0.000000
737.294739	0.000000
737.332642	0.000000
737.370422	0.000000
737.408325	0.000000
737.446167	0.000000
737.483948	0.000000
737.521790	0.000000
737.559692	0.000000
737.597473	0.000000
737.635315	0.000000
737.673157	0.000000
737.710999	0.000000
737.748840	0.000000
737.786621	0.000000
737.824463	0.000000
737.862305	0.000000
737.900085	0.000000
737.937927	0.000000
737.975769	0.000000
738.013550	0.000000
738.051392	0.000000
738.089233	0.000000
738.127014	0.000000
738.164856	0.000000
738.202698	0.000000
738.240479	0.000000
738.278320	0.000000
738.316162	0.000000
738.353943	0.000000
738.391785	0.000000
738.429565	0.000000
738.467407	0.000000
738.505188	0.000000
738.542969	0.000000
738.580811	0.000000
738.618652	0.000000
738.656372	0.000000
738.694214	0.000000
738.732056	0.000000
738.769836	0.000000
738.807617	0.000000
738.845459	0.000000
738.883240	0.000000
738.921021	0.000000
738.958862	0.000000
738.996582	0.000000
739.034424	0.000000
739.072205	0.000000
739.109985	0.000000
739.147827	0.000000
739.185547	0.000000
739.223389	0.000000
739.261169	0.000000
739.298889	0.000000
739.336731	0.000000
739.374512	0.000000
739.412292	0.000000
739.450073	0.000000
739.487854	0.000000
739.525635	0.000000
739.563416	0.000000
739.601135	0.000000
739.638977	0.000000
739.676758	0.000000
739.714478	0.000000
739.752258	0.000000
739.790100	0.000000
739.827820	0.000000
739.865601	0.000000
739.903381	0.000000
739.941101	0.000000
739.978882	191.100000
740.016724	185.500000
740.054443	191.900000
740.092224	184.600000
740.130005	182.100000
740.167725	184.000000
740.205505	184.800000
740.243225	193.000000
740.281006	189.400000
740.318787	180.600000
740.356506	194.300000
740.394287	191.000000
740.432068	184.200000
740.469727	180.700000
740.507507	191.200000
740.545288	186.400000
740.583008	189.800000
740.620789	188.200000
740.658569	180.200000
740.696228	185.600000
740.734009	193.200000
740.771790	175.600000
740.809509	191.400000
740.847229	182.500000
740.884949	185.300000
740.922729	180.000000
740.960449	185.800000
740.998169	181.900000
741.035950	183.500000
741.073669	188.600000
741.111389	187.300000
741.149170	197.500000
741.186890	197.100000
741.224609	190.700000
741.262329	187.700000
741.300110	195.900000
741.337769	182.500000
741.375549	180.800000
741.413208	188.400000
741.450989	183.700000
741.488708	184.500000
741.526367	185.500000
741.564148	190.900000
741.601868	191.600000
741.639526	186.400000
741.677307	189.900000
741.715027	188.500000
741.752686	184.000000
741.790466	193.300000
741.828186	189.900000
741.865845	183.600000
741.903564	179.100000
741.941345	187.100000
741.979004	183.000000
742.016724	190.900000
742.054382	187.200000
742.092102	191.600000
742.129822	180.700000
742.167480	184.200000
742.205200	185.200000
742.242920	189.500000
742.280640	191.200000
742.318359	181.600000
742.356079	184.500000
742.393738	189.700000
742.431396	186.300000
742.469116	191.300000
742.506775	178.400000
742.544495	189.900000
742.582214	190.500000
742.619873	186.000000
742.657593	194.100000
742.695251	192.100000
742.732971	186.400000
742.770630	189.400000
742.808289	187.700000
742.846008	186.600000
742.883728	189.100000
742.921326	187.500000
742.959045	184.300000
742.996765	187.200000
743.034424	185.800000
743.072083	185.200000
743.109802	186.200000
743.147400	181.800000
743.185120	189.200000
743.222839	187.300000
743.260437	193.300000
743.298157	189.200000
743.335754	179.600000
743.373474	185.900000
743.411133	180.000000
743.448792	187.300000
743.486450	188.000000
743.524170	179.200000
743.561768	186.400000
743.599487	194.700000
743.637146	196.800000
743.674744	187.100000
743.712463	185.300000
743.750122	188.100000
743.787720	190.200000
743.825439	183.100000
743.863037	184.500000
743.900696	186.800000
743.938416	212.200000
743.976013	185.800000
744.013672	194.500000
744.051331	192.000000
744.088928	196.100000
744.126587	192.700000
744.164307	188.300000
744.201904	184.300000
744.239563	190.000000
744.277222	189.700000
744.314819	185.300000
744.352478	194.300000
744.390137	188.500000
744.427734	191.500000
744.465393	184.400000
744.502991	184.000000
744.540649	189.700000
744.578308	187.300000
744.615906	181.100000
744.653564	178.400000
744.691223	190.100000
744.728821	179.700000
744.766418	186.900000
744.804077	189.300000
744.841675	184.400000
744.879333	181.400000
744.916992	186.100000
744.954529	184.400000
744.992187	192.200000
745.029785	183.600000
745.067444	183.200000
745.105042	189.300000
745.142639	189.400000
745.180298	197.200000
745.217896	184.600000
745.255493	186.200000
745.293152	192.100000
745.330750	191.800000
745.368347	195.200000
745.405945	189.800000
745.443604	187.700000
745.481140	191.500000
745.518799	186.400000
745.556396	190.400000
745.593994	192.200000
745.631592	187.300000
745.669189	181.400000
745.706787	188.000000
745.744385	183.800000
745.781982	188.700000
745.819580	184.200000
745.857178	186.400000
745.894775	188.400000
745.932373	188.100000
745.969971	187.900000
746.007568	178.900000
746.045166	196.700000
746.082764	192.900000
746.120300	190.700000
746.157898	190.600000
746.195557	187.700000
746.233093	180.900000
746.270691	191.400000
746.308228	187.900000
746.345825	191.200000
746.383423	190.800000
746.420959	183.500000
746.458557	185.000000
746.496155	186.700000
746.533691	187.000000
746.571289	182.800000
746.608887	188.100000
746.646423	188.600000
746.684021	187.200000
746.721619	185.500000
746.759155	189.400000
746.796753	181.000000
746.834351	181.100000
746.871826	184.100000
746.909424	194.800000
746.946960	188.200000
746.984558	186.800000
747.022156	185.400000
747.059631	195.400000
747.097229	189.000000
747.134827	185.500000
747.172363	194.300000
747.209900	190.100000
747.247498	182.900000
747.285034	195.100000
747.322571	194.600000
747.360168	185.600000
747.397644	179.200000
747.435242	191.800000
747.472778	193.900000
747.510315	185.100000
747.547913	184.900000
747.585388	195.200000
747.622925	185.500000
747.660522	178.700000
747.697998	183.900000
747.735596	187.400000
747.773132	183.300000
747.810669	186.400000
747.848206	190.500000
747.885742	182.900000
747.923279	182.000000
747.960815	188.800000
747.998352	187.000000
748.035889	191.600000
748.073425	191.000000
748.110901	184.700000
748.148437	183.100000
748.185974	187.900000
748.223511	196.900000
748.261047	188.800000
748.298584	189.000000
748.336060	187.700000
748.373596	190.500000
748.411133	207.000000
748.448608	183.600000
748.486145	192.100000
748.523682	194.600000
748.561218	194.500000
748.598755	188.700000
748.636292	190.500000
748.673706	185.300000
748.711243	194.600000
748.748718	190.900000
748.786255	187.400000
748.823792	187.800000
748.861267	183.100000
748.898804	189.700000
748.936340	190.600000
748.973816	186.600000
749.011292	194.800000
749.048828	188.300000
749.086304	190.600000
749.123840	200.000000
749.161316	184.500000
749.198792	198.300000
749.236328	193.700000
749.273743	187.700000
749.311279	184.900000
749.348816	190.900000
749.386230	187.700000
749.423767	177.000000
749.461304	190.400000
749.498718	188.800000
749.536255	193.200000
749.573730	200.000000
749.611206	193.200000
749.648682	187.800000
749.686218	187.000000
749.723633	192.700000
749.761169	185.000000
749.798645	183.700000
749.836060	185.800000
749.873596	183.900000
749.911011	186.500000
749.948547	194.000000
749.986023	186.400000
750.023437	186.900000
750.060913	181.000000
750.098450	182.000000
750.135864	187.100000
750.173340	187.700000
750.210815	191.600000
750.248291	182.500000
750.285767	186.000000
750.323242	194.200000
750.360657	190.600000
750.398132	182.900000
750.435608	191.500000
750.473022	184.500000
750.510498	183.300000
750.547974	182.700000
750.585449	185.900000
750.622925	177.200000
750.660339	196.700000
750.697815	187.900000
750.735291	186.600000
750.772644	187.800000
750.810120	189.600000
750.847595	190.800000
750.885010	183.200000
750.922485	196.300000
750.959961	185.800000
750.997375	194.500000
751.034851	191.100000
751.072266	192.800000
751.109680	180.200000
751.147156	193.400000
751.184570	189.000000
751.221985	189.400000
751.259460	179.200000
751.296875	187.700000
751.334290	187.100000
751.371765	192.000000
751.409180	190.800000
751.446594	193.200000
751.484070	190.700000
751.521423	189.400000
751.558899	189.900000
751.596375	195.000000
751.633728	193.500000
751.671204	199.900000
751.708618	183.800000
751.746033	188.700000
751.783447	181.900000
751.820801	183.900000
751.858276	190.200000
751.895691	186.500000
751.933105	186.800000
751.970520	182.700000
752.007935	186.900000
752.045349	192.800000
752.082764	187.700000
752.120178	185.600000
752.157532	184.500000
752.195007	185.400000
752.232422	190.100000
752.269775	192.600000
752.307190	191.200000
752.344543	185.300000
752.382019	186.600000
752.419434	185.000000
752.456787	190.300000
752.494202	192.400000
752.531616	189.000000
752.568970	193.100000
752.606384	189.100000
752.643799	190.100000
752.681152	196.400000
752.718567	191.000000
752.755981	180.500000
752.793335	191.300000
752.830750	179.800000
752.868164	193.500000
752.905518	182.800000
752.942932	192.500000
752.980225	182.100000
753.017639	192.200000
753.055054	187.000000
753.092407	190.500000
753.129822	194.300000
753.167175	199.700000
753.204529	186.700000
753.241943	185.100000
753.279358	182.400000
753.316650	191.000000
753.354065	191.500000
753.391479	191.100000
753.428772	196.100000
753.466187	191.100000
753.503479	181.000000
753.540894	186.500000
753.578308	181.200000
753.615601	182.600000
753.653015	186.800000
753.690369	185.900000
753.727722	183.600000
753.765076	182.100000
753.802490	182.300000
753.839783	180.200000
753.877136	185.200000
753.914551	201.400000
753.951843	183.700000
753.989258	191.600000
754.026611	190.500000
754.063904	189.500000
754.101257	182.900000
754.138611	180.500000
754.175964	187.700000
754.213318	198.400000
754.250610	181.000000
754.288025	184.900000
754.325378	182.500000
754.362671	192.600000
754.400024	185.800000
754.437378	196.200000
754.474670	197.900000
754.512085	184.500000
754.549438	187.900000
754.586731	185.400000
754.624084	187.300000
754.661438	182.400000
754.698730	195.100000
754.736084	185.900000
754.773376	185.900000
754.810730	190.200000
754.848083	186.700000
754.885315	192.700000
754.922668	180.800000
754.960022	181.800000
754.997314	192.600000
755.034668	189.000000
755.072021	187.200000
755.109253	183.900000
755.146606	196.100000
755.183960	184.800000
755.221252	195.300000
755.258545	191.700000
755.295898	192.600000
755.333191	193.200000
755.370544	190.900000
755.407776	187.700000
755.445129	188.200000
755.482422	191.500000
755.519714	186.200000
755.557068	180.200000
755.594360	179.400000
755.631653	189.800000
755.668945	195.900000
755.706299	188.500000
755.743530	199.600000
755.780884	194.500000
755.818176	193.400000
755.855408	192.600000
755.892761	188.900000
755.930054	189.200000
755.967346	190.000000
756.004639	191.000000
756.041870	188.300000
756.079224	192.700000
756.116516	184.300000
756.153748	192.700000
756.191040	198.000000
756.228394	191.700000
756.265625	183.300000
756.302917	188.300000
756.340210	186.400000
756.377441	193.600000
756.414795	195.700000
756.452087	188.400000
756.489319	181.800000
756.526611	192.000000
756.563843	189.300000
756.601135	199.500000
756.638428	197.900000
756.675659	189.200000
756.712952	193.100000
756.750244	192.300000
756.787476	189.000000
756.824768	196.600000
756.862061	187.900000
756.899292	237.900000
756.936584	193.300000
756.973816	201.400000
757.011047	203.700000
757.048340	190.600000
757.085632	190.500000
757.122864	206.000000
757.160156	188.000000
757.197327	193.500000
757.234619	194.500000
757.271912	190.200000
757.309082	194.400000
757.346375	187.500000
757.383667	196.800000
757.420837	192.100000
757.458130	192.100000
757.495422	190.000000
757.532593	191.800000
757.569885	184.600000
757.607117	186.600000
757.644348	192.800000
757.681580	203.800000
757.718811	180.200000
757.756042	190.900000
757.793335	189.000000
757.830505	194.100000
757.867798	190.000000
757.905029	188.100000
757.942200	194.900000
757.979492	188.500000
758.016724	190.500000
758.053894	189.000000
758.091187	209.300000
758.128418	192.800000
758.165588	193.600000
758.202820	204.200000
758.240112	191.500000
758.277283	203.600000
758.314514	194.600000
758.351685	190.300000
758.388916	201.800000
758.426147	200.500000
758.463379	203.100000
758.500610	197.200000
758.537842	194.200000
758.575012	201.400000
758.612244	189.500000
758.649475	206.800000
758.686646	187.600000
758.723877	201.600000
758.761108	202.900000
758.798279	194.100000
758.835510	197.100000
758.872742	202.300000
758.909851	197.500000
758.947083	199.700000
758.984253	196.400000
759.021484	202.000000
759.058716	197.900000
759.095886	200.000000
759.133057	194.900000
759.170288	200.400000
759.207458	193.700000
759.244690	207.500000
759.281860	204.700000
759.319031	197.600000
759.356262	195.300000
759.393433	195.600000
759.430603	195.900000
759.467773	195.600000
759.505005	203.300000
759.542175	203.300000
759.579346	196.600000
759.616516	200.100000
759.653687	201.600000
759.690918	196.400000
759.728027	198.900000
759.765259	201.800000
759.802429	202.100000
759.839539	202.400000
759.876770	204.800000
759.913940	211.100000
759.951111	201.900000
759.988281	201.800000
760.025452	198.400000
760.062561	197.000000
760.099792	210.500000
760.136963	204.700000
760.174072	200.000000
760.211243	196.600000
760.248413	197.600000
760.285583	197.900000
760.322754	212.000000
760.359863	207.700000
760.397034	209.100000
760.434204	201.200000
760.471375	200.600000
760.508545	200.300000
760.545715	200.900000
760.582825	197.400000
760.619995	209.600000
760.657166	195.300000
760.694275	208.900000
760.731445	204.700000
760.768555	206.900000
760.805664	206.700000
760.842834	205.000000
760.879944	207.000000
760.917114	204.900000
760.954285	201.500000
760.991394	197.800000
761.028564	209.000000
761.065674	207.700000
761.102783	199.800000
761.139954	209.200000
761.177124	207.100000
761.214172	210.600000
761.251343	203.000000
761.288452	205.000000
761.325562	208.900000
761.362732	202.000000
761.399841	205.100000
761.436951	206.800000
761.474121	202.000000
761.511169	208.000000
761.548340	209.300000
761.585449	209.900000
761.622559	210.000000
761.659668	208.100000
761.696838	214.000000
761.733887	209.700000
761.771057	204.700000
761.808167	205.800000
761.845276	211.500000
761.882385	218.900000
761.919434	210.100000
761.956604	227.200000
761.993713	205.100000
762.030762	216.300000
762.067871	207.400000
762.105042	209.900000
762.142090	217.400000
762.179199	210.200000
762.216309	215.000000
762.253418	225.200000
762.290527	220.000000
762.327637	215.800000
762.364685	207.400000
762.401794	215.200000
762.438904	215.300000
762.475952	210.300000
762.513062	207.300000
762.550110	209.700000
762.587219	223.100000
762.624329	221.200000
762.661377	215.500000
762.698486	215.200000
762.735596	214.700000
762.772644	208.400000
762.809753	207.000000
762.846863	214.300000
762.883911	217.100000
762.921021	218.600000
762.958069	214.400000
762.995117	221.900000
763.032227	222.900000
763.069336	213.900000
763.106323	211.500000
763.143433	209.300000
763.180481	218.800000
763.217590	218.500000
763.254639	214.700000
763.291687	214.800000
763.328735	223.600000
763.365845	215.900000
763.402893	215.500000
763.439941	217.100000
763.477051	222.800000
763.514038	222.400000
763.551147	216.700000
763.588196	219.500000
763.625244	218.100000
763.662292	225.300000
763.699402	226.900000
763.736389	223.800000
763.773499	232.100000
763.810486	224.100000
763.847534	221.900000
763.884644	223.600000
763.921631	222.400000
763.958679	231.600000
763.995728	222.200000
764.032776	231.800000
764.069824	216.900000
764.106873	228.000000
764.143860	232.900000
764.180969	224.100000
764.218018	232.800000
764.255005	223.300000
764.292053	225.000000
764.329102	235.600000
764.366089	235.400000
764.403137	232.700000
764.440125	223.900000
764.477173	228.900000
764.514221	230.800000
764.551208	229.300000
764.588257	223.500000
764.625305	235.100000
764.662292	238.400000
764.699341	243.200000
764.736389	232.500000
764.773376	249.200000
764.810425	236.400000
764.847473	243.100000
764.884399	238.600000
764.921448	247.800000
764.958435	247.200000
764.995483	236.100000
765.032532	252.900000
765.069458	238.000000
765.106506	237.500000
765.143555	236.000000
765.180481	240.100000
765.217529	249.000000
765.254578	233.700000
765.291504	244.700000
765.328552	240.400000
765.365540	236.200000
765.402527	252.600000
765.439575	241.000000
765.476501	236.300000
765.513550	236.200000
765.550537	243.800000
765.587463	251.000000
765.624512	241.700000
765.661499	234.200000
765.698486	250.200000
765.735474	241.500000
765.772461	244.400000
765.809448	251.600000
765.846436	249.800000
765.883423	252.800000
765.920410	250.000000
765.957397	245.100000
765.994385	248.500000
766.031311	259.100000
766.068359	251.500000
766.105286	253.500000
766.142273	258.800000
766.179260	253.800000
766.216187	247.000000
766.253174	244.400000
766.290161	252.200000
766.327148	256.600000
766.364136	255.900000
766.401123	270.400000
766.438049	250.300000
766.475037	262.800000
766.512024	260.600000
766.548950	272.600000
766.585937	268.500000
766.622864	260.500000
766.659790	262.500000
766.696777	250.000000
766.733704	264.600000
766.770691	254.900000
766.807678	270.200000
766.844604	264.700000
766.881531	263.500000
766.918518	268.300000
766.955444	270.400000
766.992432	262.100000
767.029358	266.600000
767.066284	269.000000
767.103271	267.400000
767.140198	295.200000
767.177124	282.000000
767.214050	270.300000
767.251038	273.400000
767.287964	267.900000
767.324890	266.200000
767.361816	270.300000
767.398743	278.300000
767.435730	270.000000
767.472595	273.300000
767.509583	280.100000
767.546509	269.300000
767.583374	273.000000
767.620361	267.100000
767.657288	274.000000
767.694214	273.800000
767.731140	271.600000
767.768066	272.900000
767.804993	278.300000
767.841919	267.600000
767.878845	274.600000
767.915710	283.400000
767.952698	277.200000
767.989563	278.800000
768.026489	279.900000
768.063416	274.900000
768.100281	274.200000
768.137207	285.500000
768.174133	284.100000
768.211060	282.800000
768.247986	282.300000
768.284912	279.300000
768.321777	283.000000
768.358704	277.300000
768.395630	282.100000
768.432495	276.500000
768.469421	284.500000
768.506348	289.100000
768.543152	293.300000
768.580078	289.400000
768.616943	292.300000
768.653870	291.800000
768.690796	291.900000
768.727661	288.400000
768.764587	289.900000
768.801453	283.600000
768.838318	297.100000
768.875244	292.900000
768.912109	299.600000
768.948975	289.400000
768.985901	294.900000
769.022766	290.600000
769.059631	298.800000
769.096558	290.200000
769.133362	292.800000
769.170288	294.600000
769.207214	292.700000
769.244019	300.000000
769.280945	297.400000
769.317810	304.300000
769.354675	299.300000
769.391541	308.000000
769.428406	304.200000
769.465271	313.900000
769.502136	302.900000
769.539062	306.500000
769.575867	305.300000
769.612732	308.000000
769.649597	312.600000
769.686462	314.500000
769.723328	309.700000
769.760193	306.200000
769.797058	308.800000
769.833923	319.900000
769.870728	313.000000
769.907593	316.700000
769.944519	315.500000
769.981323	320.200000
770.018188	318.600000
770.055054	317.000000
770.091858	317.700000
770.128723	327.800000
770.165588	331.100000
770.202393	319.700000
770.239258	330.800000
770.276062	326.600000
770.312927	326.200000
770.349792	335.600000
770.386597	332.400000
770.423462	342.100000
770.460327	346.300000
770.497131	332.300000
770.533997	325.000000
770.570862	341.800000
770.607605	341.800000
770.644470	338.100000
770.681335	341.300000
770.718140	344.500000
770.754944	333.500000
770.791809	334.400000
770.828613	337.000000
770.865479	338.900000
770.902222	351.200000
770.939087	345.000000
770.975952	335.400000
771.012695	341.700000
771.049561	357.200000
771.086365	346.000000
771.123169	342.900000
771.159973	347.700000
771.196838	348.100000
771.233582	348.700000
771.270447	349.600000
771.307251	352.800000
771.344055	349.500000
771.380859	355.500000
771.417664	351.000000
771.454468	360.600000
771.491272	359.800000
771.528076	361.200000
771.564880	358.800000
771.601685	366.400000
771.638428	357.700000
771.675293	365.100000
771.712097	354.500000
771.748840	373.800000
771.785645	360.100000
771.822449	367.900000
771.859253	368.200000
771.896057	367.300000
771.932861	380.400000
771.969604	367.900000
772.006409	363.400000
772.043213	376.300000
772.079956	370.300000
772.116760	363.800000
772.153503	368.000000
772.190308	376.800000
772.227112	371.500000
772.263855	365.200000
772.300659	374.100000
772.337463	381.000000
772.374207	371.600000
772.411011	367.900000
772.447754	371.300000
772.484497	386.700000
772.521301	382.600000
772.558105	376.200000
772.594849	377.000000
772.631592	386.100000
772.668396	382.400000
772.705139	385.700000
772.741882	382.900000
772.778625	391.900000
772.815430	395.400000
772.852173	389.400000
772.888916	397.100000
772.925720	398.400000
772.962463	404.700000
772.999207	398.400000
773.035950	403.800000
773.072754	402.200000
773.109436	397.300000
773.146240	398.400000
773.182922	397.500000
773.219727	403.500000
773.256470	401.800000
773.293152	390.200000
773.329956	398.700000
773.366699	404.700000
773.403381	392.600000
773.440186	403.600000
773.476929	403.100000
773.513611	398.300000
773.550354	400.900000
773.587158	399.500000
773.623840	395.600000
773.660583	403.200000
773.697327	416.100000
773.734009	407.600000
773.770813	404.900000
773.807495	403.500000
773.844238	405.800000
773.880981	419.600000
773.917664	413.300000
773.954407	420.700000
773.991150	413.300000
774.027832	420.000000
774.064575	410.100000
774.101318	417.000000
774.138000	419.200000
774.174744	418.600000
774.211487	420.200000
774.248108	407.300000
774.284851	409.100000
774.321594	416.800000
774.358276	418.500000
774.395020	430.000000
774.431702	423.300000
774.468384	419.200000
774.505127	413.100000
774.541809	427.600000
774.578491	433.200000
774.615234	434.800000
774.651917	425.200000
774.688599	429.500000
774.725342	438.900000
774.762024	434.000000
774.798706	441.500000
774.835449	442.600000
774.872070	447.300000
774.908813	445.000000
774.945496	442.200000
774.982178	441.300000
775.018860	443.300000
775.055542	445.600000
775.092224	448.100000
775.128967	454.700000
775.165588	452.900000
775.202271	444.200000
775.239014	457.500000
775.275635	456.300000
775.312317	452.500000
775.349060	458.900000
775.385681	458.600000
775.422363	451.400000
775.459045	460.300000
775.495667	461.500000
775.532410	466.400000
775.569092	465.100000
775.605713	468.500000
775.642395	465.200000
775.679016	468.700000
775.715698	467.000000
775.752380	471.000000
775.789001	468.400000
775.825684	469.400000
775.862366	469.500000
775.898987	486.900000
775.935669	472.700000
775.972351	494.800000
776.008972	491.700000
776.045654	492.300000
776.082336	487.200000
776.118958	485.000000
776.155640	489.500000
776.192322	500.400000
776.228882	504.300000
776.265564	504.000000
776.302185	497.900000
776.338867	508.300000
776.375488	495.600000
776.412109	508.900000
776.448792	511.400000
776.485413	520.000000
776.522034	509.300000
776.558716	501.300000
776.595337	502.200000
776.631958	508.600000
776.668579	512.800000
776.705261	522.100000
776.741882	516.300000
776.778503	515.500000
776.815186	508.500000
776.851746	518.700000
776.888367	518.800000
776.924988	531.500000
776.961609	519.700000
776.998291	521.000000
777.034851	513.400000
777.071472	529.800000
777.108154	525.900000
777.144714	539.800000
777.181335	538.000000
777.218018	528.400000
777.254578	536.300000
777.291199	533.000000
777.327759	540.500000
777.364380	549.900000
777.401062	553.300000
777.437622	565.800000
777.474243	553.100000
777.510864	560.200000
777.547424	552.300000
777.584045	559.300000
777.620667	560.800000
777.657227	558.900000
777.693848	564.800000
777.730469	579.600000
777.767029	570.700000
777.803650	575.400000
777.840271	568.100000
777.876831	567.300000
777.913452	576.300000
777.950012	560.600000
777.986633	561.200000
778.023193	555.300000
778.059753	555.600000
778.096375	558.200000
778.132996	572.100000
778.169556	559.600000
778.206116	564.200000
778.242737	558.300000
778.279297	567.800000
778.315857	558.700000
778.352478	565.400000
778.389038	574.700000
778.425598	575.700000
778.462219	582.700000
778.498718	577.800000
778.535339	585.900000
778.571838	585.400000
778.608459	592.300000
778.645020	583.900000
778.681580	592.100000
778.718140	593.800000
778.754761	584.600000
778.791260	589.400000
778.827881	601.500000
778.864441	596.600000
778.900940	606.900000
778.937561	600.500000
778.974121	603.700000
779.010620	589.100000
779.047241	599.000000
779.083801	608.400000
779.120300	603.700000
779.156860	604.100000
779.193359	599.500000
779.229980	600.300000
779.266541	602.200000
779.303040	605.500000
779.339600	603.400000
779.376160	594.400000
779.412659	597.400000
779.449219	592.600000
779.485779	601.700000
779.522278	600.000000
779.558838	604.500000
779.595398	604.600000
779.631897	605.000000
779.668457	594.200000
779.705017	609.700000
779.741516	596.100000
779.778076	592.900000
779.814575	597.700000
779.851074	604.300000
779.887634	599.400000
779.924133	611.200000
779.960693	598.800000
779.997253	609.300000
780.033691	616.000000
780.070251	615.700000
780.106812	624.500000
780.143250	625.100000
780.179810	615.300000
780.216370	617.600000
780.252808	623.100000
780.289368	632.700000
780.325867	629.400000
780.362366	625.300000
780.398865	637.000000
780.435364	630.100000
780.471863	643.900000
780.508423	639.000000
780.544861	646.200000
780.581421	648.300000
780.617920	637.600000
780.654419	635.100000
780.690918	640.500000
780.727417	648.300000
780.763916	647.600000
780.800415	655.900000
780.836914	640.600000
780.873352	652.100000
780.909912	645.300000
780.946411	654.400000
780.982849	658.800000
781.019348	672.700000
781.055786	667.400000
781.092346	659.300000
781.128845	671.100000
781.165283	673.600000
781.201782	682.600000
781.238281	685.400000
781.274719	689.000000
781.311218	680.000000
781.347717	689.600000
781.384155	676.100000
781.420654	681.500000
781.457092	691.500000
781.493591	687.800000
781.530090	684.000000
781.566528	686.000000
781.602966	687.400000
781.639465	683.200000
781.675903	679.000000
781.712402	687.600000
781.748901	693.400000
781.785278	686.500000
781.821777	691.300000
781.858276	689.200000
781.894714	705.000000
781.931152	700.300000
781.967651	709.400000
782.004089	703.300000
782.040527	710.700000
782.076965	712.800000
782.113403	711.800000
782.149902	722.100000
782.186340	715.300000
782.222778	732.900000
782.259277	720.000000
782.295654	717.000000
782.332092	729.800000
782.368591	727.600000
782.404968	721.500000
782.441467	730.100000
782.477905	732.800000
782.514282	724.600000
782.550781	738.500000
782.587219	741.800000
782.623596	744.100000
782.660095	749.100000
782.696472	755.100000
782.732910	759.100000
782.769348	760.200000
782.805786	785.800000
782.842224	778.200000
782.878662	776.900000
782.915039	778.500000
782.951477	778.900000
782.987915	770.300000
783.024292	780.200000
783.060730	782.400000
783.097168	774.000000
783.133545	771.200000
783.169983	765.700000
783.206421	760.500000
783.242798	758.300000
783.279236	746.600000
783.315613	744.400000
783.352051	743.700000
783.388489	736.000000
783.424866	722.800000
783.461304	733.500000
783.497681	745.800000
783.534058	736.300000
783.570496	739.100000
783.606934	730.200000
783.643250	742.400000
783.679687	748.400000
783.716125	745.600000
783.752441	755.700000
783.788879	775.900000
783.825317	783.100000
783.861633	794.500000
783.898071	791.700000
783.934448	811.000000
783.970825	821.200000
784.007263	821.200000
784.043579	825.900000
784.080017	829.600000
784.116394	819.400000
784.152710	823.200000
784.189148	824.700000
784.225525	826.600000
784.261902	814.400000
784.298279	811.000000
784.334656	806.600000
784.371033	792.600000
784.407410	797.300000
784.443787	782.900000
784.480164	766.100000
784.516541	749.400000
784.552856	752.100000
784.589233	746.600000
784.625610	739.600000
784.661987	759.300000
784.698364	743.400000
784.734741	722.300000
784.771057	703.200000
784.807434	684.700000
784.843811	667.700000
784.880127	631.900000
784.916504	618.400000
784.952881	587.000000
784.989197	550.700000
785.025574	518.700000
785.061951	492.800000
785.098267	486.400000
785.134644	464.300000
785.170959	459.200000
785.207275	476.800000
785.243652	492.000000
785.279968	496.600000
785.316345	527.400000
785.352722	557.800000
785.388977	582.200000
785.425354	601.600000
785.461731	618.600000
785.498047	644.500000
785.534363	660.200000
785.570679	686.000000
785.606995	707.000000
785.643372	727.300000
785.679687	737.900000
785.716003	736.300000
785.752380	742.300000
785.788635	752.500000
785.825012	774.500000
785.861328	789.400000
785.897644	777.600000
785.933960	794.500000
785.970337	801.200000
786.006592	817.100000
786.042908	827.100000
786.079285	840.600000
786.115540	842.700000
786.151855	842.700000
786.188171	840.800000
786.224487	838.500000
786.260803	836.200000
786.297119	843.900000
786.333435	835.900000
786.369751	829.200000
786.406006	829.100000
786.442322	809.600000
786.478638	802.400000
786.514954	818.200000
786.551270	810.100000
786.587585	825.500000
786.623840	809.500000
786.660156	804.900000
786.696472	792.600000
786.732727	787.800000
786.769043	790.900000
786.805298	783.800000
786.841614	796.900000
786.877930	806.600000
786.914124	793.300000
786.950439	811.800000
786.986755	817.600000
787.023010	833.700000
787.059326	841.100000
787.095642	846.700000
787.131836	861.100000
787.168152	850.300000
787.204468	858.000000
787.240723	870.700000
787.276978	881.100000
787.313293	883.900000
787.349548	882.400000
787.385803	885.400000
787.422058	871.900000
787.458313	865.600000
787.494629	864.100000
787.530823	865.000000
787.567139	851.900000
787.603455	843.700000
787.639648	830.300000
787.675903	837.300000
787.712219	837.200000
787.748413	831.100000
787.784729	841.700000
787.820984	828.500000
787.857178	825.600000
787.893494	818.800000
787.929749	815.100000
787.965942	823.800000
788.002258	848.600000
788.038452	856.200000
788.074707	851.600000
788.110962	858.700000
788.147217	857.500000
788.183472	864.900000
788.219727	881.500000
788.255920	902.800000
788.292175	912.700000
788.328430	907.900000
788.364624	895.400000
788.400879	888.500000
788.437134	890.300000
788.473328	890.000000
788.509583	893.500000
788.545837	889.700000
788.582031	888.500000
788.618286	879.700000
788.654480	872.100000
788.690735	885.200000
788.726990	904.300000
788.763184	906.600000
788.799377	915.900000
788.835632	905.400000
788.871826	921.400000
788.908081	917.900000
788.944336	909.300000
788.980469	922.800000
789.016724	920.600000
789.052979	923.400000
789.089111	905.000000
789.125366	917.800000
789.161621	899.500000
789.197754	913.200000
789.234009	908.000000
789.270142	899.000000
789.306396	896.000000
789.342590	890.500000
789.378784	868.500000
789.414978	866.200000
789.451233	884.100000
789.487366	883.100000
789.523621	893.500000
789.559814	890.800000
789.595947	882.100000
789.632202	889.700000
789.668335	895.900000
789.704529	919.200000
789.740784	934.700000
789.776917	937.500000
789.813110	923.500000
789.849304	939.200000
789.885498	940.500000
789.921692	959.900000
789.957886	965.500000
789.994019	972.200000
790.030212	971.900000
790.066406	975.100000
790.102539	967.600000
790.138733	977.200000
790.174927	968.700000
790.211060	981.800000
790.247253	977.200000
790.283386	967.900000
790.319580	947.800000
790.355774	934.100000
790.391907	935.200000
790.428101	957.100000
790.464294	953.400000
790.500427	950.700000
790.536621	933.200000
790.572754	916.700000
790.608887	913.500000
790.645081	920.000000
790.681274	938.900000
790.717346	945.500000
790.753540	927.000000
790.789734	905.600000
790.825867	891.800000
790.862000	891.400000
790.898132	909.800000
790.934265	905.900000
790.970459	908.600000
791.006592	905.300000
791.042725	903.000000
791.078918	892.300000
791.114990	886.600000
791.151184	891.000000
791.187317	908.800000
791.223389	908.100000
791.259583	892.600000
791.295715	893.600000
791.331848	895.400000
791.367981	904.400000
791.404114	915.500000
791.440247	917.000000
791.476379	926.200000
791.512451	909.300000
791.548584	908.300000
791.584778	899.300000
791.620850	914.500000
791.656982	920.900000
791.693115	919.700000
791.729187	923.400000
791.765381	912.700000
791.801514	913.300000
791.837585	912.600000
791.873718	925.900000
791.909851	941.200000
791.945923	946.200000
791.982056	912.800000
792.018188	908.900000
792.054260	914.100000
792.090393	903.400000
792.126465	896.100000
792.162598	910.700000
792.198669	896.800000
792.234741	897.200000
792.270874	884.600000
792.307007	874.000000
792.343079	876.200000
792.379150	888.700000
792.415283	877.500000
792.451355	874.400000
792.487488	849.900000
792.523560	847.200000
792.559631	829.700000
792.595764	788.200000
792.631836	758.000000
792.667908	741.900000
792.703979	716.500000
792.740051	732.000000
792.776184	759.300000
792.812256	763.500000
792.848328	772.000000
792.884399	780.300000
792.920471	782.400000
792.956543	782.900000
792.992615	780.700000
793.028748	776.900000
793.064758	780.600000
793.100830	797.900000
793.136963	817.100000
793.172974	815.500000
793.209045	805.900000
793.245178	814.000000
793.281189	800.800000
793.317261	807.300000
793.353271	808.600000
793.389404	820.500000
793.425476	814.800000
793.461487	799.500000
793.497559	795.500000
793.533630	796.600000
793.569641	791.400000
793.605713	793.800000
793.641785	800.800000
793.677795	807.200000
793.713867	801.400000
793.749878	804.800000
793.785950	815.700000
793.822021	817.700000
793.858032	806.800000
793.894104	822.100000
793.930176	805.600000
793.966187	811.100000
794.002258	800.900000
794.038269	806.600000
794.074280	805.000000
794.110352	829.800000
794.146423	811.600000
794.182373	806.700000
794.218445	803.200000
794.254517	798.700000
794.290466	787.000000
794.326538	794.500000
794.362549	799.700000
794.398560	803.000000
794.434631	810.900000
794.470581	785.200000
794.506653	785.000000
794.542664	788.400000
794.578674	787.500000
794.614685	790.500000
794.650757	789.400000
794.686707	786.200000
794.722778	779.000000
794.758789	785.700000
794.794739	789.000000
794.830811	809.700000
794.866821	832.900000
794.902771	834.700000
794.938843	825.000000
794.974792	822.900000
795.010803	825.200000
795.046814	824.800000
795.082825	815.400000
795.118835	827.600000
795.154846	807.900000
795.190796	811.300000
795.226807	790.900000
795.262817	800.500000
795.298767	800.300000
795.334778	807.800000
795.370850	802.600000
795.406799	804.500000
795.442810	789.800000
795.478821	790.600000
795.514709	788.500000
795.550720	817.700000
795.586670	796.500000
795.622681	802.100000
795.658691	803.500000
795.694641	796.600000
795.730652	783.500000
795.766663	795.100000
795.802551	797.200000
795.838562	814.500000
795.874573	804.200000
795.910522	801.300000
795.946472	789.700000
795.982483	793.800000
796.018433	794.600000
796.054382	801.900000
796.090393	793.600000
796.126282	789.900000
796.162292	780.600000
796.198242	773.900000
796.234192	776.900000
796.270203	772.400000
796.306091	777.300000
796.342041	787.300000
796.378052	775.900000
796.413940	772.900000
796.449951	781.800000
796.485901	778.000000
796.521790	780.000000
796.557800	798.300000
796.593689	797.400000
796.629639	790.200000
796.665649	783.000000
796.701599	777.900000
796.737488	774.900000
796.773437	782.300000
796.809387	781.800000
796.845337	788.400000
796.881287	784.400000
796.917175	766.100000
796.953125	768.200000
796.989075	770.400000
797.024963	777.300000
797.060913	773.300000
797.096863	773.300000
797.132751	768.200000
797.168701	750.400000
797.204590	756.400000
797.240540	759.500000
797.276489	769.800000
797.312439	774.600000
797.348328	774.100000
797.384277	766.300000
797.420166	755.100000
797.456055	753.900000
797.492004	747.800000
797.527893	757.700000
797.563843	760.800000
797.599731	749.800000
797.635620	741.200000
797.671570	753.100000
797.707520	749.200000
797.743347	750.000000
797.779297	762.100000
797.815125	752.800000
797.851074	742.300000
797.887024	736.600000
797.922913	725.900000
797.958801	734.500000
797.994690	731.400000
798.030579	737.100000
798.066467	747.000000
798.102356	734.600000
798.138245	729.000000
798.174133	726.400000
798.210083	732.000000
798.245911	742.500000
798.281799	742.500000
798.317749	736.300000
798.353577	732.100000
798.389465	726.600000
798.425293	722.900000
798.461243	726.400000
798.497131	727.900000
798.532959	732.700000
798.568848	739.000000
798.604736	726.100000
798.640564	711.400000
798.676453	716.400000
798.712402	713.900000
798.748230	726.300000
798.784119	718.700000
798.820007	724.400000
798.855835	718.400000
798.891724	710.600000
798.927551	705.600000
798.963379	716.300000
798.999268	711.100000
799.035095	704.100000
799.070984	697.600000
799.106873	685.600000
799.142700	692.400000
799.178528	681.300000
799.214417	685.800000
799.250244	701.200000
799.286133	691.400000
799.321960	692.400000
799.357788	686.200000
799.393677	681.500000
799.429504	679.200000
799.465332	681.700000
799.501221	687.000000
799.537048	688.800000
799.572876	678.600000
799.608704	679.900000
799.644531	686.100000
799.680359	687.600000
799.716248	695.400000
799.752014	703.900000
799.787903	693.700000
799.823730	692.300000
799.859558	679.500000
799.895386	681.000000
799.931213	684.800000
799.967041	679.000000
800.002869	679.900000
800.038696	694.500000
800.074463	677.900000
800.110352	677.900000
800.146179	671.200000
800.181946	678.000000
800.217773	678.900000
800.253540	677.200000
800.289429	677.400000
800.325256	664.300000
800.361023	656.600000
800.396851	660.000000
800.432678	666.300000
800.468445	666.100000
800.504272	671.300000
800.540100	658.900000
800.575867	656.300000
800.611694	659.800000
800.647461	654.900000
800.683289	657.300000
800.719116	664.200000
800.754883	658.700000
800.790649	642.500000
800.826477	632.900000
800.862244	659.200000
800.898071	641.400000
800.933838	646.800000
800.969604	645.900000
801.005432	646.300000
801.041199	648.200000
801.076965	638.400000
801.112793	628.300000
801.148560	622.100000
801.184326	623.700000
801.220154	628.800000
801.255859	621.300000
801.291687	622.700000
801.327454	616.700000
801.363281	620.200000
801.398987	619.200000
801.434814	615.900000
801.470520	626.600000
801.506287	614.500000
801.542114	607.500000
801.577820	611.000000
801.613647	609.800000
801.649414	608.800000
801.685120	608.500000
801.720886	616.700000
801.756714	607.000000
801.792419	596.900000
801.828186	593.300000
801.863892	600.100000
801.899719	594.300000
801.935486	590.000000
801.971252	603.500000
802.006958	595.600000
802.042725	587.400000
802.078430	587.100000
802.114197	584.700000
802.149963	601.200000
802.185669	591.200000
802.221436	587.200000
802.257202	591.300000
802.292908	582.400000
802.328674	589.900000
802.364441	592.300000
802.400146	588.000000
802.435913	591.400000
802.471558	585.400000
802.507324	579.800000
802.543091	578.600000
802.578796	589.900000
802.614502	588.700000
802.650269	595.600000
802.685974	579.000000
802.721741	585.100000
802.757446	586.500000
802.793152	582.100000
802.828918	594.200000
802.864624	590.000000
802.900330	589.800000
802.936035	585.000000
802.971802	583.400000
803.007446	579.900000
803.043213	568.500000
803.078857	580.300000
803.114624	566.400000
803.150330	575.500000
803.185974	566.300000
803.221741	568.000000
803.257446	578.900000
803.293152	581.600000
803.328857	574.900000
803.364563	567.400000
803.400208	560.400000
803.435974	569.500000
803.471680	563.800000
803.507324	559.800000
803.543030	566.600000
803.578735	571.000000
803.614441	562.900000
803.650146	573.400000
803.685791	558.900000
803.721497	563.800000
803.757202	550.400000
803.792847	562.800000
803.828552	552.000000
803.864258	553.400000
803.899902	549.400000
803.935608	535.400000
803.971313	538.900000
804.006958	539.400000
804.042664	536.300000
804.078308	547.300000
804.113953	536.100000
804.149658	543.000000
804.185364	531.800000
804.221008	541.400000
804.256714	531.500000
804.292297	529.700000
804.328003	527.400000
804.363708	524.600000
804.399292	526.600000
804.434998	528.800000
804.470703	515.900000
804.506287	532.400000
804.541992	523.500000
804.577637	526.500000
804.613281	513.600000
804.648926	509.700000
804.684570	512.000000
804.720215	508.900000
804.755920	510.300000
804.791565	506.400000
804.827209	516.900000
804.862854	508.800000
804.898437	499.500000
804.934143	503.500000
804.969788	501.100000
805.005371	507.500000
805.041077	503.700000
805.076721	503.600000
805.112305	490.600000
805.147949	492.800000
805.183655	486.600000
805.219238	494.900000
805.254883	494.000000
805.290466	499.200000
805.326111	494.400000
805.361755	482.900000
805.397400	488.000000
805.432983	487.100000
805.468628	486.800000
805.504211	492.100000
805.539856	490.300000
805.575500	493.300000
805.611084	483.400000
805.646729	471.400000
805.682373	477.000000
805.717957	488.200000
805.753601	488.700000
805.789246	470.100000
805.824768	488.400000
805.860413	485.000000
805.895996	473.400000
805.931641	473.700000
805.967224	481.700000
806.002869	475.000000
806.038452	485.400000
806.074036	482.800000
806.109619	470.900000
806.145264	469.100000
806.180847	470.800000
806.216431	467.100000
806.252014	471.900000
806.287659	466.900000
806.323181	478.300000
806.358826	474.200000
806.394409	456.100000
806.429993	461.000000
806.465576	474.000000
806.501160	459.700000
806.536743	453.900000
806.572327	461.000000
806.607910	459.900000
806.643494	460.900000
806.679077	453.700000
806.714661	456.000000
806.750244	455.600000
806.785828	450.600000
806.821350	454.500000
806.856934	458.500000
806.892517	454.300000
806.928101	447.800000
806.963684	449.000000
806.999268	462.600000
807.034790	442.600000
807.070374	447.400000
807.105896	443.400000
807.141479	441.400000
807.177063	445.500000
807.212585	435.100000
807.248169	438.700000
807.283752	445.400000
807.319275	437.100000
807.354858	443.200000
807.390381	437.500000
807.425903	435.700000
807.461487	430.700000
807.497070	425.900000
807.532593	428.200000
807.568115	427.700000
807.603699	424.600000
807.639221	420.000000
807.674744	423.600000
807.710266	428.500000
807.745850	429.700000
807.781372	422.900000
807.816895	421.100000
807.852417	422.300000
807.888000	419.600000
807.923523	417.200000
807.959045	421.200000
807.994629	412.700000
808.030090	407.900000
808.065613	416.700000
808.101135	418.700000
808.136658	416.200000
808.172241	413.700000
808.207764	413.100000
808.243225	407.200000
808.278809	405.000000
808.314270	410.700000
808.349792	399.600000
808.385315	397.000000
808.420837	405.500000
808.456360	408.900000
808.491882	411.200000
808.527344	405.200000
808.562866	416.400000
808.598389	407.300000
808.633850	401.000000
808.669434	395.200000
808.704895	405.800000
808.740417	409.900000
808.775940	401.000000
808.811462	400.100000
808.846924	392.600000
808.882385	389.300000
808.917847	393.000000
808.953369	394.100000
808.988892	388.400000
809.024353	398.000000
809.059875	398.800000
809.095398	390.000000
809.130798	385.200000
809.166321	385.100000
809.201843	385.600000
809.237305	386.500000
809.272766	394.400000
809.308228	382.100000
809.343750	380.600000
809.379211	386.300000
809.414734	383.300000
809.450134	390.800000
809.485657	375.200000
809.521118	382.200000
809.556580	379.300000
809.592102	378.800000
809.627502	375.900000
809.663025	375.400000
809.698486	371.400000
809.733887	369.000000
809.769409	374.000000
809.804871	363.900000
809.840271	366.700000
809.875793	372.000000
809.911194	374.000000
809.946655	365.200000
809.982178	361.200000
810.017639	367.300000
810.053040	364.200000
810.088501	360.800000
810.123901	360.800000
810.159424	359.100000
810.194885	355.200000
810.230286	361.100000
810.265747	353.600000
810.301208	351.000000
810.336609	353.400000
810.372070	347.300000
810.407532	352.200000
810.442932	352.300000
810.478394	355.600000
810.513794	349.000000
810.549255	348.300000
810.584717	346.000000
810.620117	342.300000
810.655518	347.400000
810.690979	346.700000
810.726379	344.200000
810.761841	334.700000
810.797302	335.500000
810.832642	333.900000
810.868103	347.700000
810.903564	335.600000
810.938904	343.700000
810.974365	333.500000
811.009827	335.600000
811.045166	331.900000
811.080627	322.800000
811.115967	328.000000
811.151428	335.500000
811.186829	329.100000
811.222229	329.200000
811.257629	323.800000
811.293091	328.200000
811.328430	337.300000
811.363892	329.800000
811.399292	333.900000
811.434631	327.600000
811.470093	331.400000
811.505493	323.600000
811.540833	324.300000
811.576294	327.500000
811.611694	323.300000
811.647034	317.400000
811.682434	323.400000
811.717773	321.700000
811.753235	328.100000
811.788635	320.900000
811.823975	320.800000
811.859375	329.300000
811.894775	315.500000
811.930115	316.700000
811.965515	317.100000
812.000916	320.100000
812.036255	315.100000
812.071655	319.000000
812.106995	312.200000
812.142395	314.000000
812.177795	321.100000
812.213196	319.100000
812.248474	317.600000
812.283875	309.500000
812.319214	313.300000
812.354614	313.200000
812.390015	309.400000
812.425293	310.700000
812.460693	311.900000
812.496094	309.200000
812.531433	300.400000
812.566772	304.300000
812.602173	306.700000
812.637451	307.700000
812.672852	303.500000
812.708191	307.400000
812.743530	300.500000
812.778931	295.700000
812.814270	297.900000
812.849609	306.500000
812.884949	299.900000
812.920227	292.600000
812.955627	306.500000
812.990967	300.300000
813.026306	295.100000
813.061646	285.100000
813.096985	284.200000
813.132324	281.400000
813.167664	285.600000
813.203003	290.400000
813.238281	278.400000
813.273682	280.900000
813.308960	276.100000
813.344299	278.100000
813.379639	286.500000
813.414978	279.900000
813.450256	279.100000
813.485596	283.000000
813.520874	275.000000
813.556213	278.800000
813.591614	282.800000
813.626831	274.600000
813.662170	278.800000
813.697510	287.700000
813.732788	271.200000
813.768127	276.600000
813.803467	277.500000
813.838745	272.800000
813.874084	279.200000
813.909363	273.700000
813.944641	275.800000
813.979980	266.700000
814.015320	270.800000
814.050598	268.700000
814.085876	272.500000
814.121155	270.300000
814.156494	266.300000
814.191772	268.900000
814.227051	264.800000
814.262390	268.500000
814.297668	267.200000
814.332947	267.600000
814.368225	259.400000
814.403564	264.200000
814.438782	261.900000
814.474121	265.000000
814.509338	259.800000
814.544617	267.700000
814.579956	258.800000
814.615173	269.700000
814.650513	267.300000
814.685791	258.200000
814.721008	261.700000
814.756348	261.100000
814.791626	257.800000
814.826843	255.400000
814.862122	259.800000
814.897400	253.800000
814.932678	259.000000
814.967957	259.100000
815.003235	255.700000
815.038452	249.300000
815.073730	249.300000
815.108948	260.500000
815.144226	257.600000
815.179504	259.400000
815.214722	246.300000
815.250000	246.800000
815.285278	254.000000
815.320496	248.200000
815.355774	251.100000
815.391052	252.000000
815.426270	249.400000
815.461487	248.600000
815.496765	245.600000
815.531982	240.700000
815.567261	247.900000
815.602539	254.600000
815.637695	248.400000
815.672974	250.700000
815.708191	250.900000
815.743408	252.700000
815.778687	246.200000
815.813904	255.300000
815.849121	240.200000
815.884399	240.000000
815.919556	240.100000
815.954834	241.300000
815.990051	244.400000
816.025269	249.100000
816.060486	238.200000
816.095703	237.200000
816.130920	242.800000
816.166199	238.200000
816.201416	243.300000
816.236572	245.700000
816.271851	237.500000
816.307007	245.900000
816.342224	233.700000
816.377441	237.600000
816.412659	230.100000
816.447876	241.500000
816.483093	235.500000
816.518250	236.100000
816.553467	233.400000
816.588745	238.100000
816.623901	229.300000
816.659119	225.900000
816.694275	230.100000
816.729492	228.000000
816.764709	264.000000
816.799927	224.600000
816.835083	230.400000
816.870300	223.900000
816.905457	225.800000
816.940674	229.400000
816.975830	223.800000
817.010986	222.800000
817.046204	224.100000
817.081421	221.600000
817.116577	220.300000
817.151733	230.500000
817.186951	229.000000
817.222107	226.400000
817.257324	227.900000
817.292419	227.400000
817.327637	219.300000
817.362854	223.500000
817.398010	217.900000
817.433167	220.900000
817.468323	217.800000
817.503479	220.400000
817.538635	229.300000
817.573853	224.400000
817.608948	220.300000
817.644165	218.600000
817.679321	215.900000
817.714478	215.100000
817.749634	219.000000
817.784790	230.600000
817.819946	225.400000
817.855103	207.600000
817.890198	216.400000
817.925415	208.700000
817.960571	219.100000
817.995667	217.500000
818.030823	218.300000
818.066040	212.700000
818.101135	216.600000
818.136292	214.100000
818.171448	209.200000
818.206543	213.300000
818.241699	216.500000
818.276855	214.700000
818.311951	214.900000
818.347107	207.700000
818.382263	215.800000
818.417358	219.300000
818.452515	220.200000
818.487610	219.700000
818.522766	208.700000
818.557922	219.800000
818.593018	215.400000
818.628113	212.900000
818.663269	208.000000
818.698364	212.500000
818.733521	208.500000
818.768677	212.900000
818.803711	208.100000
818.838867	205.600000
818.874023	208.500000
818.909058	205.300000
818.944214	204.600000
818.979370	212.100000
819.014404	208.400000
819.049561	204.400000
819.084595	210.700000
819.119751	201.600000
819.154846	210.000000
819.189941	206.600000
819.225037	201.400000
819.260193	197.400000
819.295227	201.200000
819.330322	196.000000
819.365479	195.600000
819.400513	229.600000
819.435608	195.200000
819.470764	192.500000
819.505798	196.300000
819.540894	198.100000
819.575989	196.800000
819.611084	205.800000
819.646179	207.800000
819.681213	202.500000
819.716309	198.900000
819.751404	199.800000
819.786438	204.900000
819.821533	195.200000
819.856628	200.600000
819.891663	206.100000
819.926758	208.500000
819.961853	206.100000
819.996887	196.100000
820.031982	201.500000
820.067017	196.400000
820.102112	226.300000
820.137207	194.400000
820.172302	213.000000
820.207275	193.300000
820.242371	196.500000
820.277405	193.900000
820.312500	196.600000
820.347534	198.700000
820.382568	202.200000
820.417664	193.400000
820.452759	196.000000
820.487732	192.200000
820.522827	196.200000
820.557861	189.800000
820.592896	192.900000
820.627930	193.600000
820.662964	193.500000
820.698059	196.300000
820.733093	193.300000
820.768127	198.200000
820.803162	195.300000
820.838196	191.600000
820.873230	195.200000
820.908264	195.000000
820.943298	192.100000
820.978333	199.500000
821.013367	196.300000
821.048401	199.300000
821.083435	200.500000
821.118469	186.500000
821.153503	198.400000
821.188477	195.900000
821.223511	188.000000
821.258484	195.300000
821.293579	195.100000
821.328613	188.000000
821.363647	192.700000
821.398621	188.800000
821.433655	190.800000
821.468628	205.900000
821.503662	192.600000
821.538696	196.600000
821.573669	189.600000
821.608704	196.900000
821.643677	190.500000
821.678650	195.500000
821.713684	201.000000
821.748718	192.400000
821.783691	191.800000
821.818726	195.000000
821.853638	195.300000
821.888672	192.400000
821.923706	192.000000
821.958618	189.500000
821.993652	189.900000
822.028687	197.900000
822.063599	198.000000
822.098633	194.700000
822.133667	187.700000
822.168579	190.800000
822.203613	192.400000
822.238586	189.500000
822.273560	194.000000
822.308533	189.200000
822.343567	188.800000
822.378479	191.100000
822.413452	189.100000
822.448425	188.200000
822.483398	195.700000
822.518372	197.500000
822.553345	189.500000
822.588318	200.100000
822.623291	190.500000
822.658203	189.800000
822.693237	191.600000
822.728210	188.600000
822.763123	192.600000
822.798096	187.600000
822.833069	191.400000
822.867981	191.900000
822.902954	192.800000
822.937927	195.600000
822.972900	202.300000
823.007874	184.500000
823.042725	196.700000
823.077698	203.500000
823.112671	188.200000
823.147583	190.500000
823.182556	195.400000
823.217529	196.000000
823.252441	189.300000
823.287415	205.100000
823.322388	193.900000
823.357239	191.200000
823.392212	200.000000
823.427185	196.000000
823.462097	187.900000
823.497009	196.000000
823.531982	190.000000
823.566895	191.800000
823.601807	187.900000
823.636719	190.700000
823.671631	194.400000
823.706604	189.100000
823.741455	194.800000
823.776428	183.600000
823.811340	195.600000
823.846252	197.300000
823.881165	201.100000
823.916138	193.500000
823.950989	200.900000
823.985901	187.100000
824.020813	191.900000
824.055725	191.100000
824.090637	186.700000
824.125610	192.500000
824.160461	193.500000
824.195374	192.400000
824.230225	196.900000
824.265198	183.200000
824.300110	189.200000
824.334961	201.200000
824.369873	183.700000
824.404785	194.000000
824.439636	197.800000
824.474548	182.400000
824.509460	182.000000
824.544312	196.900000
824.579224	194.100000
824.614075	195.100000
824.648987	190.300000
824.683899	188.700000
824.718811	188.900000
824.753662	198.000000
824.788574	196.000000
824.823364	190.900000
824.858276	187.800000
824.893188	197.200000
824.928040	197.700000
824.962952	193.800000
824.997803	195.000000
825.032654	192.500000
825.067566	194.800000
825.102417	189.000000
825.137268	189.000000
825.172119	191.000000
825.206970	188.900000
825.241882	189.900000
825.276733	187.600000
825.311646	187.300000
825.346436	184.000000
825.381348	185.600000
825.416138	190.600000
825.450989	186.700000
825.485901	180.300000
825.520691	183.400000
825.555542	183.500000
825.590454	188.900000
825.625244	181.600000
825.660095	196.300000
825.695007	192.300000
825.729797	189.000000
825.764648	185.100000
825.799438	188.800000
825.834290	189.400000
825.869202	182.600000
825.903992	189.400000
825.938843	185.600000
825.973694	182.000000
826.008484	200.600000
826.043335	183.700000
826.078186	178.500000
826.112976	194.700000
826.147827	193.300000
826.182678	198.300000
826.217468	182.000000
826.252319	191.500000
826.287109	182.800000
826.321899	194.400000
826.356750	186.900000
826.391541	182.200000
826.426392	192.800000
826.461182	187.500000
826.495972	181.800000
826.530823	179.600000
826.565613	188.000000
826.600403	182.000000
826.635254	191.300000
826.670044	179.800000
826.704834	179.400000
826.739685	182.800000
826.774475	189.300000
826.809265	186.800000
826.844055	183.900000
826.878906	192.900000
826.913635	187.400000
826.948425	189.600000
826.983215	188.200000
827.018005	192.200000
827.052856	184.300000
827.087585	191.100000
827.122375	179.300000
827.157227	186.300000
827.191956	198.300000
827.226746	181.700000
827.261536	189.800000
827.296265	180.600000
827.331116	183.900000
827.365906	190.700000
827.400635	183.000000
827.435425	178.500000
827.470215	193.400000
827.504944	185.000000
827.539734	191.600000
827.574463	185.600000
827.609253	193.900000
827.644043	186.700000
827.678772	190.400000
827.713562	184.900000
827.748352	185.300000
827.783081	184.000000
827.817871	186.300000
827.852600	183.400000
827.887329	186.200000
827.922119	176.900000
827.956848	189.300000
827.991638	200.700000
828.026367	187.000000
828.061157	187.700000
828.095886	186.000000
828.130615	201.800000
828.165344	176.500000
828.200073	187.900000
828.234863	184.100000
828.269592	186.400000
828.304321	191.600000
828.339111	186.900000
828.373779	182.100000
828.408569	191.400000
828.443298	191.200000
828.477966	183.400000
828.512756	187.700000
828.547424	182.300000
828.582214	184.400000
828.616943	185.200000
828.651672	185.800000
828.686340	188.700000
828.721130	183.600000
828.755798	187.300000
828.790527	185.900000
828.825256	187.900000
828.859924	186.900000
828.894714	192.500000
828.929443	195.100000
828.964111	183.800000
828.998840	190.000000
829.033569	183.600000
829.068237	184.900000
829.102966	182.300000
829.137634	188.000000
829.172363	188.000000
829.207092	187.800000
829.241821	182.500000
829.276489	179.300000
829.311157	186.400000
829.345825	184.100000
829.380554	190.300000
829.415283	182.600000
829.449951	179.300000
829.484619	195.100000
829.519348	192.900000
829.554016	187.400000
829.588745	185.200000
829.623413	179.600000
829.658081	197.300000
829.692749	179.400000
829.727417	191.000000
829.762146	188.800000
829.796814	181.500000
829.831482	185.500000
829.866150	188.200000
829.900879	184.200000
829.935486	188.300000
829.970154	184.800000
830.004883	197.600000
830.039490	187.500000
830.074219	183.100000
830.108887	187.400000
830.143494	185.800000
830.178223	180.900000
830.212891	183.800000
830.247498	187.400000
830.282166	194.100000
830.316772	192.000000
830.351501	185.700000
830.386169	185.200000
830.420776	185.200000
830.455444	185.700000
830.490112	184.300000
830.524719	177.600000
830.559387	187.800000
830.594055	189.700000
830.628662	186.800000
830.663330	185.100000
830.697998	196.800000
830.732605	184.400000
830.767273	189.300000
830.801941	185.100000
830.836487	194.400000
830.871155	187.600000
830.905762	188.400000
830.940430	180.100000
830.975098	182.900000
831.009644	186.900000
831.044312	194.100000
831.078979	188.100000
831.113525	177.700000
831.148193	185.900000
831.182861	184.800000
831.217407	188.700000
831.252075	201.600000
831.286621	182.900000
831.321289	183.400000
831.355896	185.200000
831.390564	193.500000
831.425110	186.100000
831.459778	193.200000
831.494324	198.100000
831.528931	189.700000
831.563599	190.100000
831.598145	180.900000
831.632751	186.700000
831.667419	186.200000
831.701965	188.400000
831.736572	190.100000
831.771179	180.600000
831.805786	183.100000
831.840393	193.500000
831.874939	178.700000
831.909546	191.600000
831.944153	179.400000
831.978760	185.600000
832.013306	181.200000
832.047913	193.200000
832.082458	195.200000
832.117065	183.000000
832.151672	194.800000
832.186218	187.400000
832.220825	189.800000
832.255432	179.000000
832.289978	183.900000
832.324585	189.400000
832.359192	187.700000
832.393677	186.000000
832.428284	187.700000
832.462830	184.900000
832.497437	184.800000
832.531982	191.000000
832.566589	185.500000
832.601135	188.600000
832.635681	178.300000
832.670227	186.900000
832.704773	193.700000
832.739380	188.800000
832.773926	187.800000
832.808472	184.000000
832.843079	185.300000
832.877563	190.800000
832.912170	183.900000
832.946716	180.500000
832.981201	192.300000
833.015808	189.800000
833.050293	184.100000
833.084839	182.900000
833.119446	183.800000
833.153992	191.200000
833.188477	185.100000
833.223022	182.900000
833.257568	187.300000
833.292114	193.900000
833.326660	196.800000
833.361145	185.000000
833.395691	178.900000
833.430237	186.200000
833.464783	189.400000
833.499329	185.000000
833.533875	181.300000
833.568359	190.400000
833.602905	192.100000
833.637390	192.500000
833.671875	183.000000
833.706421	186.100000
833.740906	183.300000
833.775452	178.100000
833.809998	185.700000
833.844482	194.500000
833.879028	186.300000
833.913513	184.800000
833.947998	188.200000
833.982544	182.800000
834.017090	184.800000
834.051514	175.400000
834.086060	189.900000
834.120544	187.500000
834.155029	188.200000
834.189575	186.000000
834.223999	188.700000
834.258545	187.800000
834.293030	187.600000
834.327515	186.400000
834.362000	182.700000
834.396545	189.900000
834.430969	186.200000
834.465454	190.300000
834.500000	178.700000
834.534424	188.100000
834.568970	176.900000
834.603455	178.400000
834.637878	184.300000
834.672363	186.800000
834.706909	186.000000
834.741333	186.100000
834.775818	179.400000
834.810242	182.100000
834.844727	187.900000
834.879211	183.200000
834.913635	187.000000
834.948181	186.700000
834.982666	187.600000
835.017090	185.100000
835.051575	190.200000
835.086060	183.200000
835.120483	189.800000
835.154907	190.700000
835.189331	187.200000
835.223816	188.500000
835.258301	181.400000
835.292786	182.300000
835.327209	191.400000
835.361694	182.800000
835.396057	184.700000
835.430542	189.600000
835.465027	188.000000
835.499390	180.900000
835.533875	206.500000
835.568359	184.400000
835.602722	180.100000
835.637207	187.600000
835.671692	180.200000
835.706055	201.400000
835.740540	189.100000
835.774902	189.800000
835.809387	188.000000
835.843811	179.900000
835.878235	194.100000
835.912659	179.900000
835.947083	182.900000
835.981506	186.500000
836.015930	178.800000
836.050354	191.400000
836.084778	194.800000
836.119202	191.000000
836.153625	199.800000
836.187988	182.500000
836.222473	181.700000
836.256897	187.900000
836.291260	185.600000
836.325684	188.700000
836.360046	183.600000
836.394470	185.000000
836.428894	191.300000
836.463318	184.200000
836.497681	190.500000
836.532104	194.700000
836.566467	186.200000
836.600891	185.500000
836.635315	191.700000
836.669678	189.900000
836.704102	190.200000
836.738525	187.500000
836.772888	177.300000
836.807251	184.100000
836.841675	188.900000
836.876038	181.100000
836.910461	181.200000
836.944763	189.200000
836.979187	181.400000
837.013611	193.800000
837.047974	180.100000
837.082336	197.900000
837.116699	190.800000
837.151062	187.100000
837.185486	179.400000
837.219849	185.700000
837.254211	190.600000
837.288574	187.000000
837.322937	181.400000
837.357300	175.600000
837.391663	198.300000
837.426086	191.400000
837.460388	187.200000
837.494751	190.800000
837.529114	184.000000
837.563477	191.600000
837.597839	188.800000
837.632141	185.600000
837.666565	184.000000
837.700928	187.300000
837.735229	190.800000
837.769592	189.600000
837.803955	193.100000
837.838257	183.800000
837.872620	182.000000
837.906982	192.500000
837.941284	188.100000
837.975647	185.600000
838.010010	192.800000
838.044312	182.900000
838.078674	184.200000
838.112976	187.200000
838.147339	190.900000
838.181702	186.800000
838.216003	197.300000
838.250366	187.500000
838.284668	188.600000
838.318970	179.300000
838.353333	187.300000
838.387634	184.200000
838.421936	188.200000
838.456299	186.900000
838.490601	195.000000
838.524902	189.800000
838.559265	191.900000
838.593567	189.600000
838.627869	181.300000
838.662170	189.900000
838.696472	179.700000
838.730774	182.800000
838.765137	191.500000
838.799377	172.600000
838.833740	187.400000
838.868042	193.000000
838.902283	178.700000
838.936646	191.900000
838.970947	189.100000
839.005188	190.500000
839.039551	180.300000
839.073792	194.500000
839.108093	184.800000
839.142395	196.600000
839.176697	181.300000
839.210937	188.800000
839.245300	197.800000
839.279541	180.000000
839.313843	184.300000
839.348145	190.400000
839.382385	190.900000
839.416687	190.200000
839.450989	189.800000
839.485229	186.300000
839.519531	181.900000
839.553833	193.700000
839.588013	185.900000
839.622314	189.300000
839.656555	188.400000
839.690857	187.100000
839.725159	179.900000
839.759460	185.700000
839.793640	183.600000
839.827942	186.700000
839.862183	181.700000
839.896423	188.200000
839.930725	195.400000
839.964966	194.100000
839.999207	192.400000
840.033508	194.900000
840.067688	183.000000
840.101990	195.800000
840.136230	186.500000
840.170471	196.300000
840.204712	182.700000
840.238953	183.300000
840.273193	188.300000
840.307434	190.300000
840.341736	181.400000
840.375916	181.600000
840.410217	184.500000
840.444397	190.700000
840.478638	189.600000
840.512878	194.500000
840.547119	186.800000
840.581360	188.700000
840.615601	196.500000
840.649780	197.100000
840.684021	187.100000
840.718262	196.000000
840.752441	192.200000
840.786682	188.600000
840.820862	188.000000
840.855103	194.600000
840.889343	186.900000
840.923584	192.800000
840.957764	189.000000
840.992004	189.500000
841.026184	200.800000
841.060425	184.800000
841.094666	183.700000
841.128845	189.900000
841.163025	188.400000
841.197266	191.200000
841.231445	188.500000
841.265686	187.400000
841.299866	183.700000
841.334045	194.400000
841.368286	185.600000
841.402405	193.800000
841.436646	191.600000
841.470825	184.400000
841.505005	186.700000
841.539185	182.200000
841.573425	184.800000
841.607544	187.100000
841.641785	187.100000
841.675964	182.100000
841.710144	188.100000
841.744324	184.500000
841.778503	186.800000
841.812683	182.400000
841.846863	196.400000
841.881042	193.100000
841.915222	184.900000
841.949402	203.200000
841.983521	179.800000
842.017700	186.300000
842.051880	188.100000
842.086060	188.500000
842.120239	188.000000
842.154419	185.300000
842.188538	188.600000
842.222717	183.200000
842.256897	197.400000
842.291016	187.000000
842.325195	189.000000
842.359375	198.700000
842.393494	196.700000
842.427673	187.600000
842.461853	190.700000
842.495911	197.100000
842.530090	190.700000
842.564209	187.300000
842.598389	189.700000
842.632568	187.500000
842.666626	191.900000
842.700806	184.600000
842.734985	184.800000
842.769043	190.100000
842.803223	186.800000
842.837402	186.200000
842.871460	184.900000
842.905640	196.400000
842.939697	182.800000
842.973877	189.400000
843.007996	193.700000
843.042175	198.100000
843.076233	184.200000
843.110413	190.500000
843.144470	195.800000
843.178589	191.800000
843.212769	185.000000
843.246826	191.900000
843.280945	185.100000
843.315125	186.600000
843.349182	182.600000
843.383301	196.200000
843.417419	200.200000
843.451538	187.900000
843.485657	184.400000
843.519714	186.600000
843.553833	189.600000
843.587952	187.100000
843.622070	184.000000
843.656128	191.100000
843.690247	185.700000
843.724304	186.100000
843.758423	188.400000
843.792542	186.500000
843.826599	186.800000
843.860718	186.500000
843.894836	181.200000
843.928894	188.600000
843.963013	189.100000
843.997070	184.700000
844.031128	181.100000
844.065247	194.000000
844.099304	192.600000
844.133362	190.300000
844.167480	192.000000
844.201599	194.400000
844.235596	189.300000
844.269714	189.700000
844.303711	190.100000
844.337830	180.400000
844.371948	190.500000
844.405945	188.500000
844.440063	182.800000
844.474121	202.000000
844.508118	186.800000
844.542236	186.900000
844.576294	186.300000
844.610352	182.700000
844.644409	187.400000
844.678406	178.400000
844.712524	193.800000
844.746582	194.200000
844.780640	188.300000
844.814636	187.000000
844.848755	198.800000
844.882751	185.700000
844.916809	192.900000
844.950867	190.700000
844.984863	197.600000
845.018921	186.500000
845.052979	184.100000
845.086975	188.600000
845.121033	182.300000
845.155090	183.200000
845.189087	194.800000
845.223145	184.600000
845.257141	189.600000
845.291199	190.900000
845.325256	195.900000
845.359253	188.500000
845.393250	199.800000
845.427307	185.900000
845.461304	190.800000
845.495361	187.600000
845.529358	199.700000
845.563354	184.300000
845.597412	185.300000
845.631409	196.400000
845.665405	196.600000
845.699463	192.700000
845.733459	185.800000
845.767456	195.000000
845.801453	186.400000
845.835449	195.100000
845.869446	192.500000
845.903503	193.400000
845.937439	184.300000
845.971497	194.800000
846.005493	183.000000
846.039429	192.000000
846.073486	198.400000
846.107483	186.500000
846.141418	188.800000
846.175476	188.500000
846.209473	194.700000
846.243408	184.600000
846.277405	186.200000
846.311401	184.000000
846.345337	189.400000
846.379395	193.400000
846.413330	183.700000
846.447327	197.400000
846.481323	183.500000
846.515259	186.000000
846.549255	188.200000
846.583252	190.600000
846.617187	183.600000
846.651184	189.900000
846.685120	186.700000
846.719055	196.700000
846.753052	191.600000
846.786987	192.400000
846.820984	181.400000
846.854980	194.600000
846.888916	182.800000
846.922852	190.000000
846.956848	197.300000
846.990723	183.600000
847.024719	188.900000
847.058716	187.300000
847.092590	194.900000
847.126587	190.000000
847.160522	186.000000
847.194458	193.700000
847.228455	183.400000
847.262390	184.400000
847.296265	185.200000
847.330261	193.900000
847.364136	186.900000
847.398132	185.600000
847.432068	189.500000
847.466003	187.600000
847.499939	187.500000
847.533875	192.000000
847.567749	187.000000
847.601746	186.900000
847.635681	192.100000
847.669556	181.300000
847.703491	195.000000
847.737427	203.100000
847.771301	183.500000
847.805237	191.100000
847.839233	188.900000
847.873108	188.600000
847.907043	186.600000
847.940918	195.400000
847.974854	190.200000
848.008789	192.800000
848.042664	188.300000
848.076538	191.400000
848.110474	188.300000
848.144348	189.000000
848.178284	182.300000
848.212219	189.800000
848.246094	186.400000
848.279968	188.500000
848.313904	192.100000
848.347778	188.000000
848.381653	186.500000
848.415588	185.500000
848.449463	185.400000
848.483337	189.700000
848.517212	194.000000
848.551086	188.300000
848.585022	184.300000
848.618835	198.100000
848.652771	184.800000
848.686646	183.600000
848.720520	197.200000
848.754395	186.200000
848.788330	192.800000
848.822144	191.700000
848.856018	187.500000
848.889954	198.100000
848.923767	183.600000
848.957642	185.300000
848.991577	192.900000
849.025391	185.600000
849.059265	186.800000
849.093079	184.900000
849.126953	182.400000
849.160828	193.700000
849.194641	190.500000
849.228577	186.200000
849.262451	187.700000
849.296265	186.700000
849.330139	184.200000
849.364014	188.100000
849.397827	191.400000
849.431702	188.000000
849.465515	192.900000
849.499329	181.200000
849.533203	182.900000
849.567078	179.200000
849.600891	191.400000
849.634766	187.300000
849.668518	193.100000
849.702393	187.900000
849.736267	182.600000
849.770020	198.100000
849.803894	191.800000
849.837769	189.700000
849.871521	190.000000
849.905396	195.000000
849.939270	183.900000
849.973022	187.200000
850.006897	191.900000
850.040710	190.800000
850.074524	192.400000
850.108337	188.600000
850.142151	192.600000
850.175964	195.400000
850.209778	187.700000
850.243530	176.300000
850.277405	193.000000
850.311218	187.800000
850.344971	185.000000
850.378845	196.600000
850.412659	184.600000
850.446411	189.600000
850.480225	186.200000
850.514038	195.400000
850.547791	191.900000
850.581665	188.200000
850.615417	185.500000
850.649231	189.600000
850.683044	185.900000
850.716858	188.400000
850.750610	186.900000
850.784424	193.200000
850.818176	184.900000
850.851929	187.700000
850.885742	184.900000
850.919495	187.800000
850.953308	195.000000
850.987122	195.900000
851.020874	183.200000
851.054626	182.600000
851.088440	191.900000
851.122192	193.700000
851.156006	189.700000
851.189697	187.500000
851.223511	183.600000
851.257263	192.800000
851.291077	192.300000
851.324829	190.000000
851.358582	187.800000
851.392334	186.500000
851.426086	187.800000
851.459900	198.100000
851.493591	189.500000
851.527344	188.700000
851.561157	188.100000
851.594849	190.200000
851.628662	190.400000
851.662415	197.000000
851.696106	190.500000
851.729858	192.800000
851.763611	182.700000
851.797363	188.600000
851.831116	185.700000
851.864868	192.500000
851.898560	193.400000
851.932312	184.900000
851.966064	189.600000
851.999817	187.400000
852.033569	188.700000
852.067261	191.500000
852.101013	184.400000
852.134766	186.800000
852.168457	179.500000
852.202209	191.600000
852.235901	184.700000
852.269592	191.900000
852.303345	198.500000
852.337036	191.900000
852.370789	188.500000
852.404541	192.400000
852.438171	185.300000
852.471924	187.500000
852.505676	182.700000
852.539307	190.200000
852.573059	185.700000
852.606812	185.900000
852.640442	187.100000
852.674194	193.400000
852.707886	199.000000
852.741577	195.500000
852.775269	184.600000
852.809021	188.900000
852.842651	192.000000
852.876404	193.800000
852.910034	189.800000
852.943787	194.700000
852.977478	191.900000
853.011108	186.000000
853.044861	186.800000
853.078552	194.100000
853.112183	190.700000
853.145874	191.400000
853.179626	180.100000
853.213257	190.500000
853.246948	186.600000
853.280640	197.000000
853.314270	188.100000
853.347961	196.100000
853.381653	191.800000
853.415283	194.400000
853.448975	185.800000
853.482605	188.800000
853.516296	188.500000
853.549988	184.400000
853.583618	189.700000
853.617310	190.000000
853.651001	189.600000
853.684631	186.100000
853.718323	185.000000
853.751953	195.800000
853.785583	180.600000
853.819275	192.100000
853.852966	189.400000
853.886536	180.100000
853.920227	183.000000
853.953918	193.700000
853.987488	186.800000
854.021179	192.100000
854.054749	196.800000
854.088440	191.700000
854.122131	182.800000
854.155701	192.900000
854.189331	183.000000
854.223022	192.300000
854.256592	191.900000
854.290283	186.500000
854.323914	192.600000
854.357483	190.500000
854.391174	191.000000
854.424744	198.200000
854.458374	189.300000
854.492065	200.800000
854.525696	187.100000
854.559265	195.900000
854.592896	199.500000
854.626465	188.800000
854.660095	189.400000
854.693787	191.700000
854.727356	187.500000
854.760986	191.600000
854.794617	190.300000
854.828186	186.900000
854.861816	193.100000
854.895447	190.900000
854.929016	190.700000
854.962585	191.100000
854.996155	197.700000
855.029785	191.400000
855.063416	192.200000
855.097046	192.700000
855.130615	184.300000
855.164185	195.000000
855.197754	189.200000
855.231384	191.600000
855.264954	188.600000
855.298523	193.500000
855.332153	191.200000
855.365723	196.600000
855.399292	185.000000
855.432922	187.100000
855.466492	191.000000
855.500061	183.700000
855.533630	185.800000
855.567200	191.800000
855.600769	193.600000
855.634338	193.300000
855.667969	190.600000
855.701477	185.300000
855.735046	185.800000
855.768616	179.300000
855.802185	190.900000
855.835754	203.900000
855.869324	181.900000
855.902893	187.000000
855.936401	195.700000
855.969971	188.600000
856.003540	182.800000
856.037109	193.200000
856.070618	188.300000
856.104187	182.000000
856.137695	185.700000
856.171265	178.900000
856.204834	189.600000
856.238403	193.800000
856.271912	186.000000
856.305481	190.700000
856.338989	181.900000
856.372559	192.800000
856.406128	190.500000
856.439636	193.500000
856.473145	186.800000
856.506653	195.400000
856.540222	189.900000
856.573792	195.600000
856.607300	194.500000
856.640808	185.000000
856.674377	189.400000
856.707825	218.400000
856.741394	193.800000
856.774902	186.300000
856.808472	181.600000
856.841980	192.100000
856.875488	197.400000
856.908936	181.900000
856.942505	187.000000
856.976013	187.500000
857.009521	184.800000
857.043030	189.700000
857.076477	186.800000
857.110046	193.700000
857.143555	189.600000
857.177063	195.000000
857.210571	187.200000
857.244080	183.200000
857.277527	192.100000
857.311035	188.000000
857.344543	191.900000
857.378052	188.500000
857.411499	193.900000
857.445068	197.200000
857.478516	188.300000
857.512024	183.200000
857.545532	186.200000
857.578979	191.300000
857.612427	189.100000
857.645874	186.700000
857.679382	189.800000
857.712891	193.400000
857.746399	188.700000
857.779846	195.000000
857.813354	194.200000
857.846741	188.100000
857.880249	185.900000
857.913757	191.300000
857.947266	191.100000
857.980652	192.600000
858.014160	187.200000
858.047546	188.700000
858.081055	187.800000
858.114563	198.400000
858.147949	183.300000
858.181458	192.400000
858.214844	187.200000
858.248352	180.800000
858.281799	194.300000
858.315308	203.000000
858.348694	192.400000
858.382141	197.200000
858.415588	191.800000
858.449036	194.600000
858.482483	191.400000
858.515930	185.500000
858.549377	189.600000
858.582825	196.700000
858.616211	191.000000
858.649658	191.500000
858.683105	184.000000
858.716553	187.400000
858.750000	183.200000
858.783386	186.200000
858.816833	181.500000
858.850281	189.000000
858.883728	191.900000
858.917114	187.700000
858.950562	197.200000
858.983948	196.600000
859.017395	193.800000
859.050781	186.600000
859.084167	184.600000
859.117615	182.400000
859.151062	193.000000
859.184448	185.000000
859.217834	186.100000
859.251282	185.800000
859.284668	184.800000
859.318054	177.900000
859.351440	186.500000
859.384888	196.600000
859.418274	180.900000
859.451721	179.700000
859.485046	192.100000
859.518494	189.000000
859.551819	186.600000
859.585266	191.900000
859.618652	191.900000
859.652039	182.300000
859.685425	185.400000
859.718811	182.700000
859.752197	178.000000
859.785583	196.300000
859.819031	195.600000
859.852356	191.700000
859.885742	187.000000
859.919067	188.800000
859.952454	187.700000
859.985901	195.700000
860.019287	186.500000
860.052612	0.000000
860.085999	0.000000
860.119324	0.000000
860.152710	0.000000
860.186096	0.000000
860.219421	0.000000
860.252808	0.000000
860.286133	0.000000
860.319519	0.000000
860.352905	0.000000
860.386292	0.000000
860.419617	0.000000
860.452942	0.000000
860.486267	0.000000
860.519653	0.000000
860.553040	0.000000
860.586365	0.000000
860.619690	0.000000
860.653076	0.000000
860.686340	0.000000
860.719727	0.000000
860.753113	0.000000
860.786377	0.000000
860.819763	0.000000
860.853027	0.000000
860.886414	0.000000
860.919739	0.000000
860.953125	0.000000
860.986389	0.000000
861.019714	0.000000
861.053040	0.000000
861.086365	0.000000
861.119690	0.000000
861.153076	0.000000
861.186340	0.000000
861.219666	0.000000
861.252930	0.000000
861.286316	0.000000
861.319641	0.000000
861.352905	0.000000
861.386230	0.000000
861.419495	0.000000
861.452820	0.000000
861.486145	0.000000
861.519470	0.000000
861.552734	0.000000
861.586060	0.000000
861.619324	0.000000
861.652649	0.000000
861.685974	0.000000
861.719238	0.000000
861.752563	0.000000
861.785828	0.000000
861.819092	0.000000
861.852417	0.000000
861.885742	0.000000
861.918945	0.000000
861.952271	0.000000
861.985535	0.000000
862.018799	0.000000
862.052124	0.000000
862.085449	0.000000
862.118652	0.000000
862.151978	0.000000
862.185181	0.000000
862.218506	0.000000
862.251770	0.000000
862.285034	0.000000
862.318298	0.000000
862.351562	0.000000
862.384827	0.000000
862.418091	0.000000
862.451355	0.000000
862.484619	0.000000
862.517883	0.000000
862.551086	0.000000
862.584351	0.000000
862.617676	0.000000
862.650940	0.000000
862.684143	0.000000
862.717407	0.000000
862.750610	0.000000
862.783875	0.000000
862.817139	0.000000
862.850342	0.000000
862.883606	0.000000
862.916870	0.000000
862.950073	0.000000
862.983337	0.000000
863.016602	0.000000
863.049805	0.000000
863.083069	0.000000
863.116211	0.000000
863.149475	0.000000
863.182739	0.000000
863.216003	0.000000
863.249146	0.000000
863.282410	0.000000
863.315613	0.000000
863.348816	0.000000
863.382080	0.000000
863.415222	0.000000
863.448486	0.000000
863.481689	0.000000
863.514893	0.000000
863.548157	0.000000
863.581360	0.000000
863.614502	0.000000
863.647766	0.000000
863.680908	0.000000
863.714172	0.000000
863.747375	0.000000
863.780579	0.000000
863.813721	0.000000
863.846985	0.000000
863.880127	0.000000
863.913330	0.000000
863.946533	0.000000
863.979675	0.000000
864.012939	0.000000
