Model Number: SPM-001-M   
Serial Number: 10090201
Firmware Version: 004.17.6
Exposure Time: 500000.000000us
Data Taken on: 03-03-2021 10:27:34.155
Wavelength	Amplitude
733.770752	0.000000
733.808716	0.000000
733.846619	0.000000
733.884583	0.000000
733.922546	0.000000
733.960449	0.000000
733.998413	0.000000
734.036377	0.000000
734.074219	0.000000
734.112183	0.000000
734.150085	0.000000
734.188049	0.000000
734.226013	0.000000
734.263916	0.000000
734.301819	0.000000
734.339783	0.000000
734.377686	0.000000
734.415588	0.000000
734.453552	0.000000
734.491455	0.000000
734.529419	0.000000
734.567322	0.000000
734.605225	0.000000
734.643127	0.000000
734.681091	0.000000
734.718994	0.000000
734.756897	0.000000
734.794800	0.000000
734.832703	0.000000
734.870667	0.000000
734.908508	0.000000
734.946472	0.000000
734.984375	0.000000
735.022278	0.000000
735.060181	0.000000
735.098083	0.000000
735.135986	0.000000
735.173889	0.000000
735.211792	0.000000
735.249695	0.000000
735.287598	0.000000
735.325439	0.000000
735.363403	0.000000
735.401306	0.000000
735.439148	0.000000
735.477051	0.000000
735.515015	0.000000
735.552856	0.000000
735.590759	0.000000
735.628662	0.000000
735.666504	0.000000
735.704407	0.000000
735.742310	0.000000
735.780212	0.000000
735.818115	0.000000
735.856018	0.000000
735.893860	0.000000
735.931763	0.000000
735.969604	0.000000
736.007507	0.000000
736.045410	0.000000
736.083252	0.000000
736.121094	0.000000
736.158997	0.000000
736.196838	0.000000
736.234741	0.000000
736.272644	0.000000
736.310486	0.000000
736.348389	0.000000
736.386230	0.000000
736.424072	0.000000
736.461975	0.000000
736.499878	0.000000
736.537720	0.000000
736.575562	0.000000
736.613403	0.000000
736.651306	0.000000
736.689148	0.000000
736.726990	0.000000
736.764893	0.000000
736.802734	0.000000
736.840576	0.000000
736.878418	0.000000
736.916321	0.000000
736.954102	0.000000
736.992004	0.000000
737.029846	0.000000
737.067688	0.000000
737.105530	0.000000
737.143372	0.000000
737.181213	0.000000
737.219116	0.000000
737.256897	0.000000
737.294739	0.000000
737.332642	0.000000
737.370422	0.000000
737.408325	0.000000
737.446167	0.000000
737.483948	0.000000
737.521790	0.000000
737.559692	0.000000
737.597473	0.000000
737.635315	0.000000
737.673157	0.000000
737.710999	0.000000
737.748840	0.000000
737.786621	0.000000
737.824463	0.000000
737.862305	0.000000
737.900085	0.000000
737.937927	0.000000
737.975769	0.000000
738.013550	0.000000
738.051392	0.000000
738.089233	0.000000
738.127014	0.000000
738.164856	0.000000
738.202698	0.000000
738.240479	0.000000
738.278320	0.000000
738.316162	0.000000
738.353943	0.000000
738.391785	0.000000
738.429565	0.000000
738.467407	0.000000
738.505188	0.000000
738.542969	0.000000
738.580811	0.000000
738.618652	0.000000
738.656372	0.000000
738.694214	0.000000
738.732056	0.000000
738.769836	0.000000
738.807617	0.000000
738.845459	0.000000
738.883240	0.000000
738.921021	0.000000
738.958862	0.000000
738.996582	0.000000
739.034424	0.000000
739.072205	0.000000
739.109985	0.000000
739.147827	0.000000
739.185547	0.000000
739.223389	0.000000
739.261169	0.000000
739.298889	0.000000
739.336731	0.000000
739.374512	0.000000
739.412292	0.000000
739.450073	0.000000
739.487854	0.000000
739.525635	0.000000
739.563416	0.000000
739.601135	0.000000
739.638977	0.000000
739.676758	0.000000
739.714478	0.000000
739.752258	0.000000
739.790100	0.000000
739.827820	0.000000
739.865601	0.000000
739.903381	0.000000
739.941101	0.000000
739.978882	190.200000
740.016724	186.500000
740.054443	192.200000
740.092224	183.900000
740.130005	182.600000
740.167725	183.500000
740.205505	182.900000
740.243225	194.200000
740.281006	188.400000
740.318787	179.600000
740.356506	192.300000
740.394287	191.900000
740.432068	184.100000
740.469727	180.500000
740.507507	191.200000
740.545288	187.700000
740.583008	189.700000
740.620789	189.400000
740.658569	179.200000
740.696228	187.700000
740.734009	194.000000
740.771790	176.600000
740.809509	191.200000
740.847229	183.700000
740.884949	183.900000
740.922729	180.800000
740.960449	186.800000
740.998169	183.300000
741.035950	182.900000
741.073669	189.100000
741.111389	188.300000
741.149170	197.100000
741.186890	197.700000
741.224609	192.900000
741.262329	189.700000
741.300110	198.100000
741.337769	183.300000
741.375549	181.400000
741.413208	187.200000
741.450989	184.200000
741.488708	184.800000
741.526367	185.400000
741.564148	190.100000
741.601868	193.300000
741.639526	187.100000
741.677307	187.600000
741.715027	187.800000
741.752686	182.500000
741.790466	194.300000
741.828186	189.300000
741.865845	183.000000
741.903564	179.900000
741.941345	186.500000
741.979004	182.800000
742.016724	190.800000
742.054382	186.500000
742.092102	193.300000
742.129822	179.900000
742.167480	186.700000
742.205200	185.600000
742.242920	188.400000
742.280640	190.100000
742.318359	184.000000
742.356079	183.600000
742.393738	192.000000
742.431396	186.600000
742.469116	192.000000
742.506775	178.200000
742.544495	191.000000
742.582214	191.400000
742.619873	187.000000
742.657593	195.900000
742.695251	193.000000
742.732971	186.600000
742.770630	190.400000
742.808289	186.700000
742.846008	188.400000
742.883728	190.300000
742.921326	188.400000
742.959045	185.300000
742.996765	188.800000
743.034424	186.900000
743.072083	185.400000
743.109802	186.000000
743.147400	182.800000
743.185120	189.000000
743.222839	187.500000
743.260437	192.100000
743.298157	188.900000
743.335754	179.500000
743.373474	186.700000
743.411133	180.000000
743.448792	188.400000
743.486450	186.300000
743.524170	180.100000
743.561768	186.900000
743.599487	194.200000
743.637146	199.000000
743.674744	185.800000
743.712463	183.700000
743.750122	186.500000
743.787720	189.600000
743.825439	183.100000
743.863037	185.600000
743.900696	186.000000
743.938416	212.400000
743.976013	185.300000
744.013672	196.300000
744.051331	191.300000
744.088928	195.700000
744.126587	193.400000
744.164307	187.800000
744.201904	183.700000
744.239563	191.400000
744.277222	190.000000
744.314819	186.800000
744.352478	193.600000
744.390137	190.000000
744.427734	189.300000
744.465393	187.200000
744.502991	183.300000
744.540649	190.900000
744.578308	187.600000
744.615906	182.800000
744.653564	177.100000
744.691223	192.800000
744.728821	179.500000
744.766418	188.600000
744.804077	190.000000
744.841675	184.800000
744.879333	180.200000
744.916992	187.700000
744.954529	184.900000
744.992187	193.000000
745.029785	184.700000
745.067444	185.600000
745.105042	189.000000
745.142639	190.700000
745.180298	197.700000
745.217896	186.100000
745.255493	184.600000
745.293152	191.600000
745.330750	191.200000
745.368347	194.600000
745.405945	190.400000
745.443604	188.000000
745.481140	190.900000
745.518799	187.700000
745.556396	191.400000
745.593994	190.100000
745.631592	187.200000
745.669189	181.700000
745.706787	186.700000
745.744385	184.200000
745.781982	189.600000
745.819580	183.400000
745.857178	186.000000
745.894775	188.300000
745.932373	189.500000
745.969971	188.700000
746.007568	178.900000
746.045166	195.500000
746.082764	192.700000
746.120300	190.800000
746.157898	191.500000
746.195557	185.800000
746.233093	182.300000
746.270691	190.100000
746.308228	188.900000
746.345825	191.700000
746.383423	191.300000
746.420959	184.000000
746.458557	186.100000
746.496155	185.200000
746.533691	187.900000
746.571289	182.500000
746.608887	188.500000
746.646423	189.100000
746.684021	189.200000
746.721619	185.700000
746.759155	191.100000
746.796753	181.700000
746.834351	182.300000
746.871826	184.100000
746.909424	195.000000
746.946960	190.100000
746.984558	187.400000
747.022156	184.800000
747.059631	195.200000
747.097229	190.800000
747.134827	186.700000
747.172363	195.200000
747.209900	191.900000
747.247498	182.600000
747.285034	195.300000
747.322571	194.000000
747.360168	184.700000
747.397644	179.800000
747.435242	191.500000
747.472778	194.000000
747.510315	185.300000
747.547913	186.000000
747.585388	194.200000
747.622925	186.800000
747.660522	179.400000
747.697998	184.100000
747.735596	187.600000
747.773132	183.900000
747.810669	186.700000
747.848206	190.700000
747.885742	182.900000
747.923279	181.600000
747.960815	189.500000
747.998352	187.000000
748.035889	191.300000
748.073425	191.200000
748.110901	185.500000
748.148437	183.500000
748.185974	187.600000
748.223511	197.300000
748.261047	189.000000
748.298584	189.200000
748.336060	187.500000
748.373596	192.200000
748.411133	206.800000
748.448608	183.900000
748.486145	191.100000
748.523682	195.500000
748.561218	194.000000
748.598755	190.700000
748.636292	191.400000
748.673706	186.400000
748.711243	193.600000
748.748718	190.800000
748.786255	188.800000
748.823792	189.200000
748.861267	182.600000
748.898804	190.000000
748.936340	189.900000
748.973816	185.700000
749.011292	194.100000
749.048828	190.000000
749.086304	190.400000
749.123840	199.900000
749.161316	182.200000
749.198792	197.400000
749.236328	193.600000
749.273743	187.700000
749.311279	186.600000
749.348816	190.600000
749.386230	188.400000
749.423767	175.700000
749.461304	189.300000
749.498718	188.100000
749.536255	194.600000
749.573730	198.400000
749.611206	193.100000
749.648682	186.100000
749.686218	187.800000
749.723633	189.800000
749.761169	186.200000
749.798645	183.300000
749.836060	186.400000
749.873596	184.600000
749.911011	188.600000
749.948547	195.000000
749.986023	188.000000
750.023437	187.100000
750.060913	182.100000
750.098450	182.300000
750.135864	187.100000
750.173340	188.100000
750.210815	194.300000
750.248291	182.800000
750.285767	188.300000
750.323242	194.600000
750.360657	191.300000
750.398132	183.500000
750.435608	191.400000
750.473022	184.200000
750.510498	183.900000
750.547974	182.300000
750.585449	186.800000
750.622925	177.400000
750.660339	198.000000
750.697815	187.700000
750.735291	187.300000
750.772644	188.100000
750.810120	189.600000
750.847595	189.700000
750.885010	183.700000
750.922485	195.600000
750.959961	186.800000
750.997375	195.000000
751.034851	192.200000
751.072266	192.400000
751.109680	179.900000
751.147156	193.400000
751.184570	189.800000
751.221985	189.000000
751.259460	180.200000
751.296875	187.000000
751.334290	187.000000
751.371765	191.700000
751.409180	190.600000
751.446594	193.500000
751.484070	189.100000
751.521423	189.200000
751.558899	189.000000
751.596375	195.400000
751.633728	194.600000
751.671204	201.100000
751.708618	182.200000
751.746033	189.300000
751.783447	182.300000
751.820801	184.200000
751.858276	189.400000
751.895691	188.700000
751.933105	186.500000
751.970520	183.200000
752.007935	186.800000
752.045349	192.100000
752.082764	188.200000
752.120178	186.000000
752.157532	184.800000
752.195007	185.600000
752.232422	190.300000
752.269775	192.400000
752.307190	190.700000
752.344543	185.100000
752.382019	188.200000
752.419434	186.300000
752.456787	189.500000
752.494202	192.900000
752.531616	189.700000
752.568970	193.200000
752.606384	188.900000
752.643799	191.600000
752.681152	195.600000
752.718567	192.800000
752.755981	179.900000
752.793335	192.700000
752.830750	179.500000
752.868164	194.900000
752.905518	183.700000
752.942932	192.700000
752.980225	183.100000
753.017639	191.800000
753.055054	186.700000
753.092407	189.400000
753.129822	193.800000
753.167175	198.100000
753.204529	187.900000
753.241943	184.200000
753.279358	182.300000
753.316650	190.800000
753.354065	190.300000
753.391479	193.200000
753.428772	195.400000
753.466187	191.700000
753.503479	182.900000
753.540894	186.600000
753.578308	182.900000
753.615601	183.700000
753.653015	188.300000
753.690369	185.300000
753.727722	183.900000
753.765076	180.600000
753.802490	182.900000
753.839783	178.000000
753.877136	185.500000
753.914551	201.500000
753.951843	183.800000
753.989258	191.300000
754.026611	189.600000
754.063904	191.100000
754.101257	184.300000
754.138611	179.600000
754.175964	188.500000
754.213318	199.000000
754.250610	181.600000
754.288025	185.100000
754.325378	183.600000
754.362671	192.900000
754.400024	187.200000
754.437378	197.500000
754.474670	198.700000
754.512085	185.000000
754.549438	190.300000
754.586731	184.500000
754.624084	187.200000
754.661438	183.100000
754.698730	196.700000
754.736084	185.600000
754.773376	187.200000
754.810730	190.400000
754.848083	187.600000
754.885315	191.700000
754.922668	180.900000
754.960022	182.200000
754.997314	191.800000
755.034668	188.400000
755.072021	188.100000
755.109253	184.000000
755.146606	194.000000
755.183960	186.000000
755.221252	195.500000
755.258545	190.700000
755.295898	191.900000
755.333191	193.500000
755.370544	190.100000
755.407776	186.300000
755.445129	187.200000
755.482422	193.100000
755.519714	183.500000
755.557068	178.900000
755.594360	179.700000
755.631653	191.900000
755.668945	195.800000
755.706299	189.600000
755.743530	197.600000
755.780884	194.800000
755.818176	191.800000
755.855408	192.400000
755.892761	188.900000
755.930054	190.200000
755.967346	189.800000
756.004639	193.500000
756.041870	189.200000
756.079224	193.900000
756.116516	185.200000
756.153748	193.000000
756.191040	196.100000
756.228394	191.900000
756.265625	183.800000
756.302917	190.000000
756.340210	185.000000
756.377441	196.200000
756.414795	195.300000
756.452087	188.800000
756.489319	182.300000
756.526611	193.000000
756.563843	190.300000
756.601135	200.100000
756.638428	196.800000
756.675659	188.800000
756.712952	193.900000
756.750244	193.500000
756.787476	190.800000
756.824768	197.600000
756.862061	186.400000
756.899292	236.300000
756.936584	194.100000
756.973816	200.500000
757.011047	201.600000
757.048340	190.200000
757.085632	190.700000
757.122864	205.600000
757.160156	188.800000
757.197327	191.700000
757.234619	193.500000
757.271912	189.000000
757.309082	194.200000
757.346375	187.100000
757.383667	196.400000
757.420837	191.800000
757.458130	192.700000
757.495422	190.800000
757.532593	193.500000
757.569885	185.900000
757.607117	188.600000
757.644348	192.000000
757.681580	204.500000
757.718811	179.700000
757.756042	191.900000
757.793335	188.800000
757.830505	195.200000
757.867798	188.500000
757.905029	188.400000
757.942200	194.200000
757.979492	189.100000
758.016724	190.700000
758.053894	190.100000
758.091187	210.700000
758.128418	193.000000
758.165588	191.100000
758.202820	204.800000
758.240112	191.000000
758.277283	202.900000
758.314514	196.100000
758.351685	192.100000
758.388916	203.100000
758.426147	201.400000
758.463379	203.400000
758.500610	197.200000
758.537842	193.700000
758.575012	202.400000
758.612244	189.900000
758.649475	207.400000
758.686646	188.000000
758.723877	201.500000
758.761108	200.900000
758.798279	193.800000
758.835510	198.000000
758.872742	202.700000
758.909851	197.000000
758.947083	198.500000
758.984253	196.400000
759.021484	201.500000
759.058716	197.500000
759.095886	200.100000
759.133057	194.600000
759.170288	199.100000
759.207458	193.400000
759.244690	206.500000
759.281860	206.100000
759.319031	196.100000
759.356262	196.200000
759.393433	196.100000
759.430603	196.600000
759.467773	196.700000
759.505005	203.700000
759.542175	203.000000
759.579346	196.800000
759.616516	199.500000
759.653687	202.300000
759.690918	195.000000
759.728027	200.500000
759.765259	199.600000
759.802429	203.900000
759.839539	202.000000
759.876770	205.300000
759.913940	209.300000
759.951111	202.300000
759.988281	200.700000
760.025452	198.400000
760.062561	195.300000
760.099792	210.400000
760.136963	205.600000
760.174072	200.500000
760.211243	194.100000
760.248413	198.900000
760.285583	197.700000
760.322754	213.200000
760.359863	207.200000
760.397034	210.000000
760.434204	199.900000
760.471375	204.500000
760.508545	200.100000
760.545715	201.300000
760.582825	196.900000
760.619995	208.000000
760.657166	195.900000
760.694275	208.700000
760.731445	202.800000
760.768555	205.700000
760.805664	205.500000
760.842834	204.100000
760.879944	207.200000
760.917114	204.800000
760.954285	202.300000
760.991394	198.100000
761.028564	209.100000
761.065674	206.300000
761.102783	200.400000
761.139954	208.500000
761.177124	208.300000
761.214172	210.800000
761.251343	204.700000
761.288452	204.900000
761.325562	209.300000
761.362732	201.900000
761.399841	205.400000
761.436951	207.200000
761.474121	201.600000
761.511169	206.400000
761.548340	210.500000
761.585449	208.100000
761.622559	211.000000
761.659668	207.600000
761.696838	214.400000
761.733887	206.900000
761.771057	206.000000
761.808167	206.200000
761.845276	212.300000
761.882385	220.400000
761.919434	209.300000
761.956604	226.800000
761.993713	205.200000
762.030762	214.600000
762.067871	209.700000
762.105042	207.100000
762.142090	217.500000
762.179199	210.400000
762.216309	215.200000
762.253418	225.000000
762.290527	221.800000
762.327637	216.300000
762.364685	205.600000
762.401794	215.900000
762.438904	214.900000
762.475952	208.600000
762.513062	207.000000
762.550110	210.100000
762.587219	223.700000
762.624329	221.300000
762.661377	215.600000
762.698486	216.400000
762.735596	214.200000
762.772644	207.900000
762.809753	205.900000
762.846863	214.000000
762.883911	218.500000
762.921021	217.800000
762.958069	214.000000
762.995117	223.400000
763.032227	222.600000
763.069336	215.500000
763.106323	210.100000
763.143433	210.600000
763.180481	218.500000
763.217590	218.800000
763.254639	214.000000
763.291687	216.100000
763.328735	224.400000
763.365845	217.500000
763.402893	215.300000
763.439941	218.900000
763.477051	221.700000
763.514038	222.200000
763.551147	216.700000
763.588196	220.100000
763.625244	219.000000
763.662292	226.900000
763.699402	230.500000
763.736389	225.500000
763.773499	233.500000
763.810486	227.700000
763.847534	221.800000
763.884644	226.000000
763.921631	220.900000
763.958679	236.000000
763.995728	224.400000
764.032776	234.000000
764.069824	220.500000
764.106873	229.800000
764.143860	233.000000
764.180969	225.300000
764.218018	232.500000
764.255005	223.500000
764.292053	225.900000
764.329102	236.600000
764.366089	234.800000
764.403137	233.000000
764.440125	225.000000
764.477173	228.400000
764.514221	232.600000
764.551208	231.100000
764.588257	227.100000
764.625305	235.400000
764.662292	238.800000
764.699341	241.800000
764.736389	233.300000
764.773376	249.400000
764.810425	236.500000
764.847473	243.700000
764.884399	239.100000
764.921448	246.200000
764.958435	244.900000
764.995483	238.000000
765.032532	252.100000
765.069458	238.000000
765.106506	238.100000
765.143555	236.200000
765.180481	240.600000
765.217529	246.800000
765.254578	233.300000
765.291504	244.100000
765.328552	240.400000
765.365540	239.000000
765.402527	255.300000
765.439575	239.300000
765.476501	238.100000
765.513550	237.700000
765.550537	243.300000
765.587463	250.300000
765.624512	241.400000
765.661499	234.600000
765.698486	251.200000
765.735474	240.300000
765.772461	245.600000
765.809448	253.100000
765.846436	250.500000
765.883423	253.300000
765.920410	250.100000
765.957397	245.200000
765.994385	251.600000
766.031311	257.700000
766.068359	252.500000
766.105286	251.000000
766.142273	258.200000
766.179260	252.500000
766.216187	247.500000
766.253174	243.000000
766.290161	253.300000
766.327148	253.400000
766.364136	256.300000
766.401123	269.700000
766.438049	250.800000
766.475037	262.800000
766.512024	258.800000
766.548950	273.300000
766.585937	264.600000
766.622864	261.100000
766.659790	260.900000
766.696777	251.300000
766.733704	264.700000
766.770691	255.100000
766.807678	269.800000
766.844604	264.200000
766.881531	262.400000
766.918518	267.600000
766.955444	269.800000
766.992432	261.500000
767.029358	264.800000
767.066284	271.000000
767.103271	265.100000
767.140198	294.600000
767.177124	281.500000
767.214050	269.800000
767.251038	273.200000
767.287964	268.200000
767.324890	266.100000
767.361816	272.000000
767.398743	276.400000
767.435730	268.700000
767.472595	274.000000
767.509583	279.500000
767.546509	266.200000
767.583374	275.500000
767.620361	266.500000
767.657288	274.400000
767.694214	274.200000
767.731140	272.700000
767.768066	275.200000
767.804993	278.700000
767.841919	269.600000
767.878845	276.200000
767.915710	282.500000
767.952698	277.100000
767.989563	278.800000
768.026489	281.600000
768.063416	272.500000
768.100281	273.500000
768.137207	285.500000
768.174133	281.900000
768.211060	281.600000
768.247986	281.000000
768.284912	278.800000
768.321777	281.800000
768.358704	278.500000
768.395630	278.900000
768.432495	277.000000
768.469421	282.100000
768.506348	286.800000
768.543152	292.700000
768.580078	287.800000
768.616943	288.900000
768.653870	293.100000
768.690796	290.700000
768.727661	290.600000
768.764587	288.700000
768.801453	285.100000
768.838318	296.200000
768.875244	291.200000
768.912109	298.200000
768.948975	290.300000
768.985901	291.500000
769.022766	291.100000
769.059631	295.700000
769.096558	289.700000
769.133362	290.300000
769.170288	293.100000
769.207214	292.500000
769.244019	299.500000
769.280945	296.200000
769.317810	304.300000
769.354675	298.400000
769.391541	308.700000
769.428406	305.000000
769.465271	315.600000
769.502136	300.800000
769.539062	307.400000
769.575867	306.100000
769.612732	307.700000
769.649597	311.300000
769.686462	315.800000
769.723328	307.600000
769.760193	306.800000
769.797058	308.200000
769.833923	318.800000
769.870728	314.400000
769.907593	317.000000
769.944519	314.000000
769.981323	318.900000
770.018188	319.900000
770.055054	318.600000
770.091858	316.900000
770.128723	328.400000
770.165588	335.500000
770.202393	321.800000
770.239258	331.400000
770.276062	326.300000
770.312927	326.700000
770.349792	334.400000
770.386597	331.300000
770.423462	339.000000
770.460327	344.400000
770.497131	332.100000
770.533997	326.600000
770.570862	340.200000
770.607605	343.600000
770.644470	340.400000
770.681335	341.300000
770.718140	344.700000
770.754944	336.500000
770.791809	337.500000
770.828613	339.000000
770.865479	341.600000
770.902222	351.600000
770.939087	344.600000
770.975952	336.200000
771.012695	340.300000
771.049561	358.200000
771.086365	344.400000
771.123169	343.500000
771.159973	347.000000
771.196838	347.900000
771.233582	350.800000
771.270447	351.200000
771.307251	356.700000
771.344055	351.800000
771.380859	354.800000
771.417664	353.000000
771.454468	360.600000
771.491272	358.800000
771.528076	358.500000
771.564880	357.700000
771.601685	365.100000
771.638428	357.500000
771.675293	363.900000
771.712097	357.100000
771.748840	369.000000
771.785645	361.600000
771.822449	364.800000
771.859253	368.900000
771.896057	363.300000
771.932861	379.000000
771.969604	367.600000
772.006409	360.100000
772.043213	374.000000
772.079956	370.900000
772.116760	365.300000
772.153503	368.400000
772.190308	379.400000
772.227112	369.600000
772.263855	367.600000
772.300659	370.100000
772.337463	380.300000
772.374207	369.000000
772.411011	365.400000
772.447754	369.300000
772.484497	385.500000
772.521301	376.400000
772.558105	375.300000
772.594849	376.600000
772.631592	382.400000
772.668396	380.000000
772.705139	388.700000
772.741882	381.000000
772.778625	393.900000
772.815430	395.700000
772.852173	387.400000
772.888916	395.400000
772.925720	398.600000
772.962463	403.000000
772.999207	399.100000
773.035950	403.300000
773.072754	401.900000
773.109436	396.700000
773.146240	399.800000
773.182922	397.200000
773.219727	406.700000
773.256470	402.700000
773.293152	389.600000
773.329956	399.200000
773.366699	406.400000
773.403381	393.800000
773.440186	403.000000
773.476929	403.900000
773.513611	396.600000
773.550354	397.200000
773.587158	398.900000
773.623840	393.900000
773.660583	405.300000
773.697327	417.800000
773.734009	407.200000
773.770813	407.100000
773.807495	401.700000
773.844238	403.800000
773.880981	421.100000
773.917664	415.700000
773.954407	420.600000
773.991150	410.500000
774.027832	417.500000
774.064575	410.000000
774.101318	417.500000
774.138000	422.900000
774.174744	417.000000
774.211487	418.100000
774.248108	407.100000
774.284851	406.500000
774.321594	415.800000
774.358276	416.800000
774.395020	427.200000
774.431702	422.600000
774.468384	416.900000
774.505127	412.900000
774.541809	425.100000
774.578491	430.100000
774.615234	432.200000
774.651917	423.500000
774.688599	428.100000
774.725342	438.600000
774.762024	435.600000
774.798706	440.100000
774.835449	439.600000
774.872070	448.400000
774.908813	443.800000
774.945496	442.400000
774.982178	442.300000
775.018860	449.200000
775.055542	447.200000
775.092224	452.400000
775.128967	457.200000
775.165588	453.500000
775.202271	445.000000
775.239014	456.400000
775.275635	457.600000
775.312317	452.500000
775.349060	459.100000
775.385681	460.100000
775.422363	450.600000
775.459045	461.300000
775.495667	461.100000
775.532410	468.100000
775.569092	466.600000
775.605713	468.900000
775.642395	465.100000
775.679016	468.100000
775.715698	468.400000
775.752380	473.200000
775.789001	470.800000
775.825684	473.500000
775.862366	473.700000
775.898987	488.600000
775.935669	478.200000
775.972351	496.500000
776.008972	493.400000
776.045654	492.500000
776.082336	487.000000
776.118958	489.300000
776.155640	492.200000
776.192322	498.200000
776.228882	501.200000
776.265564	499.800000
776.302185	498.700000
776.338867	505.100000
776.375488	490.500000
776.412109	503.200000
776.448792	505.400000
776.485413	514.500000
776.522034	504.700000
776.558716	502.300000
776.595337	504.100000
776.631958	508.500000
776.668579	510.800000
776.705261	517.700000
776.741882	514.600000
776.778503	514.700000
776.815186	513.700000
776.851746	520.400000
776.888367	522.000000
776.924988	528.200000
776.961609	522.400000
776.998291	522.500000
777.034851	520.000000
777.071472	530.000000
777.108154	525.800000
777.144714	537.900000
777.181335	534.300000
777.218018	529.600000
777.254578	536.700000
777.291199	535.700000
777.327759	540.800000
777.364380	546.600000
777.401062	554.800000
777.437622	563.400000
777.474243	547.800000
777.510864	553.800000
777.547424	548.700000
777.584045	553.600000
777.620667	559.800000
777.657227	558.900000
777.693848	563.900000
777.730469	576.800000
777.767029	563.800000
777.803650	573.100000
777.840271	565.200000
777.876831	564.700000
777.913452	572.700000
777.950012	554.700000
777.986633	558.100000
778.023193	559.100000
778.059753	556.700000
778.096375	557.600000
778.132996	566.600000
778.169556	559.000000
778.206116	561.700000
778.242737	557.900000
778.279297	565.200000
778.315857	560.300000
778.352478	570.100000
778.389038	571.900000
778.425598	572.700000
778.462219	582.500000
778.498718	580.200000
778.535339	588.000000
778.571838	588.600000
778.608459	591.300000
778.645020	583.400000
778.681580	590.600000
778.718140	592.700000
778.754761	585.500000
778.791260	594.400000
778.827881	605.000000
778.864441	599.600000
778.900940	606.200000
778.937561	605.000000
778.974121	603.000000
779.010620	592.400000
779.047241	600.500000
779.083801	606.600000
779.120300	605.600000
779.156860	608.000000
779.193359	606.200000
779.229980	602.600000
779.266541	606.100000
779.303040	610.600000
779.339600	603.500000
779.376160	592.900000
779.412659	598.100000
779.449219	590.900000
779.485779	601.300000
779.522278	599.400000
779.558838	603.600000
779.595398	606.500000
779.631897	607.300000
779.668457	601.500000
779.705017	611.300000
779.741516	603.200000
779.778076	595.600000
779.814575	602.000000
779.851074	608.500000
779.887634	605.900000
779.924133	609.800000
779.960693	595.900000
779.997253	607.700000
780.033691	613.900000
780.070251	613.300000
780.106812	624.300000
780.143250	625.400000
780.179810	619.300000
780.216370	619.900000
780.252808	627.600000
780.289368	635.000000
780.325867	633.800000
780.362366	629.500000
780.398865	642.600000
780.435364	634.600000
780.471863	647.200000
780.508423	641.600000
780.544861	639.800000
780.581421	643.200000
780.617920	634.700000
780.654419	627.400000
780.690918	640.500000
780.727417	644.800000
780.763916	641.900000
780.800415	653.400000
780.836914	639.600000
780.873352	649.200000
780.909912	643.300000
780.946411	647.000000
780.982849	655.700000
781.019348	668.200000
781.055786	663.900000
781.092346	657.800000
781.128845	665.700000
781.165283	672.400000
781.201782	682.000000
781.238281	682.200000
781.274719	682.700000
781.311218	678.500000
781.347717	691.200000
781.384155	675.700000
781.420654	685.000000
781.457092	698.600000
781.493591	695.400000
781.530090	690.200000
781.566528	689.900000
781.602966	689.700000
781.639465	684.700000
781.675903	676.400000
781.712402	688.900000
781.748901	690.500000
781.785278	685.200000
781.821777	694.300000
781.858276	696.700000
781.894714	711.200000
781.931152	702.300000
781.967651	711.000000
782.004089	707.500000
782.040527	715.000000
782.076965	712.800000
782.113403	710.400000
782.149902	714.500000
782.186340	711.400000
782.222778	728.000000
782.259277	717.600000
782.295654	716.900000
782.332092	727.800000
782.368591	723.800000
782.404968	719.400000
782.441467	730.200000
782.477905	733.900000
782.514282	722.300000
782.550781	745.400000
782.587219	741.300000
782.623596	745.900000
782.660095	748.600000
782.696472	756.900000
782.732910	755.700000
782.769348	761.600000
782.805786	776.900000
782.842224	776.100000
782.878662	772.900000
782.915039	772.000000
782.951477	773.900000
782.987915	769.700000
783.024292	777.800000
783.060730	780.900000
783.097168	774.200000
783.133545	767.000000
783.169983	761.900000
783.206421	758.400000
783.242798	760.700000
783.279236	751.200000
783.315613	745.900000
783.352051	746.400000
783.388489	737.500000
783.424866	730.400000
783.461304	734.000000
783.497681	742.700000
783.534058	744.800000
783.570496	738.700000
783.606934	734.100000
783.643250	739.100000
783.679687	746.800000
783.716125	744.700000
783.752441	757.900000
783.788879	776.100000
783.825317	781.800000
783.861633	785.200000
783.898071	791.100000
783.934448	805.100000
783.970825	815.500000
784.007263	819.500000
784.043579	820.300000
784.080017	828.300000
784.116394	821.700000
784.152710	825.000000
784.189148	830.700000
784.225525	832.200000
784.261902	822.900000
784.298279	814.800000
784.334656	814.600000
784.371033	801.300000
784.407410	803.900000
784.443787	786.900000
784.480164	777.900000
784.516541	753.300000
784.552856	758.900000
784.589233	745.500000
784.625610	739.500000
784.661987	763.300000
784.698364	745.300000
784.734741	729.000000
784.771057	713.900000
784.807434	698.500000
784.843811	688.700000
784.880127	657.900000
784.916504	662.300000
784.952881	636.800000
784.989197	608.400000
785.025574	589.000000
785.061951	579.700000
785.098267	589.500000
785.134644	574.300000
785.170959	578.000000
785.207275	591.800000
785.243652	607.700000
785.279968	607.800000
785.316345	632.400000
785.352722	650.800000
785.388977	664.100000
785.425354	668.100000
785.461731	675.400000
785.498047	690.200000
785.534363	699.900000
785.570679	710.500000
785.606995	732.300000
785.643372	745.600000
785.679687	747.400000
785.716003	744.400000
785.752380	745.600000
785.788635	756.000000
785.825012	775.000000
785.861328	790.500000
785.897644	780.300000
785.933960	797.200000
785.970337	800.500000
786.006592	815.000000
786.042908	826.300000
786.079285	829.900000
786.115540	840.200000
786.151855	840.400000
786.188171	837.600000
786.224487	835.900000
786.260803	832.600000
786.297119	842.600000
786.333435	836.000000
786.369751	825.200000
786.406006	826.700000
786.442322	812.200000
786.478638	809.300000
786.514954	818.200000
786.551270	815.000000
786.587585	825.800000
786.623840	816.300000
786.660156	812.400000
786.696472	800.000000
786.732727	791.000000
786.769043	794.400000
786.805298	784.300000
786.841614	793.500000
786.877930	799.200000
786.914124	784.900000
786.950439	807.700000
786.986755	816.300000
787.023010	832.500000
787.059326	841.800000
787.095642	846.800000
787.131836	862.100000
787.168152	848.800000
787.204468	855.100000
787.240723	870.300000
787.276978	880.500000
787.313293	885.100000
787.349548	873.000000
787.385803	877.400000
787.422058	865.300000
787.458313	857.200000
787.494629	858.000000
787.530823	861.300000
787.567139	854.100000
787.603455	840.900000
787.639648	826.100000
787.675903	825.200000
787.712219	823.900000
787.748413	821.200000
787.784729	839.400000
787.820984	830.500000
787.857178	822.900000
787.893494	820.900000
787.929749	818.600000
787.965942	827.500000
788.002258	839.800000
788.038452	855.600000
788.074707	846.100000
788.110962	857.600000
788.147217	857.200000
788.183472	876.500000
788.219727	892.300000
788.255920	909.200000
788.292175	913.100000
788.328430	912.300000
788.364624	895.000000
788.400879	888.700000
788.437134	892.100000
788.473328	893.800000
788.509583	890.700000
788.545837	889.100000
788.582031	885.200000
788.618286	878.100000
788.654480	874.500000
788.690735	884.300000
788.726990	907.000000
788.763184	900.100000
788.799377	908.700000
788.835632	898.000000
788.871826	913.400000
788.908081	909.900000
788.944336	902.900000
788.980469	921.600000
789.016724	913.400000
789.052979	917.600000
789.089111	904.000000
789.125366	916.800000
789.161621	894.300000
789.197754	915.300000
789.234009	916.800000
789.270142	912.200000
789.306396	910.100000
789.342590	902.500000
789.378784	874.800000
789.414978	870.600000
789.451233	888.000000
789.487366	890.700000
789.523621	898.100000
789.559814	890.300000
789.595947	881.100000
789.632202	885.300000
789.668335	895.300000
789.704529	914.400000
789.740784	933.300000
789.776917	933.400000
789.813110	929.500000
789.849304	944.900000
789.885498	945.300000
789.921692	956.200000
789.957886	965.100000
789.994019	974.300000
790.030212	968.600000
790.066406	970.500000
790.102539	969.100000
790.138733	974.100000
790.174927	966.400000
790.211060	974.700000
790.247253	961.700000
790.283386	953.000000
790.319580	939.900000
790.355774	922.900000
790.391907	931.100000
790.428101	942.100000
790.464294	942.900000
790.500427	940.000000
790.536621	926.700000
790.572754	905.400000
790.608887	907.900000
790.645081	918.400000
790.681274	937.300000
790.717346	947.700000
790.753540	929.000000
790.789734	907.400000
790.825867	893.300000
790.862000	894.700000
790.898132	904.000000
790.934265	900.100000
790.970459	909.300000
791.006592	908.400000
791.042725	907.800000
791.078918	891.700000
791.114990	887.000000
791.151184	888.600000
791.187317	910.600000
791.223389	906.200000
791.259583	888.300000
791.295715	895.500000
791.331848	893.300000
791.367981	901.400000
791.404114	905.800000
791.440247	911.600000
791.476379	919.800000
791.512451	902.300000
791.548584	896.800000
791.584778	884.300000
791.620850	907.000000
791.656982	916.200000
791.693115	914.200000
791.729187	910.400000
791.765381	910.300000
791.801514	904.800000
791.837585	906.100000
791.873718	918.500000
791.909851	930.000000
791.945923	934.300000
791.982056	904.300000
792.018188	901.600000
792.054260	910.400000
792.090393	908.600000
792.126465	900.900000
792.162598	912.300000
792.198669	894.000000
792.234741	889.200000
792.270874	881.400000
792.307007	869.200000
792.343079	872.300000
792.379150	889.300000
792.415283	871.500000
792.451355	873.400000
792.487488	848.400000
792.523560	838.400000
792.559631	829.700000
792.595764	791.700000
792.631836	759.400000
792.667908	740.100000
792.703979	719.200000
792.740051	726.600000
792.776184	754.600000
792.812256	764.100000
792.848328	772.600000
792.884399	781.400000
792.920471	785.100000
792.956543	782.500000
792.992615	781.800000
793.028748	774.600000
793.064758	777.200000
793.100830	794.100000
793.136963	812.700000
793.172974	809.300000
793.209045	799.000000
793.245178	813.600000
793.281189	795.900000
793.317261	799.600000
793.353271	797.400000
793.389404	809.200000
793.425476	808.300000
793.461487	796.200000
793.497559	791.400000
793.533630	788.900000
793.569641	785.000000
793.605713	786.100000
793.641785	793.500000
793.677795	803.000000
793.713867	796.100000
793.749878	797.800000
793.785950	814.100000
793.822021	817.600000
793.858032	800.300000
793.894104	815.700000
793.930176	804.500000
793.966187	808.600000
794.002258	797.200000
794.038269	796.700000
794.074280	801.200000
794.110352	826.200000
794.146423	808.000000
794.182373	805.600000
794.218445	800.300000
794.254517	792.300000
794.290466	779.700000
794.326538	788.400000
794.362549	793.000000
794.398560	795.100000
794.434631	801.000000
794.470581	780.900000
794.506653	777.900000
794.542664	781.400000
794.578674	786.000000
794.614685	785.800000
794.650757	784.700000
794.686707	788.000000
794.722778	772.400000
794.758789	780.500000
794.794739	789.700000
794.830811	810.100000
794.866821	831.000000
794.902771	828.000000
794.938843	816.100000
794.974792	819.900000
795.010803	819.500000
795.046814	823.200000
795.082825	815.200000
795.118835	828.900000
795.154846	807.900000
795.190796	814.400000
795.226807	790.400000
795.262817	799.300000
795.298767	799.200000
795.334778	802.800000
795.370850	796.700000
795.406799	801.500000
795.442810	785.300000
795.478821	788.400000
795.514709	785.200000
795.550720	807.000000
795.586670	785.600000
795.622681	796.200000
795.658691	796.400000
795.694641	795.800000
795.730652	783.400000
795.766663	796.200000
795.802551	796.600000
795.838562	806.700000
795.874573	794.300000
795.910522	794.900000
795.946472	782.600000
795.982483	789.600000
796.018433	786.000000
796.054382	800.400000
796.090393	789.700000
796.126282	785.100000
796.162292	775.700000
796.198242	773.000000
796.234192	770.700000
796.270203	768.600000
796.306091	766.400000
796.342041	785.600000
796.378052	776.100000
796.413940	770.100000
796.449951	776.800000
796.485901	773.700000
796.521790	774.600000
796.557800	790.900000
796.593689	792.200000
796.629639	788.900000
796.665649	785.100000
796.701599	777.800000
796.737488	772.800000
796.773437	778.900000
796.809387	777.900000
796.845337	785.600000
796.881287	781.700000
796.917175	764.100000
796.953125	759.100000
796.989075	766.600000
797.024963	774.400000
797.060913	772.400000
797.096863	771.900000
797.132751	768.100000
797.168701	752.500000
797.204590	754.800000
797.240540	761.700000
797.276489	768.300000
797.312439	779.500000
797.348328	774.100000
797.384277	762.500000
797.420166	747.700000
797.456055	751.900000
797.492004	746.200000
797.527893	753.700000
797.563843	758.500000
797.599731	751.600000
797.635620	739.000000
797.671570	748.300000
797.707520	747.500000
797.743347	750.000000
797.779297	760.100000
797.815125	757.500000
797.851074	745.800000
797.887024	737.600000
797.922913	727.300000
797.958801	736.700000
797.994690	727.000000
798.030579	738.800000
798.066467	746.500000
798.102356	736.200000
798.138245	727.700000
798.174133	721.400000
798.210083	727.800000
798.245911	733.100000
798.281799	738.900000
798.317749	733.000000
798.353577	724.800000
798.389465	720.900000
798.425293	716.900000
798.461243	717.600000
798.497131	726.900000
798.532959	725.300000
798.568848	733.700000
798.604736	724.100000
798.640564	707.100000
798.676453	708.700000
798.712402	718.500000
798.748230	722.500000
798.784119	717.300000
798.820007	718.800000
798.855835	711.400000
798.891724	705.200000
798.927551	699.600000
798.963379	710.600000
798.999268	704.900000
799.035095	701.300000
799.070984	697.200000
799.106873	685.700000
799.142700	688.500000
799.178528	681.700000
799.214417	681.300000
799.250244	697.000000
799.286133	688.700000
799.321960	687.700000
799.357788	684.000000
799.393677	678.600000
799.429504	684.200000
799.465332	684.400000
799.501221	692.100000
799.537048	690.200000
799.572876	680.400000
799.608704	679.400000
799.644531	686.000000
799.680359	684.100000
799.716248	694.400000
799.752014	702.300000
799.787903	692.500000
799.823730	690.100000
799.859558	680.400000
799.895386	684.500000
799.931213	684.500000
799.967041	680.200000
800.002869	681.600000
800.038696	691.700000
800.074463	678.000000
800.110352	675.900000
800.146179	665.100000
800.181946	676.100000
800.217773	678.200000
800.253540	678.700000
800.289429	672.300000
800.325256	665.500000
800.361023	659.400000
800.396851	664.700000
800.432678	665.900000
800.468445	666.100000
800.504272	665.200000
800.540100	652.600000
800.575867	656.200000
800.611694	658.800000
800.647461	654.000000
800.683289	656.900000
800.719116	667.200000
800.754883	658.100000
800.790649	643.200000
800.826477	639.800000
800.862244	659.100000
800.898071	645.000000
800.933838	641.800000
800.969604	643.400000
801.005432	643.900000
801.041199	648.200000
801.076965	638.000000
801.112793	630.300000
801.148560	624.600000
801.184326	626.000000
801.220154	626.800000
801.255859	618.500000
801.291687	623.500000
801.327454	618.300000
801.363281	613.700000
801.398987	617.700000
801.434814	614.900000
801.470520	624.700000
801.506287	613.000000
801.542114	606.800000
801.577820	604.800000
801.613647	608.600000
801.649414	599.600000
801.685120	608.700000
801.720886	616.100000
801.756714	604.300000
801.792419	595.000000
801.828186	590.200000
801.863892	597.900000
801.899719	591.600000
801.935486	591.200000
801.971252	600.400000
802.006958	597.500000
802.042725	584.600000
802.078430	588.200000
802.114197	588.400000
802.149963	603.200000
802.185669	591.300000
802.221436	589.800000
802.257202	588.200000
802.292908	579.500000
802.328674	588.900000
802.364441	589.200000
802.400146	591.700000
802.435913	588.900000
802.471558	582.600000
802.507324	582.600000
802.543091	575.500000
802.578796	588.300000
802.614502	589.600000
802.650269	593.600000
802.685974	577.500000
802.721741	583.200000
802.757446	589.000000
802.793152	582.000000
802.828918	594.000000
802.864624	589.200000
802.900330	591.600000
802.936035	587.900000
802.971802	580.300000
803.007446	579.100000
803.043213	568.300000
803.078857	583.000000
803.114624	565.800000
803.150330	574.900000
803.185974	565.900000
803.221741	566.900000
803.257446	576.700000
803.293152	580.400000
803.328857	571.300000
803.364563	571.200000
803.400208	564.100000
803.435974	574.400000
803.471680	561.200000
803.507324	557.600000
803.543030	566.700000
803.578735	570.800000
803.614441	562.900000
803.650146	573.100000
803.685791	557.600000
803.721497	560.000000
803.757202	548.900000
803.792847	558.700000
803.828552	551.900000
803.864258	552.100000
803.899902	549.700000
803.935608	534.900000
803.971313	538.900000
804.006958	539.900000
804.042664	537.100000
804.078308	541.600000
804.113953	537.700000
804.149658	543.400000
804.185364	528.700000
804.221008	541.600000
804.256714	532.000000
804.292297	529.400000
804.328003	531.700000
804.363708	527.800000
804.399292	526.800000
804.434998	527.900000
804.470703	520.000000
804.506287	529.100000
804.541992	526.400000
804.577637	521.100000
804.613281	510.800000
804.648926	508.200000
804.684570	512.600000
804.720215	506.900000
804.755920	508.900000
804.791565	502.200000
804.827209	510.600000
804.862854	505.400000
804.898437	499.500000
804.934143	500.100000
804.969788	499.600000
805.005371	499.200000
805.041077	499.400000
805.076721	498.700000
805.112305	490.300000
805.147949	494.800000
805.183655	489.600000
805.219238	492.600000
805.254883	493.400000
805.290466	498.900000
805.326111	492.900000
805.361755	485.800000
805.397400	486.800000
805.432983	488.400000
805.468628	487.000000
805.504211	490.800000
805.539856	489.400000
805.575500	494.500000
805.611084	481.500000
805.646729	470.000000
805.682373	474.900000
805.717957	487.000000
805.753601	487.400000
805.789246	470.600000
805.824768	481.100000
805.860413	482.800000
805.895996	470.100000
805.931641	472.000000
805.967224	478.900000
806.002869	475.200000
806.038452	484.800000
806.074036	482.400000
806.109619	467.100000
806.145264	465.800000
806.180847	465.700000
806.216431	464.600000
806.252014	469.200000
806.287659	470.500000
806.323181	477.700000
806.358826	474.500000
806.394409	456.300000
806.429993	461.200000
806.465576	476.300000
806.501160	463.500000
806.536743	450.800000
806.572327	464.100000
806.607910	459.200000
806.643494	460.600000
806.679077	452.900000
806.714661	457.100000
806.750244	455.200000
806.785828	451.600000
806.821350	452.900000
806.856934	459.000000
806.892517	452.400000
806.928101	444.800000
806.963684	447.200000
806.999268	460.800000
807.034790	439.100000
807.070374	448.300000
807.105896	440.200000
807.141479	437.700000
807.177063	444.200000
807.212585	435.900000
807.248169	438.700000
807.283752	443.900000
807.319275	437.100000
807.354858	437.300000
807.390381	433.000000
807.425903	431.900000
807.461487	427.800000
807.497070	421.900000
807.532593	426.200000
807.568115	424.900000
807.603699	422.100000
807.639221	418.300000
807.674744	422.300000
807.710266	426.300000
807.745850	427.900000
807.781372	422.000000
807.816895	417.500000
807.852417	423.300000
807.888000	419.100000
807.923523	416.500000
807.959045	418.200000
807.994629	408.200000
808.030090	409.200000
808.065613	417.300000
808.101135	418.200000
808.136658	415.400000
808.172241	413.000000
808.207764	411.500000
808.243225	407.700000
808.278809	402.400000
808.314270	412.900000
808.349792	396.100000
808.385315	398.400000
808.420837	403.700000
808.456360	408.600000
808.491882	409.600000
808.527344	406.300000
808.562866	415.600000
808.598389	407.600000
808.633850	401.200000
808.669434	400.200000
808.704895	405.800000
808.740417	412.500000
808.775940	402.600000
808.811462	399.400000
808.846924	391.500000
808.882385	392.000000
808.917847	391.700000
808.953369	393.300000
808.988892	386.500000
809.024353	398.000000
809.059875	397.300000
809.095398	390.900000
809.130798	382.900000
809.166321	382.500000
809.201843	383.600000
809.237305	386.500000
809.272766	393.800000
809.308228	377.300000
809.343750	381.300000
809.379211	382.700000
809.414734	382.000000
809.450134	390.000000
809.485657	374.400000
809.521118	380.400000
809.556580	376.700000
809.592102	376.200000
809.627502	373.400000
809.663025	372.700000
809.698486	369.200000
809.733887	365.800000
809.769409	372.100000
809.804871	361.900000
809.840271	367.100000
809.875793	368.000000
809.911194	374.900000
809.946655	365.100000
809.982178	362.100000
810.017639	363.400000
810.053040	362.400000
810.088501	357.600000
810.123901	358.700000
810.159424	356.000000
810.194885	356.000000
810.230286	358.900000
810.265747	354.600000
810.301208	351.000000
810.336609	355.100000
810.372070	345.500000
810.407532	349.400000
810.442932	350.900000
810.478394	353.800000
810.513794	350.400000
810.549255	349.100000
810.584717	345.800000
810.620117	340.100000
810.655518	348.300000
810.690979	347.500000
810.726379	344.500000
810.761841	333.300000
810.797302	334.100000
810.832642	332.500000
810.868103	347.300000
810.903564	335.600000
810.938904	343.800000
810.974365	331.100000
811.009827	335.700000
811.045166	329.700000
811.080627	323.100000
811.115967	328.400000
811.151428	337.100000
811.186829	329.200000
811.222229	331.000000
811.257629	324.700000
811.293091	329.900000
811.328430	336.600000
811.363892	330.400000
811.399292	330.500000
811.434631	325.800000
811.470093	332.200000
811.505493	320.900000
811.540833	323.900000
811.576294	328.400000
811.611694	322.700000
811.647034	319.100000
811.682434	320.800000
811.717773	322.900000
811.753235	327.000000
811.788635	319.800000
811.823975	319.900000
811.859375	327.600000
811.894775	314.300000
811.930115	316.800000
811.965515	315.900000
812.000916	320.700000
812.036255	311.500000
812.071655	320.000000
812.106995	313.200000
812.142395	313.400000
812.177795	321.400000
812.213196	318.900000
812.248474	318.400000
812.283875	310.100000
812.319214	311.600000
812.354614	314.000000
812.390015	307.100000
812.425293	310.300000
812.460693	310.300000
812.496094	307.800000
812.531433	301.300000
812.566772	305.100000
812.602173	306.700000
812.637451	307.900000
812.672852	302.200000
812.708191	306.800000
812.743530	300.400000
812.778931	294.400000
812.814270	297.000000
812.849609	303.400000
812.884949	298.000000
812.920227	291.400000
812.955627	309.400000
812.990967	301.000000
813.026306	295.700000
813.061646	286.200000
813.096985	282.800000
813.132324	279.600000
813.167664	285.600000
813.203003	290.000000
813.238281	277.600000
813.273682	277.600000
813.308960	276.800000
813.344299	279.300000
813.379639	289.000000
813.414978	280.000000
813.450256	280.200000
813.485596	283.700000
813.520874	275.400000
813.556213	279.700000
813.591614	285.200000
813.626831	275.100000
813.662170	281.500000
813.697510	288.900000
813.732788	273.400000
813.768127	277.700000
813.803467	279.200000
813.838745	271.800000
813.874084	277.400000
813.909363	274.800000
813.944641	278.200000
813.979980	265.800000
814.015320	274.800000
814.050598	267.900000
814.085876	273.400000
814.121155	269.900000
814.156494	268.600000
814.191772	269.000000
814.227051	264.400000
814.262390	267.800000
814.297668	267.400000
814.332947	266.700000
814.368225	261.500000
814.403564	265.400000
814.438782	260.500000
814.474121	263.900000
814.509338	260.600000
814.544617	270.000000
814.579956	260.000000
814.615173	269.900000
814.650513	267.200000
814.685791	258.100000
814.721008	262.100000
814.756348	260.900000
814.791626	258.900000
814.826843	258.700000
814.862122	258.400000
814.897400	256.000000
814.932678	258.300000
814.967957	257.300000
815.003235	257.200000
815.038452	251.000000
815.073730	249.800000
815.108948	260.600000
815.144226	258.900000
815.179504	260.300000
815.214722	246.400000
815.250000	245.500000
815.285278	253.700000
815.320496	248.100000
815.355774	251.300000
815.391052	254.100000
815.426270	248.400000
815.461487	250.200000
815.496765	242.500000
815.531982	240.000000
815.567261	246.900000
815.602539	254.300000
815.637695	249.300000
815.672974	251.100000
815.708191	250.200000
815.743408	252.700000
815.778687	243.700000
815.813904	258.200000
815.849121	237.900000
815.884399	240.300000
815.919556	239.900000
815.954834	241.200000
815.990051	244.400000
816.025269	247.900000
816.060486	239.600000
816.095703	239.300000
816.130920	242.600000
816.166199	241.100000
816.201416	242.200000
816.236572	246.400000
816.271851	237.400000
816.307007	245.300000
816.342224	232.000000
816.377441	237.800000
816.412659	229.000000
816.447876	240.600000
816.483093	236.300000
816.518250	237.400000
816.553467	233.800000
816.588745	239.200000
816.623901	231.500000
816.659119	225.200000
816.694275	229.400000
816.729492	227.800000
816.764709	264.400000
816.799927	224.200000
816.835083	230.900000
816.870300	222.800000
816.905457	228.000000
816.940674	231.200000
816.975830	224.400000
817.010986	220.900000
817.046204	225.300000
817.081421	221.000000
817.116577	221.300000
817.151733	229.800000
817.186951	230.100000
817.222107	226.400000
817.257324	229.200000
817.292419	226.500000
817.327637	218.000000
817.362854	223.300000
817.398010	218.400000
817.433167	219.700000
817.468323	221.300000
817.503479	221.200000
817.538635	229.100000
817.573853	222.200000
817.608948	221.800000
817.644165	216.600000
817.679321	216.200000
817.714478	215.600000
817.749634	221.200000
817.784790	229.500000
817.819946	225.600000
817.855103	208.000000
817.890198	217.900000
817.925415	208.800000
817.960571	220.200000
817.995667	216.000000
818.030823	219.000000
818.066040	212.100000
818.101135	217.400000
818.136292	215.600000
818.171448	210.600000
818.206543	214.500000
818.241699	219.700000
818.276855	214.900000
818.311951	213.000000
818.347107	208.800000
818.382263	214.300000
818.417358	221.200000
818.452515	220.800000
818.487610	220.700000
818.522766	210.800000
818.557922	221.000000
818.593018	215.500000
818.628113	213.400000
818.663269	207.900000
818.698364	212.600000
818.733521	208.400000
818.768677	214.000000
818.803711	205.500000
818.838867	207.000000
818.874023	208.000000
818.909058	206.200000
818.944214	204.800000
818.979370	211.700000
819.014404	209.100000
819.049561	205.400000
819.084595	211.000000
819.119751	202.300000
819.154846	209.900000
819.189941	207.500000
819.225037	201.900000
819.260193	198.600000
819.295227	199.900000
819.330322	197.200000
819.365479	194.500000
819.400513	230.200000
819.435608	195.100000
819.470764	192.900000
819.505798	196.500000
819.540894	198.900000
819.575989	196.000000
819.611084	207.000000
819.646179	207.900000
819.681213	203.500000
819.716309	199.900000
819.751404	198.600000
819.786438	203.800000
819.821533	196.300000
819.856628	199.600000
819.891663	203.800000
819.926758	210.900000
819.961853	206.900000
819.996887	196.900000
820.031982	203.300000
820.067017	197.200000
820.102112	226.400000
820.137207	196.600000
820.172302	212.500000
820.207275	194.200000
820.242371	194.200000
820.277405	193.800000
820.312500	195.800000
820.347534	199.800000
820.382568	203.100000
820.417664	194.500000
820.452759	196.700000
820.487732	193.300000
820.522827	195.600000
820.557861	192.400000
820.592896	194.000000
820.627930	195.000000
820.662964	191.800000
820.698059	196.900000
820.733093	193.300000
820.768127	199.300000
820.803162	195.900000
820.838196	193.000000
820.873230	194.600000
820.908264	194.800000
820.943298	193.100000
820.978333	201.200000
821.013367	194.400000
821.048401	199.100000
821.083435	200.200000
821.118469	187.000000
821.153503	198.300000
821.188477	198.400000
821.223511	187.500000
821.258484	195.500000
821.293579	193.700000
821.328613	188.500000
821.363647	192.100000
821.398621	189.200000
821.433655	191.000000
821.468628	207.900000
821.503662	192.100000
821.538696	197.400000
821.573669	187.200000
821.608704	196.900000
821.643677	190.300000
821.678650	198.700000
821.713684	202.600000
821.748718	192.000000
821.783691	191.800000
821.818726	193.700000
821.853638	194.800000
821.888672	192.300000
821.923706	192.300000
821.958618	190.700000
821.993652	190.000000
822.028687	198.900000
822.063599	200.000000
822.098633	194.300000
822.133667	188.300000
822.168579	191.700000
822.203613	194.900000
822.238586	189.400000
822.273560	195.300000
822.308533	189.200000
822.343567	189.900000
822.378479	191.700000
822.413452	190.600000
822.448425	187.800000
822.483398	196.700000
822.518372	197.300000
822.553345	190.200000
822.588318	199.700000
822.623291	189.900000
822.658203	190.800000
822.693237	191.200000
822.728210	187.500000
822.763123	194.800000
822.798096	186.300000
822.833069	193.800000
822.867981	191.500000
822.902954	194.400000
822.937927	194.700000
822.972900	203.400000
823.007874	184.000000
823.042725	196.500000
823.077698	203.600000
823.112671	189.300000
823.147583	190.100000
823.182556	195.400000
823.217529	195.800000
823.252441	191.300000
823.287415	204.500000
823.322388	195.600000
823.357239	190.800000
823.392212	199.000000
823.427185	194.600000
823.462097	189.100000
823.497009	194.600000
823.531982	191.100000
823.566895	192.500000
823.601807	188.000000
823.636719	189.700000
823.671631	195.100000
823.706604	191.000000
823.741455	194.200000
823.776428	186.000000
823.811340	196.000000
823.846252	197.700000
823.881165	198.900000
823.916138	192.600000
823.950989	201.100000
823.985901	189.200000
824.020813	192.000000
824.055725	190.500000
824.090637	184.700000
824.125610	195.800000
824.160461	193.400000
824.195374	193.300000
824.230225	196.400000
824.265198	185.100000
824.300110	188.400000
824.334961	202.300000
824.369873	182.500000
824.404785	195.600000
824.439636	196.900000
824.474548	184.400000
824.509460	181.300000
824.544312	198.000000
824.579224	193.500000
824.614075	196.600000
824.648987	190.000000
824.683899	191.200000
824.718811	187.900000
824.753662	197.900000
824.788574	195.300000
824.823364	192.900000
824.858276	188.100000
824.893188	196.400000
824.928040	197.300000
824.962952	195.000000
824.997803	193.600000
825.032654	194.400000
825.067566	193.300000
825.102417	188.800000
825.137268	190.000000
825.172119	191.200000
825.206970	186.600000
825.241882	189.000000
825.276733	188.500000
825.311646	189.000000
825.346436	183.500000
825.381348	186.900000
825.416138	190.700000
825.450989	185.900000
825.485901	180.200000
825.520691	182.700000
825.555542	184.700000
825.590454	188.900000
825.625244	182.100000
825.660095	196.000000
825.695007	193.300000
825.729797	188.800000
825.764648	185.400000
825.799438	187.800000
825.834290	189.500000
825.869202	182.400000
825.903992	190.700000
825.938843	185.100000
825.973694	183.600000
826.008484	201.400000
826.043335	184.500000
826.078186	180.200000
826.112976	196.100000
826.147827	193.800000
826.182678	196.400000
826.217468	181.400000
826.252319	193.500000
826.287109	182.600000
826.321899	195.600000
826.356750	185.300000
826.391541	184.200000
826.426392	193.300000
826.461182	187.200000
826.495972	182.100000
826.530823	178.400000
826.565613	188.800000
826.600403	183.600000
826.635254	190.200000
826.670044	180.900000
826.704834	178.700000
826.739685	183.400000
826.774475	188.600000
826.809265	187.300000
826.844055	185.100000
826.878906	194.800000
826.913635	187.500000
826.948425	190.200000
826.983215	186.700000
827.018005	191.800000
827.052856	184.700000
827.087585	190.200000
827.122375	179.400000
827.157227	187.600000
827.191956	199.500000
827.226746	183.500000
827.261536	191.100000
827.296265	180.300000
827.331116	185.500000
827.365906	190.700000
827.400635	183.900000
827.435425	178.800000
827.470215	193.400000
827.504944	185.200000
827.539734	190.300000
827.574463	186.800000
827.609253	192.800000
827.644043	186.700000
827.678772	192.500000
827.713562	184.100000
827.748352	186.800000
827.783081	183.200000
827.817871	187.600000
827.852600	181.700000
827.887329	186.800000
827.922119	177.000000
827.956848	190.900000
827.991638	200.300000
828.026367	188.500000
828.061157	186.800000
828.095886	187.300000
828.130615	200.900000
828.165344	179.000000
828.200073	187.200000
828.234863	184.600000
828.269592	186.700000
828.304321	191.100000
828.339111	185.800000
828.373779	182.800000
828.408569	191.600000
828.443298	191.700000
828.477966	184.100000
828.512756	188.100000
828.547424	181.000000
828.582214	185.200000
828.616943	184.500000
828.651672	185.800000
828.686340	189.300000
828.721130	182.700000
828.755798	185.000000
828.790527	187.500000
828.825256	188.000000
828.859924	188.600000
828.894714	192.300000
828.929443	193.300000
828.964111	183.200000
828.998840	189.800000
829.033569	183.800000
829.068237	185.300000
829.102966	183.700000
829.137634	188.500000
829.172363	187.600000
829.207092	188.200000
829.241821	182.800000
829.276489	179.200000
829.311157	187.800000
829.345825	185.800000
829.380554	192.500000
829.415283	182.800000
829.449951	180.000000
829.484619	195.600000
829.519348	195.200000
829.554016	185.900000
829.588745	187.700000
829.623413	181.200000
829.658081	198.800000
829.692749	181.100000
829.727417	192.300000
829.762146	188.100000
829.796814	182.500000
829.831482	184.700000
829.866150	188.600000
829.900879	183.400000
829.935486	191.100000
829.970154	184.200000
830.004883	196.600000
830.039490	187.900000
830.074219	184.500000
830.108887	187.600000
830.143494	186.800000
830.178223	181.300000
830.212891	185.100000
830.247498	185.900000
830.282166	194.200000
830.316772	192.800000
830.351501	184.900000
830.386169	186.700000
830.420776	184.600000
830.455444	185.900000
830.490112	184.000000
830.524719	177.900000
830.559387	188.500000
830.594055	188.400000
830.628662	185.800000
830.663330	185.900000
830.697998	194.300000
830.732605	186.800000
830.767273	188.800000
830.801941	185.100000
830.836487	194.800000
830.871155	187.400000
830.905762	189.300000
830.940430	180.200000
830.975098	182.800000
831.009644	186.900000
831.044312	194.600000
831.078979	189.200000
831.113525	178.700000
831.148193	187.300000
831.182861	184.800000
831.217407	189.400000
831.252075	202.700000
831.286621	183.400000
831.321289	181.800000
831.355896	186.100000
831.390564	193.000000
831.425110	187.500000
831.459778	193.000000
831.494324	200.500000
831.528931	191.000000
831.563599	191.600000
831.598145	179.500000
831.632751	187.200000
831.667419	186.700000
831.701965	189.200000
831.736572	188.800000
831.771179	181.200000
831.805786	183.000000
831.840393	192.700000
831.874939	178.600000
831.909546	191.900000
831.944153	177.900000
831.978760	185.700000
832.013306	181.000000
832.047913	192.700000
832.082458	195.200000
832.117065	183.200000
832.151672	195.200000
832.186218	187.900000
832.220825	190.500000
832.255432	178.500000
832.289978	182.700000
832.324585	189.600000
832.359192	190.300000
832.393677	185.400000
832.428284	186.200000
832.462830	185.700000
832.497437	184.600000
832.531982	189.700000
832.566589	184.600000
832.601135	187.500000
832.635681	178.500000
832.670227	186.200000
832.704773	194.100000
832.739380	187.800000
832.773926	188.000000
832.808472	182.600000
832.843079	187.800000
832.877563	189.300000
832.912170	184.000000
832.946716	179.400000
832.981201	192.100000
833.015808	187.900000
833.050293	185.900000
833.084839	183.400000
833.119446	185.000000
833.153992	189.400000
833.188477	186.500000
833.223022	182.800000
833.257568	187.800000
833.292114	192.100000
833.326660	198.600000
833.361145	184.100000
833.395691	180.700000
833.430237	184.900000
833.464783	190.200000
833.499329	183.500000
833.533875	181.900000
833.568359	188.600000
833.602905	193.700000
833.637390	190.400000
833.671875	184.500000
833.706421	184.200000
833.740906	183.900000
833.775452	177.000000
833.809998	183.400000
833.844482	192.800000
833.879028	186.800000
833.913513	184.000000
833.947998	189.900000
833.982544	183.200000
834.017090	184.300000
834.051514	175.700000
834.086060	189.300000
834.120544	186.000000
834.155029	189.600000
834.189575	184.500000
834.223999	188.400000
834.258545	186.500000
834.293030	186.600000
834.327515	186.000000
834.362000	183.300000
834.396545	189.200000
834.430969	185.900000
834.465454	191.600000
834.500000	178.000000
834.534424	188.900000
834.568970	178.200000
834.603455	178.700000
834.637878	182.800000
834.672363	186.600000
834.706909	187.800000
834.741333	187.900000
834.775818	179.300000
834.810242	183.600000
834.844727	187.700000
834.879211	184.900000
834.913635	187.800000
834.948181	188.000000
834.982666	187.000000
835.017090	185.800000
835.051575	188.000000
835.086060	183.100000
835.120483	189.400000
835.154907	189.700000
835.189331	185.400000
835.223816	189.800000
835.258301	180.500000
835.292786	182.400000
835.327209	189.800000
835.361694	183.300000
835.396057	182.600000
835.430542	189.600000
835.465027	187.000000
835.499390	183.400000
835.533875	207.500000
835.568359	183.700000
835.602722	179.500000
835.637207	189.000000
835.671692	181.000000
835.706055	203.900000
835.740540	187.900000
835.774902	191.200000
835.809387	186.800000
835.843811	181.400000
835.878235	194.400000
835.912659	181.700000
835.947083	183.700000
835.981506	187.200000
836.015930	178.300000
836.050354	191.200000
836.084778	195.300000
836.119202	191.000000
836.153625	199.500000
836.187988	182.600000
836.222473	183.900000
836.256897	186.100000
836.291260	185.900000
836.325684	187.700000
836.360046	184.300000
836.394470	184.200000
836.428894	193.300000
836.463318	184.000000
836.497681	190.600000
836.532104	192.600000
836.566467	186.000000
836.600891	186.800000
836.635315	191.800000
836.669678	189.900000
836.704102	191.400000
836.738525	187.000000
836.772888	177.900000
836.807251	183.400000
836.841675	188.500000
836.876038	180.800000
836.910461	185.900000
836.944763	190.700000
836.979187	183.500000
837.013611	191.300000
837.047974	180.000000
837.082336	197.500000
837.116699	191.000000
837.151062	186.100000
837.185486	181.700000
837.219849	185.400000
837.254211	190.100000
837.288574	185.800000
837.322937	183.100000
837.357300	175.400000
837.391663	200.200000
837.426086	191.200000
837.460388	188.700000
837.494751	191.300000
837.529114	186.100000
837.563477	193.500000
837.597839	189.000000
837.632141	185.400000
837.666565	184.800000
837.700928	188.800000
837.735229	189.700000
837.769592	189.000000
837.803955	192.200000
837.838257	184.800000
837.872620	183.200000
837.906982	194.200000
837.941284	186.200000
837.975647	187.600000
838.010010	193.300000
838.044312	184.800000
838.078674	185.100000
838.112976	186.700000
838.147339	189.600000
838.181702	185.800000
838.216003	197.100000
838.250366	188.100000
838.284668	190.900000
838.318970	180.200000
838.353333	186.800000
838.387634	186.200000
838.421936	186.900000
838.456299	187.700000
838.490601	194.000000
838.524902	190.300000
838.559265	192.800000
838.593567	189.500000
838.627869	180.800000
838.662170	189.700000
838.696472	179.800000
838.730774	183.400000
838.765137	190.100000
838.799377	172.500000
838.833740	188.200000
838.868042	194.400000
838.902283	180.100000
838.936646	194.000000
838.970947	188.300000
839.005188	193.500000
839.039551	179.900000
839.073792	193.400000
839.108093	184.500000
839.142395	196.700000
839.176697	179.700000
839.210937	189.700000
839.245300	196.800000
839.279541	181.100000
839.313843	183.900000
839.348145	190.700000
839.382385	190.800000
839.416687	192.200000
839.450989	190.800000
839.485229	185.900000
839.519531	182.400000
839.553833	192.700000
839.588013	186.200000
839.622314	188.700000
839.656555	190.500000
839.690857	187.300000
839.725159	182.200000
839.759460	185.400000
839.793640	184.100000
839.827942	187.100000
839.862183	181.900000
839.896423	188.400000
839.930725	197.000000
839.964966	194.300000
839.999207	194.500000
840.033508	194.400000
840.067688	183.900000
840.101990	195.500000
840.136230	186.200000
840.170471	194.600000
840.204712	184.300000
840.238953	183.300000
840.273193	189.500000
840.307434	191.500000
840.341736	182.900000
840.375916	180.200000
840.410217	185.800000
840.444397	192.400000
840.478638	190.000000
840.512878	193.400000
840.547119	189.800000
840.581360	189.700000
840.615601	197.400000
840.649780	197.000000
840.684021	188.300000
840.718262	195.000000
840.752441	192.800000
840.786682	187.700000
840.820862	188.800000
840.855103	195.600000
840.889343	187.400000
840.923584	191.000000
840.957764	190.300000
840.992004	188.900000
841.026184	201.200000
841.060425	184.500000
841.094666	185.600000
841.128845	190.700000
841.163025	188.800000
841.197266	189.500000
841.231445	187.500000
841.265686	188.700000
841.299866	182.000000
841.334045	194.500000
841.368286	186.900000
841.402405	194.900000
841.436646	192.300000
841.470825	184.100000
841.505005	186.400000
841.539185	183.100000
841.573425	183.700000
841.607544	186.500000
841.641785	187.100000
841.675964	182.200000
841.710144	186.600000
841.744324	185.200000
841.778503	186.100000
841.812683	182.400000
841.846863	197.400000
841.881042	194.400000
841.915222	184.100000
841.949402	202.900000
841.983521	178.200000
842.017700	185.800000
842.051880	188.300000
842.086060	191.100000
842.120239	187.500000
842.154419	184.800000
842.188538	188.300000
842.222717	184.000000
842.256897	196.500000
842.291016	187.000000
842.325195	189.700000
842.359375	198.600000
842.393494	194.200000
842.427673	188.400000
842.461853	190.300000
842.495911	195.400000
842.530090	188.100000
842.564209	187.200000
842.598389	189.000000
842.632568	188.900000
842.666626	192.300000
842.700806	184.400000
842.734985	185.700000
842.769043	190.700000
842.803223	185.400000
842.837402	186.400000
842.871460	185.200000
842.905640	197.100000
842.939697	184.200000
842.973877	190.700000
843.007996	193.600000
843.042175	196.500000
843.076233	184.000000
843.110413	189.800000
843.144470	196.000000
843.178589	192.400000
843.212769	184.400000
843.246826	191.000000
843.280945	184.800000
843.315125	187.200000
843.349182	184.500000
843.383301	195.000000
843.417419	199.700000
843.451538	186.700000
843.485657	186.100000
843.519714	187.100000
843.553833	189.100000
843.587952	186.100000
843.622070	183.300000
843.656128	191.900000
843.690247	186.300000
843.724304	187.100000
843.758423	190.800000
843.792542	186.700000
843.826599	186.900000
843.860718	186.200000
843.894836	182.000000
843.928894	188.800000
843.963013	190.300000
843.997070	184.500000
844.031128	182.000000
844.065247	192.400000
844.099304	193.300000
844.133362	188.300000
844.167480	192.200000
844.201599	194.200000
844.235596	190.000000
844.269714	190.000000
844.303711	189.700000
844.337830	180.600000
844.371948	192.000000
844.405945	186.600000
844.440063	183.500000
844.474121	200.100000
844.508118	186.900000
844.542236	186.700000
844.576294	187.100000
844.610352	183.200000
844.644409	186.200000
844.678406	179.500000
844.712524	192.400000
844.746582	195.500000
844.780640	188.300000
844.814636	186.900000
844.848755	199.600000
844.882751	185.700000
844.916809	192.300000
844.950867	190.100000
844.984863	196.600000
845.018921	186.700000
845.052979	184.400000
845.086975	189.200000
845.121033	181.800000
845.155090	184.500000
845.189087	195.200000
845.223145	185.000000
845.257141	187.900000
845.291199	190.800000
845.325256	195.700000
845.359253	190.200000
845.393250	198.300000
845.427307	187.600000
845.461304	189.900000
845.495361	189.000000
845.529358	197.500000
845.563354	186.900000
845.597412	184.000000
845.631409	196.700000
845.665405	195.600000
845.699463	194.200000
845.733459	186.800000
845.767456	195.600000
845.801453	186.300000
845.835449	195.100000
845.869446	192.900000
845.903503	194.600000
845.937439	184.200000
845.971497	196.100000
846.005493	182.700000
846.039429	193.500000
846.073486	198.400000
846.107483	187.100000
846.141418	188.200000
846.175476	189.500000
846.209473	193.500000
846.243408	185.000000
846.277405	189.500000
846.311401	184.200000
846.345337	188.200000
846.379395	193.600000
846.413330	186.300000
846.447327	198.100000
846.481323	182.900000
846.515259	185.600000
846.549255	187.500000
846.583252	190.000000
846.617187	182.400000
846.651184	190.100000
846.685120	187.000000
846.719055	196.700000
846.753052	192.500000
846.786987	192.400000
846.820984	183.200000
846.854980	195.000000
846.888916	184.300000
846.922852	190.800000
846.956848	196.400000
846.990723	182.800000
847.024719	189.700000
847.058716	186.800000
847.092590	195.300000
847.126587	188.900000
847.160522	187.600000
847.194458	193.600000
847.228455	184.000000
847.262390	183.300000
847.296265	186.400000
847.330261	194.600000
847.364136	187.100000
847.398132	185.900000
847.432068	189.700000
847.466003	186.100000
847.499939	189.100000
847.533875	190.200000
847.567749	187.800000
847.601746	185.900000
847.635681	192.700000
847.669556	181.100000
847.703491	194.700000
847.737427	202.500000
847.771301	184.100000
847.805237	190.700000
847.839233	190.300000
847.873108	187.100000
847.907043	186.900000
847.940918	193.700000
847.974854	190.600000
848.008789	192.000000
848.042664	188.600000
848.076538	191.300000
848.110474	189.100000
848.144348	190.700000
848.178284	181.000000
848.212219	189.600000
848.246094	187.900000
848.279968	188.800000
848.313904	191.800000
848.347778	188.600000
848.381653	187.300000
848.415588	185.700000
848.449463	186.600000
848.483337	190.800000
848.517212	194.800000
848.551086	189.100000
848.585022	183.600000
848.618835	196.300000
848.652771	185.700000
848.686646	184.300000
848.720520	197.400000
848.754395	187.300000
848.788330	192.800000
848.822144	192.900000
848.856018	187.500000
848.889954	199.200000
848.923767	183.500000
848.957642	186.000000
848.991577	192.600000
849.025391	186.400000
849.059265	187.300000
849.093079	185.000000
849.126953	183.400000
849.160828	195.400000
849.194641	191.700000
849.228577	187.700000
849.262451	186.400000
849.296265	187.200000
849.330139	182.800000
849.364014	189.200000
849.397827	191.200000
849.431702	190.000000
849.465515	192.600000
849.499329	180.600000
849.533203	183.500000
849.567078	179.100000
849.600891	192.200000
849.634766	188.000000
849.668518	193.200000
849.702393	189.200000
849.736267	182.500000
849.770020	200.000000
849.803894	191.400000
849.837769	188.900000
849.871521	188.600000
849.905396	194.800000
849.939270	184.300000
849.973022	185.900000
850.006897	191.900000
850.040710	190.900000
850.074524	192.200000
850.108337	187.800000
850.142151	193.200000
850.175964	194.100000
850.209778	189.000000
850.243530	176.400000
850.277405	193.000000
850.311218	188.600000
850.344971	186.800000
850.378845	196.000000
850.412659	186.000000
850.446411	190.700000
850.480225	188.400000
850.514038	193.800000
850.547791	191.500000
850.581665	188.100000
850.615417	185.700000
850.649231	189.000000
850.683044	187.800000
850.716858	186.300000
850.750610	188.100000
850.784424	190.700000
850.818176	186.500000
850.851929	187.500000
850.885742	186.000000
850.919495	187.800000
850.953308	195.500000
850.987122	196.000000
851.020874	184.800000
851.054626	181.700000
851.088440	193.100000
851.122192	191.100000
851.156006	189.200000
851.189697	186.500000
851.223511	184.100000
851.257263	192.500000
851.291077	192.200000
851.324829	187.500000
851.358582	184.800000
851.392334	187.400000
851.426086	186.700000
851.459900	196.500000
851.493591	189.300000
851.527344	188.600000
851.561157	188.200000
851.594849	192.100000
851.628662	189.700000
851.662415	196.300000
851.696106	190.800000
851.729858	193.500000
851.763611	184.900000
851.797363	190.200000
851.831116	184.800000
851.864868	191.700000
851.898560	193.100000
851.932312	186.500000
851.966064	190.900000
851.999817	189.100000
852.033569	188.700000
852.067261	192.700000
852.101013	185.200000
852.134766	189.300000
852.168457	178.400000
852.202209	192.500000
852.235901	184.300000
852.269592	192.600000
852.303345	198.400000
852.337036	192.000000
852.370789	187.200000
852.404541	192.400000
852.438171	184.800000
852.471924	188.000000
852.505676	182.300000
852.539307	190.900000
852.573059	185.000000
852.606812	186.600000
852.640442	186.400000
852.674194	193.600000
852.707886	198.500000
852.741577	196.100000
852.775269	185.100000
852.809021	189.200000
852.842651	192.000000
852.876404	194.900000
852.910034	189.200000
852.943787	195.100000
852.977478	192.100000
853.011108	185.500000
853.044861	187.700000
853.078552	196.200000
853.112183	190.600000
853.145874	190.800000
853.179626	182.000000
853.213257	192.000000
853.246948	187.400000
853.280640	197.000000
853.314270	187.800000
853.347961	195.900000
853.381653	191.800000
853.415283	193.600000
853.448975	185.400000
853.482605	189.800000
853.516296	187.600000
853.549988	183.100000
853.583618	190.100000
853.617310	191.100000
853.651001	189.700000
853.684631	183.900000
853.718323	186.900000
853.751953	196.100000
853.785583	180.200000
853.819275	192.400000
853.852966	189.700000
853.886536	179.900000
853.920227	184.300000
853.953918	193.900000
853.987488	187.000000
854.021179	190.900000
854.054749	198.000000
854.088440	191.300000
854.122131	185.300000
854.155701	192.000000
854.189331	185.400000
854.223022	192.900000
854.256592	191.300000
854.290283	185.900000
854.323914	193.800000
854.357483	190.000000
854.391174	192.000000
854.424744	198.300000
854.458374	192.000000
854.492065	199.600000
854.525696	188.700000
854.559265	194.100000
854.592896	200.000000
854.626465	188.800000
854.660095	190.300000
854.693787	191.000000
854.727356	188.600000
854.760986	191.800000
854.794617	191.900000
854.828186	187.200000
854.861816	192.000000
854.895447	189.600000
854.929016	191.400000
854.962585	191.400000
854.996155	198.300000
855.029785	189.900000
855.063416	191.200000
855.097046	193.300000
855.130615	183.900000
855.164185	194.800000
855.197754	189.900000
855.231384	192.400000
855.264954	188.600000
855.298523	192.200000
855.332153	189.500000
855.365723	198.400000
855.399292	185.200000
855.432922	187.200000
855.466492	191.000000
855.500061	184.100000
855.533630	185.600000
855.567200	191.800000
855.600769	193.600000
855.634338	194.100000
855.667969	189.400000
855.701477	184.200000
855.735046	183.800000
855.768616	181.100000
855.802185	189.900000
855.835754	204.900000
855.869324	179.800000
855.902893	187.700000
855.936401	193.900000
855.969971	190.100000
856.003540	181.600000
856.037109	192.700000
856.070618	188.000000
856.104187	184.700000
856.137695	185.300000
856.171265	179.500000
856.204834	188.100000
856.238403	195.400000
856.271912	185.900000
856.305481	190.400000
856.338989	181.800000
856.372559	192.000000
856.406128	189.700000
856.439636	193.800000
856.473145	187.300000
856.506653	196.300000
856.540222	188.000000
856.573792	195.700000
856.607300	193.200000
856.640808	183.600000
856.674377	189.400000
856.707825	220.100000
856.741394	194.000000
856.774902	186.400000
856.808472	180.600000
856.841980	192.600000
856.875488	197.900000
856.908936	182.700000
856.942505	187.200000
856.976013	188.800000
857.009521	184.300000
857.043030	189.300000
857.076477	187.100000
857.110046	195.200000
857.143555	190.400000
857.177063	194.200000
857.210571	187.300000
857.244080	183.600000
857.277527	192.300000
857.311035	187.900000
857.344543	194.200000
857.378052	188.700000
857.411499	195.300000
857.445068	197.200000
857.478516	188.700000
857.512024	183.300000
857.545532	187.100000
857.578979	192.100000
857.612427	188.600000
857.645874	184.100000
857.679382	190.900000
857.712891	194.000000
857.746399	187.900000
857.779846	193.900000
857.813354	193.900000
857.846741	187.800000
857.880249	186.500000
857.913757	190.200000
857.947266	191.000000
857.980652	193.200000
858.014160	187.700000
858.047546	186.600000
858.081055	188.700000
858.114563	198.900000
858.147949	183.000000
858.181458	192.100000
858.214844	187.800000
858.248352	179.600000
858.281799	194.700000
858.315308	202.300000
858.348694	193.500000
858.382141	196.900000
858.415588	192.200000
858.449036	193.400000
858.482483	192.100000
858.515930	185.300000
858.549377	189.500000
858.582825	196.400000
858.616211	191.000000
858.649658	190.500000
858.683105	184.400000
858.716553	186.900000
858.750000	184.000000
858.783386	187.500000
858.816833	181.500000
858.850281	190.200000
858.883728	191.300000
858.917114	188.300000
858.950562	198.500000
858.983948	197.700000
859.017395	193.300000
859.050781	188.000000
859.084167	184.800000
859.117615	183.000000
859.151062	191.800000
859.184448	184.400000
859.217834	187.000000
859.251282	187.300000
859.284668	182.700000
859.318054	179.800000
859.351440	186.500000
859.384888	196.500000
859.418274	180.400000
859.451721	181.400000
859.485046	191.300000
859.518494	190.200000
859.551819	184.400000
859.585266	193.200000
859.618652	191.500000
859.652039	183.400000
859.685425	183.000000
859.718811	182.700000
859.752197	176.900000
859.785583	196.600000
859.819031	196.300000
859.852356	192.600000
859.885742	185.900000
859.919067	187.700000
859.952454	186.400000
859.985901	194.700000
860.019287	186.800000
860.052612	0.000000
860.085999	0.000000
860.119324	0.000000
860.152710	0.000000
860.186096	0.000000
860.219421	0.000000
860.252808	0.000000
860.286133	0.000000
860.319519	0.000000
860.352905	0.000000
860.386292	0.000000
860.419617	0.000000
860.452942	0.000000
860.486267	0.000000
860.519653	0.000000
860.553040	0.000000
860.586365	0.000000
860.619690	0.000000
860.653076	0.000000
860.686340	0.000000
860.719727	0.000000
860.753113	0.000000
860.786377	0.000000
860.819763	0.000000
860.853027	0.000000
860.886414	0.000000
860.919739	0.000000
860.953125	0.000000
860.986389	0.000000
861.019714	0.000000
861.053040	0.000000
861.086365	0.000000
861.119690	0.000000
861.153076	0.000000
861.186340	0.000000
861.219666	0.000000
861.252930	0.000000
861.286316	0.000000
861.319641	0.000000
861.352905	0.000000
861.386230	0.000000
861.419495	0.000000
861.452820	0.000000
861.486145	0.000000
861.519470	0.000000
861.552734	0.000000
861.586060	0.000000
861.619324	0.000000
861.652649	0.000000
861.685974	0.000000
861.719238	0.000000
861.752563	0.000000
861.785828	0.000000
861.819092	0.000000
861.852417	0.000000
861.885742	0.000000
861.918945	0.000000
861.952271	0.000000
861.985535	0.000000
862.018799	0.000000
862.052124	0.000000
862.085449	0.000000
862.118652	0.000000
862.151978	0.000000
862.185181	0.000000
862.218506	0.000000
862.251770	0.000000
862.285034	0.000000
862.318298	0.000000
862.351562	0.000000
862.384827	0.000000
862.418091	0.000000
862.451355	0.000000
862.484619	0.000000
862.517883	0.000000
862.551086	0.000000
862.584351	0.000000
862.617676	0.000000
862.650940	0.000000
862.684143	0.000000
862.717407	0.000000
862.750610	0.000000
862.783875	0.000000
862.817139	0.000000
862.850342	0.000000
862.883606	0.000000
862.916870	0.000000
862.950073	0.000000
862.983337	0.000000
863.016602	0.000000
863.049805	0.000000
863.083069	0.000000
863.116211	0.000000
863.149475	0.000000
863.182739	0.000000
863.216003	0.000000
863.249146	0.000000
863.282410	0.000000
863.315613	0.000000
863.348816	0.000000
863.382080	0.000000
863.415222	0.000000
863.448486	0.000000
863.481689	0.000000
863.514893	0.000000
863.548157	0.000000
863.581360	0.000000
863.614502	0.000000
863.647766	0.000000
863.680908	0.000000
863.714172	0.000000
863.747375	0.000000
863.780579	0.000000
863.813721	0.000000
863.846985	0.000000
863.880127	0.000000
863.913330	0.000000
863.946533	0.000000
863.979675	0.000000
864.012939	0.000000
