Model Number: SPM-001-M   
Serial Number: 10090201
Firmware Version: 004.17.6
Exposure Time: 500000.000000us
Data Taken on: 03-03-2021 10:29:35.155
Wavelength	Amplitude
733.770752	0.000000
733.808716	0.000000
733.846619	0.000000
733.884583	0.000000
733.922546	0.000000
733.960449	0.000000
733.998413	0.000000
734.036377	0.000000
734.074219	0.000000
734.112183	0.000000
734.150085	0.000000
734.188049	0.000000
734.226013	0.000000
734.263916	0.000000
734.301819	0.000000
734.339783	0.000000
734.377686	0.000000
734.415588	0.000000
734.453552	0.000000
734.491455	0.000000
734.529419	0.000000
734.567322	0.000000
734.605225	0.000000
734.643127	0.000000
734.681091	0.000000
734.718994	0.000000
734.756897	0.000000
734.794800	0.000000
734.832703	0.000000
734.870667	0.000000
734.908508	0.000000
734.946472	0.000000
734.984375	0.000000
735.022278	0.000000
735.060181	0.000000
735.098083	0.000000
735.135986	0.000000
735.173889	0.000000
735.211792	0.000000
735.249695	0.000000
735.287598	0.000000
735.325439	0.000000
735.363403	0.000000
735.401306	0.000000
735.439148	0.000000
735.477051	0.000000
735.515015	0.000000
735.552856	0.000000
735.590759	0.000000
735.628662	0.000000
735.666504	0.000000
735.704407	0.000000
735.742310	0.000000
735.780212	0.000000
735.818115	0.000000
735.856018	0.000000
735.893860	0.000000
735.931763	0.000000
735.969604	0.000000
736.007507	0.000000
736.045410	0.000000
736.083252	0.000000
736.121094	0.000000
736.158997	0.000000
736.196838	0.000000
736.234741	0.000000
736.272644	0.000000
736.310486	0.000000
736.348389	0.000000
736.386230	0.000000
736.424072	0.000000
736.461975	0.000000
736.499878	0.000000
736.537720	0.000000
736.575562	0.000000
736.613403	0.000000
736.651306	0.000000
736.689148	0.000000
736.726990	0.000000
736.764893	0.000000
736.802734	0.000000
736.840576	0.000000
736.878418	0.000000
736.916321	0.000000
736.954102	0.000000
736.992004	0.000000
737.029846	0.000000
737.067688	0.000000
737.105530	0.000000
737.143372	0.000000
737.181213	0.000000
737.219116	0.000000
737.256897	0.000000
737.294739	0.000000
737.332642	0.000000
737.370422	0.000000
737.408325	0.000000
737.446167	0.000000
737.483948	0.000000
737.521790	0.000000
737.559692	0.000000
737.597473	0.000000
737.635315	0.000000
737.673157	0.000000
737.710999	0.000000
737.748840	0.000000
737.786621	0.000000
737.824463	0.000000
737.862305	0.000000
737.900085	0.000000
737.937927	0.000000
737.975769	0.000000
738.013550	0.000000
738.051392	0.000000
738.089233	0.000000
738.127014	0.000000
738.164856	0.000000
738.202698	0.000000
738.240479	0.000000
738.278320	0.000000
738.316162	0.000000
738.353943	0.000000
738.391785	0.000000
738.429565	0.000000
738.467407	0.000000
738.505188	0.000000
738.542969	0.000000
738.580811	0.000000
738.618652	0.000000
738.656372	0.000000
738.694214	0.000000
738.732056	0.000000
738.769836	0.000000
738.807617	0.000000
738.845459	0.000000
738.883240	0.000000
738.921021	0.000000
738.958862	0.000000
738.996582	0.000000
739.034424	0.000000
739.072205	0.000000
739.109985	0.000000
739.147827	0.000000
739.185547	0.000000
739.223389	0.000000
739.261169	0.000000
739.298889	0.000000
739.336731	0.000000
739.374512	0.000000
739.412292	0.000000
739.450073	0.000000
739.487854	0.000000
739.525635	0.000000
739.563416	0.000000
739.601135	0.000000
739.638977	0.000000
739.676758	0.000000
739.714478	0.000000
739.752258	0.000000
739.790100	0.000000
739.827820	0.000000
739.865601	0.000000
739.903381	0.000000
739.941101	0.000000
739.978882	190.600000
740.016724	185.300000
740.054443	192.400000
740.092224	184.000000
740.130005	183.000000
740.167725	182.900000
740.205505	183.500000
740.243225	193.400000
740.281006	188.500000
740.318787	179.200000
740.356506	194.000000
740.394287	190.900000
740.432068	182.500000
740.469727	180.400000
740.507507	191.400000
740.545288	186.700000
740.583008	190.000000
740.620789	187.400000
740.658569	179.900000
740.696228	186.000000
740.734009	193.300000
740.771790	175.900000
740.809509	190.600000
740.847229	182.800000
740.884949	186.000000
740.922729	179.600000
740.960449	185.900000
740.998169	183.200000
741.035950	182.600000
741.073669	187.900000
741.111389	186.700000
741.149170	194.800000
741.186890	197.400000
741.224609	189.800000
741.262329	188.000000
741.300110	196.700000
741.337769	182.900000
741.375549	181.300000
741.413208	188.100000
741.450989	182.700000
741.488708	184.500000
741.526367	184.600000
741.564148	190.500000
741.601868	191.200000
741.639526	185.900000
741.677307	187.500000
741.715027	190.200000
741.752686	183.600000
741.790466	193.700000
741.828186	189.100000
741.865845	181.600000
741.903564	178.800000
741.941345	187.300000
741.979004	183.900000
742.016724	189.800000
742.054382	189.000000
742.092102	191.900000
742.129822	179.200000
742.167480	185.200000
742.205200	185.300000
742.242920	189.100000
742.280640	190.800000
742.318359	183.000000
742.356079	184.000000
742.393738	190.300000
742.431396	186.400000
742.469116	190.500000
742.506775	178.100000
742.544495	189.500000
742.582214	192.300000
742.619873	186.000000
742.657593	194.000000
742.695251	190.600000
742.732971	186.900000
742.770630	187.600000
742.808289	186.000000
742.846008	186.200000
742.883728	189.100000
742.921326	186.200000
742.959045	185.300000
742.996765	187.600000
743.034424	187.700000
743.072083	183.600000
743.109802	187.400000
743.147400	180.900000
743.185120	189.000000
743.222839	186.200000
743.260437	194.200000
743.298157	189.000000
743.335754	179.900000
743.373474	185.100000
743.411133	180.300000
743.448792	188.100000
743.486450	187.100000
743.524170	179.200000
743.561768	187.900000
743.599487	194.000000
743.637146	198.700000
743.674744	185.400000
743.712463	184.600000
743.750122	186.600000
743.787720	188.700000
743.825439	182.300000
743.863037	185.200000
743.900696	186.700000
743.938416	212.300000
743.976013	187.200000
744.013672	196.000000
744.051331	191.200000
744.088928	196.300000
744.126587	193.100000
744.164307	187.600000
744.201904	182.900000
744.239563	190.600000
744.277222	191.100000
744.314819	186.500000
744.352478	193.600000
744.390137	188.000000
744.427734	189.700000
744.465393	184.300000
744.502991	183.200000
744.540649	190.500000
744.578308	188.400000
744.615906	182.200000
744.653564	178.300000
744.691223	191.200000
744.728821	181.000000
744.766418	185.900000
744.804077	190.200000
744.841675	184.500000
744.879333	181.300000
744.916992	185.400000
744.954529	184.700000
744.992187	192.200000
745.029785	185.800000
745.067444	183.900000
745.105042	188.100000
745.142639	189.100000
745.180298	196.500000
745.217896	183.400000
745.255493	186.400000
745.293152	191.600000
745.330750	191.000000
745.368347	194.800000
745.405945	191.100000
745.443604	186.200000
745.481140	192.800000
745.518799	186.500000
745.556396	192.000000
745.593994	191.300000
745.631592	187.300000
745.669189	181.600000
745.706787	188.700000
745.744385	184.500000
745.781982	189.300000
745.819580	185.400000
745.857178	185.500000
745.894775	187.800000
745.932373	188.400000
745.969971	188.300000
746.007568	178.900000
746.045166	196.500000
746.082764	192.800000
746.120300	190.400000
746.157898	189.000000
746.195557	188.500000
746.233093	181.200000
746.270691	191.200000
746.308228	188.800000
746.345825	193.700000
746.383423	191.400000
746.420959	183.800000
746.458557	184.500000
746.496155	184.500000
746.533691	187.000000
746.571289	182.200000
746.608887	188.100000
746.646423	187.600000
746.684021	188.900000
746.721619	185.000000
746.759155	188.900000
746.796753	181.000000
746.834351	180.700000
746.871826	183.200000
746.909424	194.200000
746.946960	191.100000
746.984558	185.700000
747.022156	185.900000
747.059631	193.900000
747.097229	189.700000
747.134827	184.800000
747.172363	194.000000
747.209900	190.600000
747.247498	183.000000
747.285034	194.100000
747.322571	193.500000
747.360168	184.900000
747.397644	181.000000
747.435242	191.000000
747.472778	193.600000
747.510315	184.600000
747.547913	185.200000
747.585388	193.600000
747.622925	186.300000
747.660522	179.000000
747.697998	183.000000
747.735596	186.700000
747.773132	182.900000
747.810669	186.100000
747.848206	189.900000
747.885742	182.400000
747.923279	182.800000
747.960815	190.600000
747.998352	188.300000
748.035889	192.100000
748.073425	191.700000
748.110901	184.700000
748.148437	182.800000
748.185974	187.700000
748.223511	197.500000
748.261047	188.700000
748.298584	188.300000
748.336060	187.500000
748.373596	190.200000
748.411133	207.400000
748.448608	182.900000
748.486145	192.200000
748.523682	195.000000
748.561218	194.300000
748.598755	188.500000
748.636292	190.000000
748.673706	183.900000
748.711243	194.200000
748.748718	188.200000
748.786255	186.700000
748.823792	185.600000
748.861267	182.000000
748.898804	188.700000
748.936340	190.200000
748.973816	185.200000
749.011292	193.400000
749.048828	189.200000
749.086304	190.000000
749.123840	196.900000
749.161316	183.900000
749.198792	197.900000
749.236328	193.100000
749.273743	185.500000
749.311279	185.000000
749.348816	188.000000
749.386230	187.800000
749.423767	176.700000
749.461304	190.000000
749.498718	187.200000
749.536255	194.500000
749.573730	199.300000
749.611206	193.200000
749.648682	186.600000
749.686218	186.900000
749.723633	190.500000
749.761169	185.800000
749.798645	183.800000
749.836060	186.700000
749.873596	185.000000
749.911011	186.900000
749.948547	195.000000
749.986023	188.100000
750.023437	187.800000
750.060913	181.300000
750.098450	182.000000
750.135864	187.500000
750.173340	187.700000
750.210815	190.900000
750.248291	182.600000
750.285767	187.100000
750.323242	193.000000
750.360657	190.300000
750.398132	182.500000
750.435608	191.100000
750.473022	183.800000
750.510498	184.000000
750.547974	182.200000
750.585449	185.900000
750.622925	178.300000
750.660339	198.100000
750.697815	189.500000
750.735291	186.600000
750.772644	189.000000
750.810120	188.800000
750.847595	190.200000
750.885010	182.800000
750.922485	197.100000
750.959961	185.700000
750.997375	194.200000
751.034851	191.700000
751.072266	192.600000
751.109680	180.500000
751.147156	193.000000
751.184570	188.900000
751.221985	189.700000
751.259460	179.400000
751.296875	187.900000
751.334290	187.100000
751.371765	191.700000
751.409180	188.900000
751.446594	192.900000
751.484070	189.800000
751.521423	189.000000
751.558899	188.800000
751.596375	195.700000
751.633728	194.900000
751.671204	201.000000
751.708618	184.400000
751.746033	189.500000
751.783447	182.300000
751.820801	183.700000
751.858276	191.500000
751.895691	188.100000
751.933105	186.200000
751.970520	183.300000
752.007935	186.700000
752.045349	192.400000
752.082764	188.000000
752.120178	186.000000
752.157532	183.900000
752.195007	185.900000
752.232422	191.400000
752.269775	192.300000
752.307190	190.300000
752.344543	182.700000
752.382019	187.200000
752.419434	184.100000
752.456787	189.800000
752.494202	191.100000
752.531616	188.400000
752.568970	192.500000
752.606384	190.500000
752.643799	188.600000
752.681152	195.100000
752.718567	190.900000
752.755981	180.300000
752.793335	189.900000
752.830750	181.000000
752.868164	192.400000
752.905518	182.500000
752.942932	191.800000
752.980225	183.300000
753.017639	191.600000
753.055054	186.200000
753.092407	189.000000
753.129822	193.200000
753.167175	196.200000
753.204529	188.200000
753.241943	184.800000
753.279358	182.000000
753.316650	191.900000
753.354065	190.400000
753.391479	192.300000
753.428772	195.000000
753.466187	192.600000
753.503479	182.500000
753.540894	186.600000
753.578308	182.800000
753.615601	181.700000
753.653015	188.100000
753.690369	186.300000
753.727722	183.500000
753.765076	182.500000
753.802490	182.600000
753.839783	179.500000
753.877136	186.000000
753.914551	203.900000
753.951843	184.200000
753.989258	192.500000
754.026611	189.100000
754.063904	190.900000
754.101257	183.900000
754.138611	180.600000
754.175964	188.900000
754.213318	198.600000
754.250610	180.900000
754.288025	186.100000
754.325378	181.300000
754.362671	192.900000
754.400024	186.100000
754.437378	196.800000
754.474670	196.800000
754.512085	185.100000
754.549438	188.800000
754.586731	186.400000
754.624084	186.400000
754.661438	183.900000
754.698730	195.900000
754.736084	187.100000
754.773376	186.300000
754.810730	190.000000
754.848083	185.600000
754.885315	191.700000
754.922668	178.700000
754.960022	182.500000
754.997314	189.900000
755.034668	188.800000
755.072021	187.900000
755.109253	184.800000
755.146606	194.800000
755.183960	184.500000
755.221252	196.100000
755.258545	192.100000
755.295898	191.900000
755.333191	192.700000
755.370544	191.200000
755.407776	187.300000
755.445129	188.100000
755.482422	192.400000
755.519714	185.100000
755.557068	180.800000
755.594360	178.500000
755.631653	191.500000
755.668945	197.700000
755.706299	189.900000
755.743530	199.600000
755.780884	195.100000
755.818176	193.400000
755.855408	192.900000
755.892761	190.300000
755.930054	187.700000
755.967346	190.400000
756.004639	192.000000
756.041870	188.800000
756.079224	193.000000
756.116516	183.800000
756.153748	192.400000
756.191040	196.200000
756.228394	190.500000
756.265625	184.200000
756.302917	190.000000
756.340210	186.400000
756.377441	192.400000
756.414795	196.000000
756.452087	186.500000
756.489319	182.400000
756.526611	191.100000
756.563843	190.000000
756.601135	197.800000
756.638428	197.900000
756.675659	188.300000
756.712952	194.200000
756.750244	191.500000
756.787476	191.500000
756.824768	195.600000
756.862061	187.600000
756.899292	236.000000
756.936584	193.500000
756.973816	199.600000
757.011047	202.600000
757.048340	192.100000
757.085632	190.400000
757.122864	205.800000
757.160156	189.000000
757.197327	192.700000
757.234619	195.900000
757.271912	190.300000
757.309082	195.900000
757.346375	186.900000
757.383667	196.300000
757.420837	191.600000
757.458130	192.000000
757.495422	190.900000
757.532593	194.400000
757.569885	185.400000
757.607117	187.900000
757.644348	192.300000
757.681580	205.200000
757.718811	180.500000
757.756042	190.900000
757.793335	190.200000
757.830505	194.100000
757.867798	188.700000
757.905029	187.900000
757.942200	193.800000
757.979492	187.500000
758.016724	191.600000
758.053894	189.100000
758.091187	210.300000
758.128418	192.700000
758.165588	191.500000
758.202820	202.400000
758.240112	191.300000
758.277283	202.100000
758.314514	195.400000
758.351685	190.000000
758.388916	201.700000
758.426147	200.300000
758.463379	201.600000
758.500610	195.500000
758.537842	194.100000
758.575012	199.000000
758.612244	190.200000
758.649475	207.100000
758.686646	187.900000
758.723877	201.500000
758.761108	201.600000
758.798279	193.300000
758.835510	197.400000
758.872742	200.300000
758.909851	197.300000
758.947083	199.600000
758.984253	196.800000
759.021484	200.600000
759.058716	199.800000
759.095886	201.100000
759.133057	195.000000
759.170288	200.300000
759.207458	192.400000
759.244690	206.600000
759.281860	207.000000
759.319031	197.800000
759.356262	195.600000
759.393433	197.100000
759.430603	196.600000
759.467773	196.900000
759.505005	204.000000
759.542175	204.000000
759.579346	196.500000
759.616516	198.700000
759.653687	200.400000
759.690918	195.500000
759.728027	198.500000
759.765259	200.500000
759.802429	202.900000
759.839539	202.800000
759.876770	206.500000
759.913940	210.600000
759.951111	200.300000
759.988281	200.400000
760.025452	197.300000
760.062561	195.300000
760.099792	209.000000
760.136963	204.300000
760.174072	198.000000
760.211243	194.700000
760.248413	196.600000
760.285583	197.000000
760.322754	210.500000
760.359863	206.600000
760.397034	208.300000
760.434204	201.800000
760.471375	201.700000
760.508545	198.600000
760.545715	201.600000
760.582825	197.800000
760.619995	206.000000
760.657166	196.200000
760.694275	209.600000
760.731445	204.000000
760.768555	203.700000
760.805664	207.300000
760.842834	204.300000
760.879944	207.300000
760.917114	204.700000
760.954285	202.200000
760.991394	197.500000
761.028564	208.400000
761.065674	206.900000
761.102783	199.700000
761.139954	209.500000
761.177124	208.200000
761.214172	210.100000
761.251343	203.800000
761.288452	205.500000
761.325562	207.700000
761.362732	202.200000
761.399841	204.100000
761.436951	206.700000
761.474121	200.700000
761.511169	204.800000
761.548340	209.300000
761.585449	209.500000
761.622559	209.300000
761.659668	207.000000
761.696838	213.400000
761.733887	209.100000
761.771057	204.100000
761.808167	207.100000
761.845276	210.900000
761.882385	218.800000
761.919434	208.100000
761.956604	228.000000
761.993713	203.000000
762.030762	215.200000
762.067871	207.600000
762.105042	209.200000
762.142090	216.800000
762.179199	209.900000
762.216309	214.200000
762.253418	225.000000
762.290527	218.200000
762.327637	217.200000
762.364685	204.800000
762.401794	216.500000
762.438904	214.100000
762.475952	209.200000
762.513062	206.100000
762.550110	206.500000
762.587219	221.700000
762.624329	219.600000
762.661377	214.300000
762.698486	214.700000
762.735596	213.800000
762.772644	208.700000
762.809753	206.700000
762.846863	213.200000
762.883911	218.500000
762.921021	217.000000
762.958069	214.100000
762.995117	222.000000
763.032227	221.000000
763.069336	213.500000
763.106323	210.300000
763.143433	209.300000
763.180481	217.800000
763.217590	217.500000
763.254639	214.900000
763.291687	212.800000
763.328735	222.800000
763.365845	215.000000
763.402893	215.400000
763.439941	217.100000
763.477051	220.700000
763.514038	220.300000
763.551147	215.600000
763.588196	218.800000
763.625244	217.400000
763.662292	224.500000
763.699402	226.600000
763.736389	222.700000
763.773499	230.800000
763.810486	222.900000
763.847534	221.400000
763.884644	222.400000
763.921631	219.700000
763.958679	230.300000
763.995728	220.900000
764.032776	232.700000
764.069824	217.400000
764.106873	225.100000
764.143860	233.600000
764.180969	222.800000
764.218018	230.900000
764.255005	221.800000
764.292053	223.100000
764.329102	233.200000
764.366089	233.200000
764.403137	232.100000
764.440125	224.200000
764.477173	227.100000
764.514221	231.600000
764.551208	229.800000
764.588257	224.800000
764.625305	235.400000
764.662292	239.400000
764.699341	241.200000
764.736389	232.400000
764.773376	248.000000
764.810425	235.300000
764.847473	243.200000
764.884399	238.500000
764.921448	247.400000
764.958435	243.600000
764.995483	235.000000
765.032532	250.700000
765.069458	237.200000
765.106506	237.900000
765.143555	236.300000
765.180481	239.900000
765.217529	248.300000
765.254578	231.800000
765.291504	243.800000
765.328552	240.100000
765.365540	237.600000
765.402527	251.300000
765.439575	239.000000
765.476501	235.700000
765.513550	236.400000
765.550537	241.100000
765.587463	250.500000
765.624512	239.600000
765.661499	232.700000
765.698486	248.900000
765.735474	239.600000
765.772461	242.200000
765.809448	251.600000
765.846436	248.500000
765.883423	252.500000
765.920410	246.600000
765.957397	243.600000
765.994385	248.900000
766.031311	256.500000
766.068359	251.400000
766.105286	250.800000
766.142273	255.700000
766.179260	250.800000
766.216187	244.600000
766.253174	242.600000
766.290161	250.100000
766.327148	253.600000
766.364136	255.500000
766.401123	268.200000
766.438049	248.300000
766.475037	261.300000
766.512024	256.100000
766.548950	270.800000
766.585937	265.100000
766.622864	259.100000
766.659790	258.800000
766.696777	248.400000
766.733704	266.400000
766.770691	255.300000
766.807678	266.100000
766.844604	261.700000
766.881531	261.000000
766.918518	267.000000
766.955444	272.000000
766.992432	261.500000
767.029358	264.100000
767.066284	269.200000
767.103271	264.500000
767.140198	294.500000
767.177124	280.800000
767.214050	268.200000
767.251038	270.700000
767.287964	265.500000
767.324890	263.000000
767.361816	270.100000
767.398743	274.300000
767.435730	267.100000
767.472595	273.800000
767.509583	277.700000
767.546509	265.300000
767.583374	270.600000
767.620361	265.000000
767.657288	270.500000
767.694214	270.000000
767.731140	268.400000
767.768066	271.300000
767.804993	274.600000
767.841919	266.300000
767.878845	271.500000
767.915710	279.000000
767.952698	272.600000
767.989563	278.000000
768.026489	276.900000
768.063416	272.400000
768.100281	269.100000
768.137207	282.600000
768.174133	280.600000
768.211060	279.700000
768.247986	278.000000
768.284912	277.900000
768.321777	280.400000
768.358704	276.700000
768.395630	279.200000
768.432495	273.700000
768.469421	280.700000
768.506348	284.500000
768.543152	292.000000
768.580078	286.300000
768.616943	288.900000
768.653870	291.100000
768.690796	288.500000
768.727661	286.600000
768.764587	287.900000
768.801453	280.400000
768.838318	293.000000
768.875244	290.900000
768.912109	297.300000
768.948975	287.300000
768.985901	289.600000
769.022766	287.400000
769.059631	294.000000
769.096558	289.000000
769.133362	290.900000
769.170288	291.600000
769.207214	291.100000
769.244019	296.000000
769.280945	297.000000
769.317810	301.700000
769.354675	296.400000
769.391541	306.500000
769.428406	302.000000
769.465271	308.800000
769.502136	298.800000
769.539062	304.100000
769.575867	301.600000
769.612732	302.800000
769.649597	310.300000
769.686462	312.600000
769.723328	306.200000
769.760193	303.600000
769.797058	305.800000
769.833923	315.900000
769.870728	310.400000
769.907593	311.300000
769.944519	311.200000
769.981323	314.300000
770.018188	316.700000
770.055054	312.000000
770.091858	314.200000
770.128723	323.600000
770.165588	330.100000
770.202393	314.300000
770.239258	326.800000
770.276062	323.200000
770.312927	324.300000
770.349792	329.600000
770.386597	330.200000
770.423462	337.100000
770.460327	345.300000
770.497131	331.000000
770.533997	323.400000
770.570862	339.900000
770.607605	340.900000
770.644470	335.200000
770.681335	338.200000
770.718140	335.300000
770.754944	330.100000
770.791809	331.700000
770.828613	335.300000
770.865479	337.100000
770.902222	346.700000
770.939087	341.400000
770.975952	332.500000
771.012695	338.900000
771.049561	355.300000
771.086365	344.200000
771.123169	338.700000
771.159973	344.000000
771.196838	343.600000
771.233582	347.300000
771.270447	345.000000
771.307251	350.000000
771.344055	347.900000
771.380859	352.900000
771.417664	345.400000
771.454468	357.000000
771.491272	355.600000
771.528076	354.800000
771.564880	355.800000
771.601685	363.600000
771.638428	350.300000
771.675293	360.000000
771.712097	348.800000
771.748840	368.500000
771.785645	357.100000
771.822449	362.100000
771.859253	364.700000
771.896057	361.300000
771.932861	375.400000
771.969604	363.600000
772.006409	358.500000
772.043213	370.000000
772.079956	366.600000
772.116760	359.600000
772.153503	363.900000
772.190308	375.000000
772.227112	365.800000
772.263855	360.900000
772.300659	368.400000
772.337463	376.600000
772.374207	364.600000
772.411011	364.900000
772.447754	367.400000
772.484497	384.600000
772.521301	375.600000
772.558105	373.400000
772.594849	373.400000
772.631592	377.100000
772.668396	376.400000
772.705139	379.700000
772.741882	376.700000
772.778625	389.700000
772.815430	389.400000
772.852173	383.200000
772.888916	392.600000
772.925720	392.600000
772.962463	398.700000
772.999207	390.500000
773.035950	397.200000
773.072754	397.400000
773.109436	391.900000
773.146240	392.800000
773.182922	390.500000
773.219727	398.300000
773.256470	395.400000
773.293152	383.700000
773.329956	393.300000
773.366699	398.000000
773.403381	387.600000
773.440186	396.400000
773.476929	398.000000
773.513611	389.200000
773.550354	391.800000
773.587158	390.500000
773.623840	388.900000
773.660583	395.000000
773.697327	407.400000
773.734009	397.800000
773.770813	396.900000
773.807495	394.400000
773.844238	397.600000
773.880981	412.100000
773.917664	406.400000
773.954407	412.500000
773.991150	406.300000
774.027832	411.900000
774.064575	403.000000
774.101318	411.400000
774.138000	413.100000
774.174744	411.200000
774.211487	413.000000
774.248108	402.500000
774.284851	399.800000
774.321594	409.600000
774.358276	412.800000
774.395020	423.700000
774.431702	419.500000
774.468384	412.400000
774.505127	406.300000
774.541809	418.400000
774.578491	423.600000
774.615234	427.300000
774.651917	416.500000
774.688599	421.200000
774.725342	428.200000
774.762024	428.900000
774.798706	432.000000
774.835449	433.500000
774.872070	438.800000
774.908813	437.500000
774.945496	433.700000
774.982178	434.800000
775.018860	435.600000
775.055542	438.000000
775.092224	438.000000
775.128967	448.900000
775.165588	443.600000
775.202271	437.000000
775.239014	448.000000
775.275635	451.400000
775.312317	443.500000
775.349060	450.700000
775.385681	449.900000
775.422363	442.600000
775.459045	448.500000
775.495667	454.400000
775.532410	455.500000
775.569092	459.900000
775.605713	458.600000
775.642395	456.700000
775.679016	460.800000
775.715698	461.200000
775.752380	462.800000
775.789001	455.900000
775.825684	459.500000
775.862366	459.500000
775.898987	477.600000
775.935669	463.900000
775.972351	486.000000
776.008972	480.100000
776.045654	480.100000
776.082336	476.800000
776.118958	476.400000
776.155640	483.400000
776.192322	489.000000
776.228882	490.500000
776.265564	492.000000
776.302185	489.400000
776.338867	497.800000
776.375488	485.400000
776.412109	498.000000
776.448792	500.600000
776.485413	509.700000
776.522034	498.900000
776.558716	495.900000
776.595337	495.200000
776.631958	499.800000
776.668579	503.500000
776.705261	512.400000
776.741882	503.600000
776.778503	505.400000
776.815186	501.400000
776.851746	511.700000
776.888367	509.700000
776.924988	518.300000
776.961609	509.300000
776.998291	511.800000
777.034851	505.400000
777.071472	517.300000
777.108154	512.700000
777.144714	525.800000
777.181335	525.900000
777.218018	517.500000
777.254578	525.100000
777.291199	523.700000
777.327759	529.000000
777.364380	535.800000
777.401062	543.700000
777.437622	557.900000
777.474243	540.900000
777.510864	550.800000
777.547424	544.400000
777.584045	547.700000
777.620667	549.100000
777.657227	551.800000
777.693848	549.400000
777.730469	569.600000
777.767029	556.700000
777.803650	562.200000
777.840271	555.300000
777.876831	555.000000
777.913452	566.400000
777.950012	549.900000
777.986633	547.800000
778.023193	549.000000
778.059753	545.000000
778.096375	546.100000
778.132996	562.300000
778.169556	550.600000
778.206116	553.600000
778.242737	547.000000
778.279297	559.100000
778.315857	546.300000
778.352478	557.300000
778.389038	565.000000
778.425598	567.400000
778.462219	569.000000
778.498718	569.700000
778.535339	576.000000
778.571838	574.100000
778.608459	578.300000
778.645020	570.700000
778.681580	576.900000
778.718140	576.500000
778.754761	571.100000
778.791260	582.000000
778.827881	588.000000
778.864441	584.900000
778.900940	591.600000
778.937561	590.700000
778.974121	585.900000
779.010620	575.000000
779.047241	585.900000
779.083801	593.800000
779.120300	590.900000
779.156860	595.400000
779.193359	587.500000
779.229980	587.900000
779.266541	592.000000
779.303040	597.200000
779.339600	592.500000
779.376160	584.600000
779.412659	589.200000
779.449219	578.300000
779.485779	590.700000
779.522278	583.800000
779.558838	590.500000
779.595398	592.200000
779.631897	593.200000
779.668457	585.500000
779.705017	596.700000
779.741516	586.600000
779.778076	582.100000
779.814575	587.700000
779.851074	589.200000
779.887634	586.600000
779.924133	593.300000
779.960693	583.600000
779.997253	597.800000
780.033691	601.500000
780.070251	604.100000
780.106812	612.000000
780.143250	611.200000
780.179810	603.700000
780.216370	604.400000
780.252808	611.700000
780.289368	621.700000
780.325867	617.400000
780.362366	615.900000
780.398865	625.100000
780.435364	619.600000
780.471863	630.800000
780.508423	625.300000
780.544861	629.000000
780.581421	632.800000
780.617920	622.300000
780.654419	617.100000
780.690918	624.300000
780.727417	631.400000
780.763916	630.400000
780.800415	641.400000
780.836914	629.300000
780.873352	639.200000
780.909912	627.600000
780.946411	638.400000
780.982849	646.300000
781.019348	658.100000
781.055786	652.100000
781.092346	645.500000
781.128845	652.100000
781.165283	655.700000
781.201782	665.300000
781.238281	667.700000
781.274719	673.100000
781.311218	664.400000
781.347717	674.000000
781.384155	663.300000
781.420654	667.900000
781.457092	679.200000
781.493591	674.500000
781.530090	668.000000
781.566528	671.800000
781.602966	672.400000
781.639465	671.300000
781.675903	666.400000
781.712402	676.000000
781.748901	678.800000
781.785278	670.100000
781.821777	682.000000
781.858276	677.900000
781.894714	694.000000
781.931152	687.700000
781.967651	696.400000
782.004089	688.500000
782.040527	699.000000
782.076965	696.900000
782.113403	699.900000
782.149902	707.900000
782.186340	698.200000
782.222778	715.200000
782.259277	705.000000
782.295654	699.500000
782.332092	713.400000
782.368591	715.200000
782.404968	711.500000
782.441467	714.200000
782.477905	719.400000
782.514282	714.800000
782.550781	730.800000
782.587219	725.100000
782.623596	735.600000
782.660095	736.500000
782.696472	745.800000
782.732910	744.600000
782.769348	748.300000
782.805786	768.800000
782.842224	762.600000
782.878662	756.700000
782.915039	758.700000
782.951477	759.400000
782.987915	753.200000
783.024292	763.100000
783.060730	764.600000
783.097168	753.300000
783.133545	748.800000
783.169983	743.100000
783.206421	735.300000
783.242798	737.500000
783.279236	730.600000
783.315613	726.500000
783.352051	720.400000
783.388489	718.500000
783.424866	707.400000
783.461304	717.200000
783.497681	722.300000
783.534058	721.400000
783.570496	724.400000
783.606934	720.400000
783.643250	724.700000
783.679687	737.500000
783.716125	731.500000
783.752441	741.200000
783.788879	764.200000
783.825317	776.300000
783.861633	779.700000
783.898071	781.100000
783.934448	793.400000
783.970825	801.700000
784.007263	804.600000
784.043579	806.500000
784.080017	807.400000
784.116394	804.800000
784.152710	807.700000
784.189148	812.900000
784.225525	810.100000
784.261902	802.500000
784.298279	798.400000
784.334656	794.000000
784.371033	779.300000
784.407410	784.600000
784.443787	768.400000
784.480164	760.300000
784.516541	742.000000
784.552856	744.100000
784.589233	735.800000
784.625610	729.800000
784.661987	760.100000
784.698364	750.400000
784.734741	746.500000
784.771057	743.300000
784.807434	749.900000
784.843811	756.700000
784.880127	747.300000
784.916504	764.600000
784.952881	766.200000
784.989197	754.500000
785.025574	750.000000
785.061951	750.300000
785.098267	767.800000
785.134644	756.300000
785.170959	753.900000
785.207275	760.500000
785.243652	760.800000
785.279968	745.400000
785.316345	752.300000
785.352722	765.600000
785.388977	765.500000
785.425354	752.200000
785.461731	742.300000
785.498047	742.500000
785.534363	738.200000
785.570679	744.100000
785.606995	748.000000
785.643372	758.200000
785.679687	754.000000
785.716003	741.300000
785.752380	743.800000
785.788635	749.900000
785.825012	770.400000
785.861328	783.700000
785.897644	772.500000
785.933960	793.100000
785.970337	794.700000
786.006592	811.000000
786.042908	815.400000
786.079285	823.300000
786.115540	833.800000
786.151855	832.500000
786.188171	829.500000
786.224487	828.500000
786.260803	820.500000
786.297119	827.300000
786.333435	821.100000
786.369751	815.800000
786.406006	812.300000
786.442322	796.400000
786.478638	786.900000
786.514954	799.000000
786.551270	798.200000
786.587585	808.800000
786.623840	794.100000
786.660156	790.500000
786.696472	773.800000
786.732727	771.900000
786.769043	776.500000
786.805298	772.900000
786.841614	775.100000
786.877930	789.400000
786.914124	775.900000
786.950439	799.300000
786.986755	805.600000
787.023010	819.700000
787.059326	826.800000
787.095642	826.300000
787.131836	842.400000
787.168152	834.900000
787.204468	840.800000
787.240723	854.100000
787.276978	860.900000
787.313293	868.500000
787.349548	861.800000
787.385803	865.200000
787.422058	848.700000
787.458313	846.100000
787.494629	846.600000
787.530823	842.500000
787.567139	832.000000
787.603455	821.500000
787.639648	812.000000
787.675903	813.300000
787.712219	813.300000
787.748413	812.900000
787.784729	825.600000
787.820984	808.700000
787.857178	807.300000
787.893494	799.300000
787.929749	798.700000
787.965942	808.500000
788.002258	828.900000
788.038452	835.300000
788.074707	830.900000
788.110962	842.700000
788.147217	840.600000
788.183472	854.000000
788.219727	862.800000
788.255920	885.300000
788.292175	893.600000
788.328430	891.500000
788.364624	875.900000
788.400879	867.200000
788.437134	874.200000
788.473328	873.500000
788.509583	874.800000
788.545837	869.100000
788.582031	868.600000
788.618286	859.000000
788.654480	851.500000
788.690735	863.000000
788.726990	885.800000
788.763184	882.400000
788.799377	895.500000
788.835632	886.000000
788.871826	900.800000
788.908081	898.300000
788.944336	892.200000
788.980469	910.000000
789.016724	903.700000
789.052979	901.700000
789.089111	887.300000
789.125366	898.800000
789.161621	878.000000
789.197754	893.300000
789.234009	890.800000
789.270142	886.200000
789.306396	880.200000
789.342590	873.100000
789.378784	847.500000
789.414978	849.900000
789.451233	863.600000
789.487366	865.600000
789.523621	873.900000
789.559814	863.900000
789.595947	855.500000
789.632202	864.800000
789.668335	873.900000
789.704529	887.300000
789.740784	907.600000
789.776917	911.000000
789.813110	900.400000
789.849304	918.500000
789.885498	917.000000
789.921692	931.100000
789.957886	940.400000
789.994019	942.200000
790.030212	943.200000
790.066406	951.600000
790.102539	945.100000
790.138733	950.800000
790.174927	943.700000
790.211060	957.600000
790.247253	949.900000
790.283386	938.600000
790.319580	925.500000
790.355774	911.000000
790.391907	911.800000
790.428101	931.500000
790.464294	929.900000
790.500427	929.000000
790.536621	905.700000
790.572754	892.300000
790.608887	890.200000
790.645081	896.100000
790.681274	911.600000
790.717346	921.400000
790.753540	903.900000
790.789734	882.700000
790.825867	871.500000
790.862000	876.200000
790.898132	888.900000
790.934265	884.500000
790.970459	886.300000
791.006592	888.500000
791.042725	882.700000
791.078918	877.100000
791.114990	866.200000
791.151184	873.800000
791.187317	891.500000
791.223389	884.400000
791.259583	873.300000
791.295715	868.900000
791.331848	876.200000
791.367981	882.400000
791.404114	890.300000
791.440247	893.800000
791.476379	901.900000
791.512451	883.300000
791.548584	882.500000
791.584778	871.600000
791.620850	886.200000
791.656982	895.000000
791.693115	898.400000
791.729187	896.800000
791.765381	891.900000
791.801514	887.400000
791.837585	889.400000
791.873718	899.400000
791.909851	909.300000
791.945923	921.500000
791.982056	884.400000
792.018188	881.900000
792.054260	881.500000
792.090393	878.500000
792.126465	873.600000
792.162598	888.100000
792.198669	872.200000
792.234741	865.600000
792.270874	859.700000
792.307007	841.400000
792.343079	848.600000
792.379150	858.600000
792.415283	851.200000
792.451355	847.600000
792.487488	826.400000
792.523560	824.900000
792.559631	814.900000
792.595764	777.300000
792.631836	747.900000
792.667908	727.800000
792.703979	704.900000
792.740051	721.000000
792.776184	746.500000
792.812256	750.800000
792.848328	758.800000
792.884399	769.400000
792.920471	771.000000
792.956543	766.600000
792.992615	772.800000
793.028748	765.000000
793.064758	770.200000
793.100830	787.800000
793.136963	804.600000
793.172974	804.200000
793.209045	792.500000
793.245178	804.900000
793.281189	786.400000
793.317261	794.200000
793.353271	793.900000
793.389404	806.500000
793.425476	802.500000
793.461487	788.500000
793.497559	783.600000
793.533630	785.800000
793.569641	780.600000
793.605713	782.000000
793.641785	789.400000
793.677795	798.300000
793.713867	790.500000
793.749878	794.900000
793.785950	803.500000
793.822021	811.100000
793.858032	792.700000
793.894104	808.900000
793.930176	796.000000
793.966187	802.200000
794.002258	788.400000
794.038269	793.500000
794.074280	794.300000
794.110352	814.800000
794.146423	799.100000
794.182373	795.100000
794.218445	792.300000
794.254517	787.700000
794.290466	772.600000
794.326538	778.400000
794.362549	783.800000
794.398560	791.000000
794.434631	791.200000
794.470581	772.000000
794.506653	768.400000
794.542664	772.400000
794.578674	770.300000
794.614685	776.900000
794.650757	772.600000
794.686707	773.600000
794.722778	768.900000
794.758789	773.000000
794.794739	778.400000
794.830811	800.300000
794.866821	822.700000
794.902771	817.500000
794.938843	813.800000
794.974792	811.100000
795.010803	812.800000
795.046814	814.300000
795.082825	803.700000
795.118835	816.500000
795.154846	801.600000
795.190796	803.100000
795.226807	783.700000
795.262817	792.200000
795.298767	791.200000
795.334778	800.200000
795.370850	787.500000
795.406799	793.800000
795.442810	779.100000
795.478821	778.600000
795.514709	774.600000
795.550720	797.800000
795.586670	776.500000
795.622681	782.900000
795.658691	779.800000
795.694641	784.300000
795.730652	770.600000
795.766663	782.700000
795.802551	785.500000
795.838562	801.800000
795.874573	787.700000
795.910522	787.600000
795.946472	779.700000
795.982483	780.400000
796.018433	780.200000
796.054382	789.700000
796.090393	782.300000
796.126282	774.400000
796.162292	769.300000
796.198242	764.800000
796.234192	765.000000
796.270203	760.700000
796.306091	764.400000
796.342041	778.300000
796.378052	765.700000
796.413940	764.300000
796.449951	768.500000
796.485901	769.000000
796.521790	771.500000
796.557800	786.600000
796.593689	788.800000
796.629639	778.300000
796.665649	776.300000
796.701599	773.000000
796.737488	767.700000
796.773437	771.300000
796.809387	768.900000
796.845337	778.400000
796.881287	770.600000
796.917175	757.300000
796.953125	756.200000
796.989075	766.000000
797.024963	770.900000
797.060913	765.900000
797.096863	765.600000
797.132751	759.800000
797.168701	749.100000
797.204590	749.600000
797.240540	752.200000
797.276489	763.100000
797.312439	764.300000
797.348328	769.100000
797.384277	754.300000
797.420166	745.700000
797.456055	746.600000
797.492004	738.500000
797.527893	748.200000
797.563843	755.300000
797.599731	740.900000
797.635620	734.300000
797.671570	742.500000
797.707520	739.600000
797.743347	739.000000
797.779297	747.800000
797.815125	743.900000
797.851074	732.400000
797.887024	726.600000
797.922913	718.700000
797.958801	727.100000
797.994690	723.100000
798.030579	731.500000
798.066467	735.900000
798.102356	726.400000
798.138245	718.600000
798.174133	715.500000
798.210083	723.100000
798.245911	733.400000
798.281799	736.100000
798.317749	729.700000
798.353577	724.200000
798.389465	719.700000
798.425293	714.600000
798.461243	715.400000
798.497131	724.000000
798.532959	725.400000
798.568848	733.200000
798.604736	720.600000
798.640564	705.500000
798.676453	707.700000
798.712402	709.700000
798.748230	715.700000
798.784119	713.900000
798.820007	714.700000
798.855835	706.900000
798.891724	703.800000
798.927551	696.900000
798.963379	703.000000
798.999268	700.800000
799.035095	694.300000
799.070984	689.700000
799.106873	680.300000
799.142700	684.900000
799.178528	678.400000
799.214417	677.100000
799.250244	691.500000
799.286133	685.200000
799.321960	689.700000
799.357788	681.500000
799.393677	680.200000
799.429504	674.100000
799.465332	677.700000
799.501221	682.900000
799.537048	680.500000
799.572876	677.900000
799.608704	675.900000
799.644531	680.400000
799.680359	680.200000
799.716248	692.400000
799.752014	699.100000
799.787903	687.500000
799.823730	682.800000
799.859558	676.100000
799.895386	676.200000
799.931213	677.500000
799.967041	670.200000
800.002869	673.500000
800.038696	688.900000
800.074463	667.400000
800.110352	675.200000
800.146179	663.800000
800.181946	671.600000
800.217773	673.100000
800.253540	673.500000
800.289429	668.200000
800.325256	662.900000
800.361023	652.900000
800.396851	658.400000
800.432678	661.600000
800.468445	662.400000
800.504272	663.400000
800.540100	645.300000
800.575867	649.000000
800.611694	652.600000
800.647461	647.500000
800.683289	649.200000
800.719116	655.200000
800.754883	650.300000
800.790649	636.000000
800.826477	631.700000
800.862244	652.200000
800.898071	638.700000
800.933838	645.100000
800.969604	638.900000
801.005432	639.400000
801.041199	638.900000
801.076965	632.700000
801.112793	620.600000
801.148560	617.200000
801.184326	617.800000
801.220154	623.200000
801.255859	612.300000
801.291687	615.500000
801.327454	609.400000
801.363281	615.700000
801.398987	609.900000
801.434814	611.100000
801.470520	619.700000
801.506287	606.500000
801.542114	599.800000
801.577820	605.600000
801.613647	603.100000
801.649414	598.600000
801.685120	604.700000
801.720886	611.300000
801.756714	602.100000
801.792419	592.900000
801.828186	586.200000
801.863892	596.500000
801.899719	586.500000
801.935486	585.700000
801.971252	595.100000
802.006958	588.700000
802.042725	583.400000
802.078430	581.400000
802.114197	581.200000
802.149963	597.600000
802.185669	583.800000
802.221436	583.100000
802.257202	584.300000
802.292908	577.000000
802.328674	586.100000
802.364441	587.300000
802.400146	586.600000
802.435913	585.800000
802.471558	582.900000
802.507324	578.600000
802.543091	571.000000
802.578796	587.300000
802.614502	582.800000
802.650269	590.000000
802.685974	571.600000
802.721741	575.300000
802.757446	581.900000
802.793152	576.700000
802.828918	589.800000
802.864624	583.800000
802.900330	583.500000
802.936035	582.000000
802.971802	579.100000
803.007446	575.200000
803.043213	566.000000
803.078857	572.800000
803.114624	562.600000
803.150330	567.600000
803.185974	558.700000
803.221741	560.300000
803.257446	570.500000
803.293152	572.800000
803.328857	569.900000
803.364563	564.400000
803.400208	559.500000
803.435974	564.100000
803.471680	557.200000
803.507324	553.100000
803.543030	559.900000
803.578735	566.500000
803.614441	556.800000
803.650146	568.200000
803.685791	556.400000
803.721497	557.200000
803.757202	545.100000
803.792847	557.600000
803.828552	549.300000
803.864258	546.700000
803.899902	543.900000
803.935608	529.700000
803.971313	534.400000
804.006958	537.200000
804.042664	532.000000
804.078308	544.100000
804.113953	531.200000
804.149658	539.300000
804.185364	529.700000
804.221008	538.800000
804.256714	528.900000
804.292297	524.700000
804.328003	524.700000
804.363708	520.000000
804.399292	519.700000
804.434998	519.100000
804.470703	513.900000
804.506287	529.100000
804.541992	517.900000
804.577637	523.800000
804.613281	511.500000
804.648926	506.700000
804.684570	508.000000
804.720215	503.600000
804.755920	503.400000
804.791565	501.700000
804.827209	510.000000
804.862854	508.400000
804.898437	499.400000
804.934143	499.300000
804.969788	497.300000
805.005371	499.800000
805.041077	502.000000
805.076721	501.400000
805.112305	491.000000
805.147949	491.100000
805.183655	486.500000
805.219238	489.200000
805.254883	489.900000
805.290466	494.100000
805.326111	488.300000
805.361755	482.900000
805.397400	485.600000
805.432983	486.000000
805.468628	484.400000
805.504211	490.700000
805.539856	487.800000
805.575500	489.200000
805.611084	482.200000
805.646729	470.300000
805.682373	474.400000
805.717957	483.800000
805.753601	484.200000
805.789246	467.200000
805.824768	481.800000
805.860413	483.800000
805.895996	472.400000
805.931641	472.700000
805.967224	479.700000
806.002869	473.200000
806.038452	482.300000
806.074036	481.200000
806.109619	467.900000
806.145264	470.000000
806.180847	467.500000
806.216431	466.500000
806.252014	467.800000
806.287659	470.800000
806.323181	477.800000
806.358826	469.800000
806.394409	453.500000
806.429993	456.900000
806.465576	471.800000
806.501160	454.600000
806.536743	448.800000
806.572327	459.900000
806.607910	456.400000
806.643494	456.100000
806.679077	450.900000
806.714661	449.600000
806.750244	454.700000
806.785828	445.600000
806.821350	449.100000
806.856934	453.700000
806.892517	449.800000
806.928101	442.000000
806.963684	445.100000
806.999268	455.900000
807.034790	436.500000
807.070374	440.200000
807.105896	436.800000
807.141479	433.800000
807.177063	442.800000
807.212585	432.500000
807.248169	433.500000
807.283752	438.900000
807.319275	434.800000
807.354858	436.500000
807.390381	431.400000
807.425903	432.100000
807.461487	426.600000
807.497070	422.300000
807.532593	426.500000
807.568115	421.600000
807.603699	419.100000
807.639221	415.200000
807.674744	421.500000
807.710266	426.100000
807.745850	427.000000
807.781372	421.300000
807.816895	418.600000
807.852417	420.700000
807.888000	416.300000
807.923523	411.900000
807.959045	418.200000
807.994629	406.800000
808.030090	407.500000
808.065613	414.000000
808.101135	416.000000
808.136658	414.000000
808.172241	410.100000
808.207764	410.600000
808.243225	405.700000
808.278809	403.300000
808.314270	412.800000
808.349792	396.700000
808.385315	398.300000
808.420837	405.600000
808.456360	408.800000
808.491882	410.300000
808.527344	401.600000
808.562866	412.300000
808.598389	404.200000
808.633850	398.800000
808.669434	394.500000
808.704895	404.800000
808.740417	407.300000
808.775940	400.100000
808.811462	396.600000
808.846924	393.100000
808.882385	388.700000
808.917847	390.100000
808.953369	391.700000
808.988892	386.600000
809.024353	397.500000
809.059875	395.800000
809.095398	390.600000
809.130798	383.000000
809.166321	382.600000
809.201843	384.500000
809.237305	385.800000
809.272766	395.300000
809.308228	378.800000
809.343750	379.800000
809.379211	384.600000
809.414734	383.400000
809.450134	390.600000
809.485657	375.000000
809.521118	383.400000
809.556580	380.000000
809.592102	378.100000
809.627502	376.500000
809.663025	376.000000
809.698486	372.300000
809.733887	366.900000
809.769409	373.500000
809.804871	364.600000
809.840271	368.600000
809.875793	369.500000
809.911194	372.100000
809.946655	364.700000
809.982178	363.900000
810.017639	365.900000
810.053040	363.500000
810.088501	361.800000
810.123901	361.600000
810.159424	359.000000
810.194885	354.200000
810.230286	358.600000
810.265747	351.900000
810.301208	348.600000
810.336609	351.700000
810.372070	344.700000
810.407532	347.700000
810.442932	351.300000
810.478394	352.600000
810.513794	349.700000
810.549255	348.500000
810.584717	345.000000
810.620117	340.100000
810.655518	345.900000
810.690979	344.700000
810.726379	343.700000
810.761841	334.100000
810.797302	332.300000
810.832642	331.900000
810.868103	343.200000
810.903564	334.800000
810.938904	341.400000
810.974365	330.000000
811.009827	334.200000
811.045166	329.900000
811.080627	322.200000
811.115967	328.100000
811.151428	334.900000
811.186829	326.500000
811.222229	326.700000
811.257629	322.900000
811.293091	327.100000
811.328430	335.400000
811.363892	329.900000
811.399292	332.200000
811.434631	324.600000
811.470093	330.800000
811.505493	322.200000
811.540833	322.100000
811.576294	328.400000
811.611694	322.600000
811.647034	316.700000
811.682434	321.300000
811.717773	322.100000
811.753235	328.300000
811.788635	320.100000
811.823975	322.600000
811.859375	329.600000
811.894775	315.600000
811.930115	317.000000
811.965515	318.200000
812.000916	321.100000
812.036255	314.300000
812.071655	318.500000
812.106995	311.900000
812.142395	313.600000
812.177795	319.800000
812.213196	317.300000
812.248474	318.500000
812.283875	308.100000
812.319214	313.700000
812.354614	313.300000
812.390015	309.600000
812.425293	310.700000
812.460693	311.900000
812.496094	306.700000
812.531433	301.400000
812.566772	303.200000
812.602173	305.000000
812.637451	306.600000
812.672852	302.300000
812.708191	305.000000
812.743530	298.200000
812.778931	292.600000
812.814270	296.000000
812.849609	304.000000
812.884949	297.700000
812.920227	292.800000
812.955627	306.500000
812.990967	300.000000
813.026306	295.900000
813.061646	284.300000
813.096985	282.600000
813.132324	279.900000
813.167664	284.500000
813.203003	290.800000
813.238281	277.000000
813.273682	277.600000
813.308960	276.500000
813.344299	277.800000
813.379639	285.400000
813.414978	279.700000
813.450256	280.700000
813.485596	281.100000
813.520874	274.800000
813.556213	278.100000
813.591614	281.700000
813.626831	273.200000
813.662170	276.400000
813.697510	287.800000
813.732788	270.300000
813.768127	276.200000
813.803467	276.500000
813.838745	271.500000
813.874084	275.500000
813.909363	274.000000
813.944641	273.900000
813.979980	265.700000
814.015320	270.100000
814.050598	267.300000
814.085876	271.900000
814.121155	268.300000
814.156494	266.600000
814.191772	268.100000
814.227051	266.100000
814.262390	265.200000
814.297668	265.900000
814.332947	267.700000
814.368225	260.500000
814.403564	265.800000
814.438782	260.200000
814.474121	261.800000
814.509338	258.800000
814.544617	269.300000
814.579956	260.000000
814.615173	270.600000
814.650513	265.800000
814.685791	258.300000
814.721008	261.400000
814.756348	261.000000
814.791626	256.400000
814.826843	257.400000
814.862122	256.400000
814.897400	254.600000
814.932678	258.400000
814.967957	258.000000
815.003235	255.900000
815.038452	248.000000
815.073730	250.300000
815.108948	259.500000
815.144226	256.500000
815.179504	261.800000
815.214722	247.500000
815.250000	244.600000
815.285278	252.800000
815.320496	245.600000
815.355774	249.200000
815.391052	252.900000
815.426270	249.000000
815.461487	248.700000
815.496765	244.800000
815.531982	240.700000
815.567261	246.500000
815.602539	253.300000
815.637695	249.000000
815.672974	249.400000
815.708191	251.200000
815.743408	250.600000
815.778687	244.100000
815.813904	254.100000
815.849121	236.700000
815.884399	239.300000
815.919556	240.000000
815.954834	239.900000
815.990051	245.300000
816.025269	246.500000
816.060486	237.300000
816.095703	237.200000
816.130920	240.900000
816.166199	237.700000
816.201416	242.900000
816.236572	245.600000
816.271851	236.600000
816.307007	244.100000
816.342224	232.700000
816.377441	236.400000
816.412659	229.400000
816.447876	239.900000
816.483093	236.000000
816.518250	235.200000
816.553467	232.800000
816.588745	237.600000
816.623901	230.500000
816.659119	225.700000
816.694275	231.000000
816.729492	227.200000
816.764709	262.300000
816.799927	225.100000
816.835083	230.500000
816.870300	223.000000
816.905457	227.700000
816.940674	229.300000
816.975830	223.600000
817.010986	221.800000
817.046204	222.300000
817.081421	221.700000
817.116577	221.600000
817.151733	230.100000
817.186951	227.800000
817.222107	225.200000
817.257324	227.800000
817.292419	225.200000
817.327637	217.700000
817.362854	223.800000
817.398010	217.200000
817.433167	220.400000
817.468323	217.800000
817.503479	220.100000
817.538635	228.100000
817.573853	223.100000
817.608948	221.400000
817.644165	216.700000
817.679321	217.100000
817.714478	215.800000
817.749634	219.000000
817.784790	228.500000
817.819946	225.200000
817.855103	208.500000
817.890198	217.700000
817.925415	208.700000
817.960571	219.000000
817.995667	216.900000
818.030823	218.500000
818.066040	213.600000
818.101135	215.400000
818.136292	213.900000
818.171448	209.600000
818.206543	212.900000
818.241699	217.900000
818.276855	214.400000
818.311951	213.000000
818.347107	208.500000
818.382263	215.600000
818.417358	219.400000
818.452515	219.200000
818.487610	220.100000
818.522766	208.800000
818.557922	219.800000
818.593018	217.000000
818.628113	213.900000
818.663269	208.400000
818.698364	211.600000
818.733521	206.800000
818.768677	212.700000
818.803711	206.800000
818.838867	207.300000
818.874023	209.100000
818.909058	206.800000
818.944214	204.800000
818.979370	211.000000
819.014404	210.300000
819.049561	205.100000
819.084595	210.300000
819.119751	201.600000
819.154846	210.200000
819.189941	206.000000
819.225037	202.700000
819.260193	196.600000
819.295227	201.500000
819.330322	195.100000
819.365479	195.600000
819.400513	228.500000
819.435608	194.500000
819.470764	192.300000
819.505798	196.300000
819.540894	197.900000
819.575989	197.300000
819.611084	205.000000
819.646179	206.600000
819.681213	201.000000
819.716309	199.700000
819.751404	197.400000
819.786438	204.100000
819.821533	195.400000
819.856628	200.300000
819.891663	203.400000
819.926758	209.500000
819.961853	204.700000
819.996887	195.700000
820.031982	201.900000
820.067017	198.400000
820.102112	227.500000
820.137207	195.300000
820.172302	213.000000
820.207275	195.000000
820.242371	195.600000
820.277405	194.200000
820.312500	196.300000
820.347534	199.000000
820.382568	203.800000
820.417664	194.300000
820.452759	195.700000
820.487732	192.600000
820.522827	194.200000
820.557861	192.600000
820.592896	193.500000
820.627930	193.700000
820.662964	193.000000
820.698059	196.700000
820.733093	193.500000
820.768127	197.900000
820.803162	194.500000
820.838196	191.800000
820.873230	196.200000
820.908264	195.500000
820.943298	190.900000
820.978333	199.300000
821.013367	195.100000
821.048401	198.400000
821.083435	200.700000
821.118469	186.600000
821.153503	198.600000
821.188477	195.100000
821.223511	187.200000
821.258484	194.100000
821.293579	196.000000
821.328613	186.900000
821.363647	192.900000
821.398621	188.700000
821.433655	189.200000
821.468628	206.000000
821.503662	191.900000
821.538696	196.200000
821.573669	188.100000
821.608704	195.900000
821.643677	190.200000
821.678650	196.700000
821.713684	201.800000
821.748718	191.900000
821.783691	192.800000
821.818726	194.600000
821.853638	194.700000
821.888672	191.200000
821.923706	192.800000
821.958618	189.800000
821.993652	190.200000
822.028687	197.900000
822.063599	198.400000
822.098633	195.700000
822.133667	189.100000
822.168579	192.600000
822.203613	194.500000
822.238586	189.700000
822.273560	195.100000
822.308533	189.000000
822.343567	188.500000
822.378479	191.200000
822.413452	190.800000
822.448425	188.400000
822.483398	196.900000
822.518372	197.100000
822.553345	189.000000
822.588318	199.800000
822.623291	190.700000
822.658203	189.000000
822.693237	190.900000
822.728210	187.700000
822.763123	192.800000
822.798096	187.500000
822.833069	192.200000
822.867981	192.300000
822.902954	191.500000
822.937927	194.600000
822.972900	202.600000
823.007874	184.900000
823.042725	196.900000
823.077698	203.400000
823.112671	186.700000
823.147583	190.400000
823.182556	194.900000
823.217529	196.900000
823.252441	189.000000
823.287415	205.300000
823.322388	193.700000
823.357239	190.000000
823.392212	199.700000
823.427185	197.100000
823.462097	186.800000
823.497009	195.000000
823.531982	189.100000
823.566895	191.900000
823.601807	186.200000
823.636719	191.600000
823.671631	194.800000
823.706604	189.700000
823.741455	195.400000
823.776428	186.400000
823.811340	194.600000
823.846252	198.500000
823.881165	199.000000
823.916138	192.100000
823.950989	200.600000
823.985901	189.200000
824.020813	193.100000
824.055725	189.500000
824.090637	186.600000
824.125610	192.900000
824.160461	192.800000
824.195374	194.200000
824.230225	197.200000
824.265198	185.600000
824.300110	188.300000
824.334961	202.500000
824.369873	182.900000
824.404785	193.700000
824.439636	197.700000
824.474548	184.000000
824.509460	180.900000
824.544312	196.400000
824.579224	195.000000
824.614075	194.200000
824.648987	189.900000
824.683899	190.400000
824.718811	187.900000
824.753662	198.800000
824.788574	195.700000
824.823364	191.700000
824.858276	187.600000
824.893188	194.300000
824.928040	197.400000
824.962952	194.100000
824.997803	195.200000
825.032654	192.400000
825.067566	195.300000
825.102417	188.600000
825.137268	190.000000
825.172119	191.700000
825.206970	187.900000
825.241882	188.800000
825.276733	188.100000
825.311646	186.400000
825.346436	184.800000
825.381348	184.900000
825.416138	191.900000
825.450989	185.100000
825.485901	181.100000
825.520691	181.700000
825.555542	182.800000
825.590454	188.800000
825.625244	182.400000
825.660095	194.400000
825.695007	192.700000
825.729797	189.200000
825.764648	184.500000
825.799438	189.000000
825.834290	189.700000
825.869202	181.700000
825.903992	188.500000
825.938843	184.700000
825.973694	183.000000
826.008484	201.100000
826.043335	184.000000
826.078186	179.400000
826.112976	194.200000
826.147827	193.600000
826.182678	197.100000
826.217468	181.100000
826.252319	192.800000
826.287109	183.100000
826.321899	194.600000
826.356750	186.800000
826.391541	182.400000
826.426392	192.400000
826.461182	186.700000
826.495972	181.200000
826.530823	177.400000
826.565613	188.100000
826.600403	181.100000
826.635254	190.200000
826.670044	178.600000
826.704834	179.800000
826.739685	181.900000
826.774475	188.200000
826.809265	186.300000
826.844055	183.800000
826.878906	192.900000
826.913635	187.800000
826.948425	189.700000
826.983215	188.000000
827.018005	192.200000
827.052856	184.800000
827.087585	190.200000
827.122375	179.200000
827.157227	187.400000
827.191956	198.900000
827.226746	182.000000
827.261536	191.100000
827.296265	179.600000
827.331116	184.900000
827.365906	191.400000
827.400635	182.900000
827.435425	178.800000
827.470215	192.600000
827.504944	185.600000
827.539734	190.400000
827.574463	187.000000
827.609253	194.200000
827.644043	186.400000
827.678772	191.400000
827.713562	184.300000
827.748352	184.400000
827.783081	183.600000
827.817871	186.700000
827.852600	183.100000
827.887329	186.200000
827.922119	178.300000
827.956848	188.300000
827.991638	200.200000
828.026367	187.200000
828.061157	188.000000
828.095886	187.000000
828.130615	201.900000
828.165344	178.200000
828.200073	186.400000
828.234863	184.900000
828.269592	185.900000
828.304321	190.700000
828.339111	188.900000
828.373779	181.300000
828.408569	191.900000
828.443298	191.900000
828.477966	184.200000
828.512756	187.500000
828.547424	182.600000
828.582214	182.900000
828.616943	186.400000
828.651672	183.800000
828.686340	190.000000
828.721130	184.200000
828.755798	186.500000
828.790527	186.700000
828.825256	186.900000
828.859924	187.000000
828.894714	192.100000
828.929443	194.900000
828.964111	182.400000
828.998840	189.900000
829.033569	183.000000
829.068237	184.800000
829.102966	184.000000
829.137634	188.100000
829.172363	188.200000
829.207092	188.200000
829.241821	183.600000
829.276489	178.400000
829.311157	185.900000
829.345825	184.700000
829.380554	191.000000
829.415283	183.000000
829.449951	179.700000
829.484619	194.300000
829.519348	194.100000
829.554016	186.800000
829.588745	185.900000
829.623413	180.600000
829.658081	196.600000
829.692749	181.400000
829.727417	191.300000
829.762146	188.400000
829.796814	183.100000
829.831482	185.200000
829.866150	186.000000
829.900879	183.300000
829.935486	189.100000
829.970154	183.500000
830.004883	195.600000
830.039490	187.600000
830.074219	182.900000
830.108887	188.800000
830.143494	186.700000
830.178223	182.000000
830.212891	185.200000
830.247498	188.100000
830.282166	194.200000
830.316772	193.000000
830.351501	184.600000
830.386169	186.200000
830.420776	183.900000
830.455444	186.800000
830.490112	183.300000
830.524719	178.300000
830.559387	188.800000
830.594055	189.500000
830.628662	186.000000
830.663330	186.500000
830.697998	195.300000
830.732605	186.200000
830.767273	188.900000
830.801941	185.200000
830.836487	196.900000
830.871155	189.300000
830.905762	187.900000
830.940430	180.200000
830.975098	183.700000
831.009644	186.300000
831.044312	194.000000
831.078979	188.400000
831.113525	179.300000
831.148193	188.100000
831.182861	185.100000
831.217407	189.400000
831.252075	203.800000
831.286621	183.200000
831.321289	182.900000
831.355896	185.100000
831.390564	193.600000
831.425110	187.100000
831.459778	193.100000
831.494324	198.500000
831.528931	190.200000
831.563599	191.000000
831.598145	180.400000
831.632751	186.100000
831.667419	186.300000
831.701965	187.800000
831.736572	190.600000
831.771179	179.700000
831.805786	183.700000
831.840393	192.000000
831.874939	179.500000
831.909546	189.700000
831.944153	179.700000
831.978760	186.000000
832.013306	182.100000
832.047913	191.300000
832.082458	194.600000
832.117065	182.700000
832.151672	196.300000
832.186218	186.300000
832.220825	188.600000
832.255432	177.700000
832.289978	183.400000
832.324585	187.800000
832.359192	188.200000
832.393677	183.200000
832.428284	186.500000
832.462830	185.500000
832.497437	184.800000
832.531982	190.300000
832.566589	185.400000
832.601135	187.400000
832.635681	178.000000
832.670227	185.900000
832.704773	194.800000
832.739380	188.500000
832.773926	187.900000
832.808472	183.500000
832.843079	186.400000
832.877563	189.900000
832.912170	182.700000
832.946716	179.700000
832.981201	193.000000
833.015808	190.500000
833.050293	185.700000
833.084839	183.700000
833.119446	184.500000
833.153992	189.200000
833.188477	185.000000
833.223022	183.300000
833.257568	187.500000
833.292114	192.400000
833.326660	197.000000
833.361145	185.300000
833.395691	178.900000
833.430237	186.400000
833.464783	189.100000
833.499329	183.400000
833.533875	180.300000
833.568359	189.100000
833.602905	192.400000
833.637390	191.800000
833.671875	184.500000
833.706421	186.200000
833.740906	183.000000
833.775452	176.900000
833.809998	183.600000
833.844482	193.400000
833.879028	184.300000
833.913513	185.100000
833.947998	188.000000
833.982544	182.500000
834.017090	183.700000
834.051514	175.300000
834.086060	189.200000
834.120544	186.100000
834.155029	188.100000
834.189575	184.200000
834.223999	188.300000
834.258545	187.500000
834.293030	187.000000
834.327515	186.800000
834.362000	183.600000
834.396545	190.000000
834.430969	185.700000
834.465454	190.500000
834.500000	179.400000
834.534424	187.900000
834.568970	178.300000
834.603455	178.100000
834.637878	182.700000
834.672363	188.200000
834.706909	186.400000
834.741333	185.800000
834.775818	179.300000
834.810242	182.400000
834.844727	187.400000
834.879211	184.500000
834.913635	188.000000
834.948181	186.600000
834.982666	187.600000
835.017090	184.900000
835.051575	188.800000
835.086060	182.900000
835.120483	190.800000
835.154907	190.500000
835.189331	186.500000
835.223816	188.800000
835.258301	180.600000
835.292786	181.700000
835.327209	190.900000
835.361694	182.700000
835.396057	184.700000
835.430542	189.200000
835.465027	186.900000
835.499390	181.100000
835.533875	207.700000
835.568359	182.200000
835.602722	178.500000
835.637207	187.400000
835.671692	180.900000
835.706055	203.200000
835.740540	188.400000
835.774902	189.300000
835.809387	186.900000
835.843811	180.000000
835.878235	193.300000
835.912659	180.200000
835.947083	183.400000
835.981506	185.800000
836.015930	178.700000
836.050354	191.200000
836.084778	195.600000
836.119202	191.000000
836.153625	198.100000
836.187988	182.600000
836.222473	183.100000
836.256897	187.800000
836.291260	186.100000
836.325684	188.300000
836.360046	183.700000
836.394470	185.500000
836.428894	193.300000
836.463318	183.100000
836.497681	188.900000
836.532104	193.700000
836.566467	187.600000
836.600891	184.900000
836.635315	191.000000
836.669678	189.300000
836.704102	190.600000
836.738525	188.100000
836.772888	177.700000
836.807251	184.500000
836.841675	189.700000
836.876038	181.400000
836.910461	182.300000
836.944763	190.500000
836.979187	181.300000
837.013611	193.100000
837.047974	178.700000
837.082336	197.300000
837.116699	190.100000
837.151062	185.800000
837.185486	180.700000
837.219849	185.300000
837.254211	190.600000
837.288574	185.500000
837.322937	179.800000
837.357300	175.800000
837.391663	199.200000
837.426086	191.200000
837.460388	187.600000
837.494751	191.900000
837.529114	185.700000
837.563477	193.100000
837.597839	187.500000
837.632141	186.000000
837.666565	183.200000
837.700928	188.500000
837.735229	189.000000
837.769592	189.400000
837.803955	191.300000
837.838257	184.400000
837.872620	182.500000
837.906982	192.800000
837.941284	186.300000
837.975647	187.600000
838.010010	193.100000
838.044312	185.200000
838.078674	184.300000
838.112976	186.300000
838.147339	191.700000
838.181702	186.300000
838.216003	196.000000
838.250366	187.900000
838.284668	190.300000
838.318970	179.300000
838.353333	187.100000
838.387634	184.400000
838.421936	187.700000
838.456299	186.600000
838.490601	193.000000
838.524902	190.700000
838.559265	192.900000
838.593567	189.000000
838.627869	181.100000
838.662170	189.300000
838.696472	180.800000
838.730774	182.100000
838.765137	191.700000
838.799377	172.000000
838.833740	187.600000
838.868042	191.800000
838.902283	178.500000
838.936646	193.000000
838.970947	187.900000
839.005188	192.400000
839.039551	179.300000
839.073792	193.600000
839.108093	184.400000
839.142395	195.900000
839.176697	181.000000
839.210937	187.700000
839.245300	197.000000
839.279541	181.200000
839.313843	185.100000
839.348145	189.900000
839.382385	191.900000
839.416687	190.200000
839.450989	189.800000
839.485229	185.400000
839.519531	182.300000
839.553833	192.300000
839.588013	186.900000
839.622314	187.300000
839.656555	188.300000
839.690857	187.100000
839.725159	180.500000
839.759460	186.100000
839.793640	183.900000
839.827942	186.200000
839.862183	182.400000
839.896423	188.500000
839.930725	196.800000
839.964966	194.800000
839.999207	193.300000
840.033508	194.400000
840.067688	183.900000
840.101990	195.700000
840.136230	186.000000
840.170471	194.700000
840.204712	181.800000
840.238953	182.500000
840.273193	189.500000
840.307434	190.800000
840.341736	181.700000
840.375916	182.700000
840.410217	183.800000
840.444397	190.800000
840.478638	191.100000
840.512878	193.500000
840.547119	188.400000
840.581360	190.300000
840.615601	195.600000
840.649780	196.700000
840.684021	187.300000
840.718262	195.200000
840.752441	192.900000
840.786682	187.200000
840.820862	187.700000
840.855103	194.300000
840.889343	187.500000
840.923584	192.300000
840.957764	189.900000
840.992004	188.500000
841.026184	201.100000
841.060425	186.500000
841.094666	182.600000
841.128845	191.100000
841.163025	188.300000
841.197266	190.600000
841.231445	188.600000
841.265686	188.100000
841.299866	183.000000
841.334045	195.300000
841.368286	185.800000
841.402405	195.200000
841.436646	191.200000
841.470825	185.300000
841.505005	187.000000
841.539185	183.100000
841.573425	183.200000
841.607544	186.800000
841.641785	187.400000
841.675964	181.500000
841.710144	188.700000
841.744324	184.600000
841.778503	186.300000
841.812683	183.300000
841.846863	195.300000
841.881042	193.800000
841.915222	184.400000
841.949402	200.500000
841.983521	180.000000
842.017700	185.400000
842.051880	189.900000
842.086060	188.600000
842.120239	188.500000
842.154419	184.500000
842.188538	188.300000
842.222717	183.700000
842.256897	197.700000
842.291016	186.000000
842.325195	190.500000
842.359375	197.400000
842.393494	195.400000
842.427673	187.400000
842.461853	190.700000
842.495911	195.800000
842.530090	189.100000
842.564209	187.100000
842.598389	190.000000
842.632568	187.900000
842.666626	192.200000
842.700806	183.700000
842.734985	186.500000
842.769043	190.300000
842.803223	186.900000
842.837402	186.000000
842.871460	186.400000
842.905640	197.100000
842.939697	183.500000
842.973877	189.900000
843.007996	193.700000
843.042175	196.900000
843.076233	184.400000
843.110413	189.100000
843.144470	197.600000
843.178589	192.500000
843.212769	184.900000
843.246826	192.500000
843.280945	185.700000
843.315125	186.300000
843.349182	184.800000
843.383301	194.800000
843.417419	200.300000
843.451538	188.600000
843.485657	185.600000
843.519714	187.300000
843.553833	188.900000
843.587952	186.400000
843.622070	182.800000
843.656128	190.500000
843.690247	186.200000
843.724304	185.800000
843.758423	189.700000
843.792542	187.800000
843.826599	187.200000
843.860718	185.700000
843.894836	180.900000
843.928894	189.300000
843.963013	189.400000
843.997070	186.100000
844.031128	180.800000
844.065247	192.900000
844.099304	191.900000
844.133362	189.800000
844.167480	189.900000
844.201599	196.200000
844.235596	190.400000
844.269714	189.700000
844.303711	190.100000
844.337830	179.000000
844.371948	189.800000
844.405945	186.800000
844.440063	182.900000
844.474121	201.200000
844.508118	187.000000
844.542236	187.200000
844.576294	188.200000
844.610352	182.900000
844.644409	187.500000
844.678406	180.300000
844.712524	193.400000
844.746582	193.800000
844.780640	188.300000
844.814636	188.800000
844.848755	198.300000
844.882751	186.800000
844.916809	193.100000
844.950867	189.600000
844.984863	195.000000
845.018921	186.500000
845.052979	186.000000
845.086975	188.100000
845.121033	182.900000
845.155090	183.200000
845.189087	193.800000
845.223145	183.900000
845.257141	188.400000
845.291199	190.700000
845.325256	194.200000
845.359253	188.600000
845.393250	198.200000
845.427307	187.200000
845.461304	189.500000
845.495361	187.700000
845.529358	197.100000
845.563354	186.000000
845.597412	182.500000
845.631409	194.500000
845.665405	195.600000
845.699463	193.000000
845.733459	186.000000
845.767456	195.900000
845.801453	187.300000
845.835449	194.400000
845.869446	193.600000
845.903503	192.400000
845.937439	185.200000
845.971497	194.400000
846.005493	181.900000
846.039429	191.400000
846.073486	197.100000
846.107483	186.800000
846.141418	187.000000
846.175476	187.900000
846.209473	195.100000
846.243408	184.300000
846.277405	190.000000
846.311401	183.400000
846.345337	188.000000
846.379395	193.300000
846.413330	185.700000
846.447327	196.600000
846.481323	184.800000
846.515259	186.900000
846.549255	189.400000
846.583252	190.500000
846.617187	184.400000
846.651184	190.300000
846.685120	186.100000
846.719055	197.000000
846.753052	193.700000
846.786987	192.000000
846.820984	181.700000
846.854980	196.500000
846.888916	184.300000
846.922852	191.100000
846.956848	197.100000
846.990723	183.900000
847.024719	189.100000
847.058716	186.600000
847.092590	195.700000
847.126587	188.600000
847.160522	186.200000
847.194458	192.900000
847.228455	183.800000
847.262390	184.400000
847.296265	186.800000
847.330261	194.500000
847.364136	185.800000
847.398132	185.500000
847.432068	188.600000
847.466003	187.300000
847.499939	186.700000
847.533875	190.900000
847.567749	186.500000
847.601746	187.300000
847.635681	191.600000
847.669556	180.200000
847.703491	194.000000
847.737427	202.600000
847.771301	183.200000
847.805237	191.300000
847.839233	188.900000
847.873108	188.600000
847.907043	186.100000
847.940918	193.700000
847.974854	191.000000
848.008789	192.600000
848.042664	189.100000
848.076538	191.300000
848.110474	188.700000
848.144348	189.500000
848.178284	180.600000
848.212219	188.600000
848.246094	187.400000
848.279968	189.500000
848.313904	191.400000
848.347778	188.200000
848.381653	186.500000
848.415588	184.000000
848.449463	186.800000
848.483337	191.300000
848.517212	194.300000
848.551086	189.200000
848.585022	184.100000
848.618835	196.500000
848.652771	185.700000
848.686646	182.800000
848.720520	195.500000
848.754395	187.500000
848.788330	193.200000
848.822144	192.600000
848.856018	186.900000
848.889954	198.200000
848.923767	185.400000
848.957642	183.900000
848.991577	192.600000
849.025391	186.300000
849.059265	187.400000
849.093079	184.900000
849.126953	183.200000
849.160828	193.900000
849.194641	189.600000
849.228577	184.900000
849.262451	187.300000
849.296265	185.300000
849.330139	183.800000
849.364014	188.100000
849.397827	191.600000
849.431702	188.300000
849.465515	191.800000
849.499329	179.000000
849.533203	182.800000
849.567078	177.800000
849.600891	191.700000
849.634766	187.200000
849.668518	193.100000
849.702393	188.700000
849.736267	181.300000
849.770020	200.600000
849.803894	191.500000
849.837769	189.200000
849.871521	188.000000
849.905396	193.700000
849.939270	184.800000
849.973022	187.100000
850.006897	191.800000
850.040710	191.500000
850.074524	190.600000
850.108337	187.700000
850.142151	193.300000
850.175964	193.800000
850.209778	188.000000
850.243530	176.300000
850.277405	192.700000
850.311218	188.100000
850.344971	185.600000
850.378845	198.500000
850.412659	184.200000
850.446411	190.800000
850.480225	187.500000
850.514038	193.700000
850.547791	191.700000
850.581665	188.800000
850.615417	185.000000
850.649231	190.100000
850.683044	187.200000
850.716858	189.100000
850.750610	189.400000
850.784424	192.300000
850.818176	185.200000
850.851929	187.500000
850.885742	184.900000
850.919495	188.200000
850.953308	195.100000
850.987122	196.900000
851.020874	182.500000
851.054626	181.200000
851.088440	193.000000
851.122192	194.000000
851.156006	188.900000
851.189697	187.200000
851.223511	182.100000
851.257263	192.900000
851.291077	191.200000
851.324829	188.300000
851.358582	186.600000
851.392334	186.800000
851.426086	186.300000
851.459900	197.200000
851.493591	189.400000
851.527344	189.600000
851.561157	187.700000
851.594849	190.200000
851.628662	190.200000
851.662415	197.300000
851.696106	191.600000
851.729858	193.100000
851.763611	183.700000
851.797363	189.200000
851.831116	184.200000
851.864868	191.400000
851.898560	194.600000
851.932312	185.800000
851.966064	190.800000
851.999817	187.300000
852.033569	188.200000
852.067261	192.200000
852.101013	184.800000
852.134766	188.700000
852.168457	178.700000
852.202209	193.100000
852.235901	185.500000
852.269592	191.700000
852.303345	196.800000
852.337036	191.400000
852.370789	188.400000
852.404541	192.200000
852.438171	183.900000
852.471924	187.400000
852.505676	182.600000
852.539307	190.100000
852.573059	185.200000
852.606812	186.200000
852.640442	188.000000
852.674194	194.300000
852.707886	199.400000
852.741577	195.900000
852.775269	184.000000
852.809021	189.400000
852.842651	190.600000
852.876404	193.300000
852.910034	190.200000
852.943787	192.600000
852.977478	193.200000
853.011108	184.500000
853.044861	187.000000
853.078552	195.400000
853.112183	190.400000
853.145874	192.000000
853.179626	180.800000
853.213257	190.700000
853.246948	187.800000
853.280640	196.600000
853.314270	188.900000
853.347961	195.900000
853.381653	192.100000
853.415283	194.200000
853.448975	185.100000
853.482605	188.900000
853.516296	188.400000
853.549988	183.200000
853.583618	190.700000
853.617310	191.100000
853.651001	190.100000
853.684631	183.900000
853.718323	186.000000
853.751953	196.900000
853.785583	179.800000
853.819275	193.800000
853.852966	189.400000
853.886536	179.900000
853.920227	184.500000
853.953918	194.400000
853.987488	185.100000
854.021179	192.100000
854.054749	195.100000
854.088440	191.600000
854.122131	184.100000
854.155701	193.100000
854.189331	185.000000
854.223022	192.700000
854.256592	191.600000
854.290283	185.200000
854.323914	191.300000
854.357483	190.200000
854.391174	190.700000
854.424744	198.100000
854.458374	189.200000
854.492065	199.800000
854.525696	186.800000
854.559265	194.200000
854.592896	199.600000
854.626465	188.200000
854.660095	189.100000
854.693787	190.200000
854.727356	186.800000
854.760986	193.700000
854.794617	190.200000
854.828186	185.900000
854.861816	191.700000
854.895447	190.400000
854.929016	189.000000
854.962585	192.500000
854.996155	197.200000
855.029785	191.700000
855.063416	191.600000
855.097046	193.500000
855.130615	183.600000
855.164185	194.800000
855.197754	189.400000
855.231384	192.500000
855.264954	187.200000
855.298523	191.200000
855.332153	189.400000
855.365723	196.300000
855.399292	184.400000
855.432922	186.800000
855.466492	190.400000
855.500061	184.600000
855.533630	185.700000
855.567200	192.000000
855.600769	193.100000
855.634338	194.000000
855.667969	190.500000
855.701477	184.000000
855.735046	185.100000
855.768616	181.600000
855.802185	190.800000
855.835754	203.500000
855.869324	182.000000
855.902893	187.800000
855.936401	196.200000
855.969971	190.700000
856.003540	182.000000
856.037109	192.400000
856.070618	189.600000
856.104187	183.500000
856.137695	187.200000
856.171265	178.800000
856.204834	188.800000
856.238403	194.000000
856.271912	186.900000
856.305481	190.900000
856.338989	182.900000
856.372559	192.500000
856.406128	190.100000
856.439636	193.300000
856.473145	186.700000
856.506653	196.200000
856.540222	187.100000
856.573792	196.300000
856.607300	192.300000
856.640808	183.900000
856.674377	188.000000
856.707825	217.800000
856.741394	193.100000
856.774902	185.500000
856.808472	180.800000
856.841980	192.000000
856.875488	198.800000
856.908936	181.600000
856.942505	186.600000
856.976013	187.700000
857.009521	184.100000
857.043030	189.900000
857.076477	188.300000
857.110046	194.400000
857.143555	190.600000
857.177063	194.500000
857.210571	186.200000
857.244080	183.800000
857.277527	191.800000
857.311035	189.200000
857.344543	192.700000
857.378052	188.700000
857.411499	193.700000
857.445068	198.800000
857.478516	188.500000
857.512024	183.700000
857.545532	187.500000
857.578979	192.100000
857.612427	188.100000
857.645874	186.400000
857.679382	190.300000
857.712891	193.100000
857.746399	189.600000
857.779846	195.200000
857.813354	192.700000
857.846741	187.900000
857.880249	184.300000
857.913757	190.300000
857.947266	189.700000
857.980652	192.500000
858.014160	186.100000
858.047546	186.700000
858.081055	189.000000
858.114563	198.200000
858.147949	183.400000
858.181458	193.200000
858.214844	188.200000
858.248352	181.600000
858.281799	193.800000
858.315308	203.200000
858.348694	191.500000
858.382141	198.700000
858.415588	192.100000
858.449036	193.800000
858.482483	190.600000
858.515930	185.100000
858.549377	189.600000
858.582825	196.500000
858.616211	193.000000
858.649658	190.500000
858.683105	184.800000
858.716553	186.700000
858.750000	183.700000
858.783386	186.400000
858.816833	181.400000
858.850281	189.200000
858.883728	191.200000
858.917114	188.100000
858.950562	198.200000
858.983948	197.500000
859.017395	193.400000
859.050781	187.000000
859.084167	185.500000
859.117615	182.700000
859.151062	192.900000
859.184448	185.200000
859.217834	187.900000
859.251282	186.500000
859.284668	185.500000
859.318054	180.000000
859.351440	187.400000
859.384888	195.000000
859.418274	181.100000
859.451721	181.600000
859.485046	192.400000
859.518494	189.500000
859.551819	184.400000
859.585266	191.200000
859.618652	192.100000
859.652039	182.000000
859.685425	184.600000
859.718811	182.300000
859.752197	178.900000
859.785583	195.000000
859.819031	195.900000
859.852356	191.400000
859.885742	186.500000
859.919067	187.700000
859.952454	186.900000
859.985901	193.800000
860.019287	185.500000
860.052612	0.000000
860.085999	0.000000
860.119324	0.000000
860.152710	0.000000
860.186096	0.000000
860.219421	0.000000
860.252808	0.000000
860.286133	0.000000
860.319519	0.000000
860.352905	0.000000
860.386292	0.000000
860.419617	0.000000
860.452942	0.000000
860.486267	0.000000
860.519653	0.000000
860.553040	0.000000
860.586365	0.000000
860.619690	0.000000
860.653076	0.000000
860.686340	0.000000
860.719727	0.000000
860.753113	0.000000
860.786377	0.000000
860.819763	0.000000
860.853027	0.000000
860.886414	0.000000
860.919739	0.000000
860.953125	0.000000
860.986389	0.000000
861.019714	0.000000
861.053040	0.000000
861.086365	0.000000
861.119690	0.000000
861.153076	0.000000
861.186340	0.000000
861.219666	0.000000
861.252930	0.000000
861.286316	0.000000
861.319641	0.000000
861.352905	0.000000
861.386230	0.000000
861.419495	0.000000
861.452820	0.000000
861.486145	0.000000
861.519470	0.000000
861.552734	0.000000
861.586060	0.000000
861.619324	0.000000
861.652649	0.000000
861.685974	0.000000
861.719238	0.000000
861.752563	0.000000
861.785828	0.000000
861.819092	0.000000
861.852417	0.000000
861.885742	0.000000
861.918945	0.000000
861.952271	0.000000
861.985535	0.000000
862.018799	0.000000
862.052124	0.000000
862.085449	0.000000
862.118652	0.000000
862.151978	0.000000
862.185181	0.000000
862.218506	0.000000
862.251770	0.000000
862.285034	0.000000
862.318298	0.000000
862.351562	0.000000
862.384827	0.000000
862.418091	0.000000
862.451355	0.000000
862.484619	0.000000
862.517883	0.000000
862.551086	0.000000
862.584351	0.000000
862.617676	0.000000
862.650940	0.000000
862.684143	0.000000
862.717407	0.000000
862.750610	0.000000
862.783875	0.000000
862.817139	0.000000
862.850342	0.000000
862.883606	0.000000
862.916870	0.000000
862.950073	0.000000
862.983337	0.000000
863.016602	0.000000
863.049805	0.000000
863.083069	0.000000
863.116211	0.000000
863.149475	0.000000
863.182739	0.000000
863.216003	0.000000
863.249146	0.000000
863.282410	0.000000
863.315613	0.000000
863.348816	0.000000
863.382080	0.000000
863.415222	0.000000
863.448486	0.000000
863.481689	0.000000
863.514893	0.000000
863.548157	0.000000
863.581360	0.000000
863.614502	0.000000
863.647766	0.000000
863.680908	0.000000
863.714172	0.000000
863.747375	0.000000
863.780579	0.000000
863.813721	0.000000
863.846985	0.000000
863.880127	0.000000
863.913330	0.000000
863.946533	0.000000
863.979675	0.000000
864.012939	0.000000
