Model Number: SPM-001-M   
Serial Number: 10090201
Firmware Version: 004.17.6
Exposure Time: 500000.000000us
Data Taken on: 03-03-2021 10:30:23.153
Wavelength	Amplitude
733.770752	0.000000
733.808716	0.000000
733.846619	0.000000
733.884583	0.000000
733.922546	0.000000
733.960449	0.000000
733.998413	0.000000
734.036377	0.000000
734.074219	0.000000
734.112183	0.000000
734.150085	0.000000
734.188049	0.000000
734.226013	0.000000
734.263916	0.000000
734.301819	0.000000
734.339783	0.000000
734.377686	0.000000
734.415588	0.000000
734.453552	0.000000
734.491455	0.000000
734.529419	0.000000
734.567322	0.000000
734.605225	0.000000
734.643127	0.000000
734.681091	0.000000
734.718994	0.000000
734.756897	0.000000
734.794800	0.000000
734.832703	0.000000
734.870667	0.000000
734.908508	0.000000
734.946472	0.000000
734.984375	0.000000
735.022278	0.000000
735.060181	0.000000
735.098083	0.000000
735.135986	0.000000
735.173889	0.000000
735.211792	0.000000
735.249695	0.000000
735.287598	0.000000
735.325439	0.000000
735.363403	0.000000
735.401306	0.000000
735.439148	0.000000
735.477051	0.000000
735.515015	0.000000
735.552856	0.000000
735.590759	0.000000
735.628662	0.000000
735.666504	0.000000
735.704407	0.000000
735.742310	0.000000
735.780212	0.000000
735.818115	0.000000
735.856018	0.000000
735.893860	0.000000
735.931763	0.000000
735.969604	0.000000
736.007507	0.000000
736.045410	0.000000
736.083252	0.000000
736.121094	0.000000
736.158997	0.000000
736.196838	0.000000
736.234741	0.000000
736.272644	0.000000
736.310486	0.000000
736.348389	0.000000
736.386230	0.000000
736.424072	0.000000
736.461975	0.000000
736.499878	0.000000
736.537720	0.000000
736.575562	0.000000
736.613403	0.000000
736.651306	0.000000
736.689148	0.000000
736.726990	0.000000
736.764893	0.000000
736.802734	0.000000
736.840576	0.000000
736.878418	0.000000
736.916321	0.000000
736.954102	0.000000
736.992004	0.000000
737.029846	0.000000
737.067688	0.000000
737.105530	0.000000
737.143372	0.000000
737.181213	0.000000
737.219116	0.000000
737.256897	0.000000
737.294739	0.000000
737.332642	0.000000
737.370422	0.000000
737.408325	0.000000
737.446167	0.000000
737.483948	0.000000
737.521790	0.000000
737.559692	0.000000
737.597473	0.000000
737.635315	0.000000
737.673157	0.000000
737.710999	0.000000
737.748840	0.000000
737.786621	0.000000
737.824463	0.000000
737.862305	0.000000
737.900085	0.000000
737.937927	0.000000
737.975769	0.000000
738.013550	0.000000
738.051392	0.000000
738.089233	0.000000
738.127014	0.000000
738.164856	0.000000
738.202698	0.000000
738.240479	0.000000
738.278320	0.000000
738.316162	0.000000
738.353943	0.000000
738.391785	0.000000
738.429565	0.000000
738.467407	0.000000
738.505188	0.000000
738.542969	0.000000
738.580811	0.000000
738.618652	0.000000
738.656372	0.000000
738.694214	0.000000
738.732056	0.000000
738.769836	0.000000
738.807617	0.000000
738.845459	0.000000
738.883240	0.000000
738.921021	0.000000
738.958862	0.000000
738.996582	0.000000
739.034424	0.000000
739.072205	0.000000
739.109985	0.000000
739.147827	0.000000
739.185547	0.000000
739.223389	0.000000
739.261169	0.000000
739.298889	0.000000
739.336731	0.000000
739.374512	0.000000
739.412292	0.000000
739.450073	0.000000
739.487854	0.000000
739.525635	0.000000
739.563416	0.000000
739.601135	0.000000
739.638977	0.000000
739.676758	0.000000
739.714478	0.000000
739.752258	0.000000
739.790100	0.000000
739.827820	0.000000
739.865601	0.000000
739.903381	0.000000
739.941101	0.000000
739.978882	190.000000
740.016724	185.900000
740.054443	192.200000
740.092224	184.400000
740.130005	183.900000
740.167725	185.500000
740.205505	183.100000
740.243225	194.200000
740.281006	187.600000
740.318787	180.900000
740.356506	193.200000
740.394287	192.400000
740.432068	182.900000
740.469727	180.600000
740.507507	190.200000
740.545288	186.600000
740.583008	188.300000
740.620789	188.700000
740.658569	179.200000
740.696228	185.900000
740.734009	193.400000
740.771790	175.700000
740.809509	190.700000
740.847229	183.700000
740.884949	184.400000
740.922729	179.600000
740.960449	186.800000
740.998169	182.500000
741.035950	184.000000
741.073669	187.600000
741.111389	187.100000
741.149170	195.700000
741.186890	197.800000
741.224609	191.500000
741.262329	188.900000
741.300110	195.900000
741.337769	182.300000
741.375549	180.400000
741.413208	188.800000
741.450989	183.900000
741.488708	184.500000
741.526367	185.000000
741.564148	190.900000
741.601868	191.400000
741.639526	187.200000
741.677307	187.900000
741.715027	188.800000
741.752686	182.100000
741.790466	194.400000
741.828186	189.900000
741.865845	182.200000
741.903564	179.800000
741.941345	187.900000
741.979004	182.200000
742.016724	190.600000
742.054382	186.900000
742.092102	191.900000
742.129822	180.400000
742.167480	184.800000
742.205200	186.300000
742.242920	189.000000
742.280640	190.900000
742.318359	183.500000
742.356079	184.300000
742.393738	191.100000
742.431396	185.900000
742.469116	191.700000
742.506775	178.900000
742.544495	189.500000
742.582214	191.900000
742.619873	186.500000
742.657593	193.900000
742.695251	191.800000
742.732971	186.400000
742.770630	189.200000
742.808289	187.500000
742.846008	189.000000
742.883728	190.400000
742.921326	187.500000
742.959045	184.800000
742.996765	186.600000
743.034424	186.700000
743.072083	184.400000
743.109802	186.800000
743.147400	180.700000
743.185120	188.300000
743.222839	187.200000
743.260437	193.300000
743.298157	188.200000
743.335754	179.300000
743.373474	184.900000
743.411133	178.800000
743.448792	187.500000
743.486450	187.700000
743.524170	178.400000
743.561768	187.200000
743.599487	193.900000
743.637146	198.400000
743.674744	185.400000
743.712463	186.100000
743.750122	187.600000
743.787720	189.600000
743.825439	183.100000
743.863037	184.800000
743.900696	186.700000
743.938416	212.200000
743.976013	185.300000
744.013672	195.900000
744.051331	191.200000
744.088928	196.200000
744.126587	193.300000
744.164307	187.600000
744.201904	184.600000
744.239563	191.400000
744.277222	188.700000
744.314819	186.700000
744.352478	194.300000
744.390137	189.300000
744.427734	190.300000
744.465393	185.300000
744.502991	182.600000
744.540649	190.700000
744.578308	188.200000
744.615906	181.200000
744.653564	178.100000
744.691223	191.900000
744.728821	181.300000
744.766418	187.600000
744.804077	190.500000
744.841675	184.700000
744.879333	180.300000
744.916992	186.100000
744.954529	186.400000
744.992187	193.400000
745.029785	186.000000
745.067444	184.400000
745.105042	187.300000
745.142639	188.800000
745.180298	197.400000
745.217896	185.100000
745.255493	185.500000
745.293152	190.500000
745.330750	192.300000
745.368347	194.900000
745.405945	190.500000
745.443604	188.400000
745.481140	190.600000
745.518799	185.200000
745.556396	192.000000
745.593994	191.400000
745.631592	186.600000
745.669189	180.900000
745.706787	188.500000
745.744385	182.800000
745.781982	190.000000
745.819580	186.400000
745.857178	185.900000
745.894775	187.300000
745.932373	188.700000
745.969971	188.200000
746.007568	178.100000
746.045166	195.900000
746.082764	191.900000
746.120300	190.300000
746.157898	191.900000
746.195557	186.800000
746.233093	181.700000
746.270691	191.400000
746.308228	187.900000
746.345825	192.200000
746.383423	191.300000
746.420959	182.900000
746.458557	185.800000
746.496155	185.000000
746.533691	187.000000
746.571289	182.600000
746.608887	189.300000
746.646423	189.300000
746.684021	189.400000
746.721619	185.100000
746.759155	189.400000
746.796753	181.500000
746.834351	181.300000
746.871826	183.900000
746.909424	195.200000
746.946960	188.400000
746.984558	185.300000
747.022156	186.200000
747.059631	194.700000
747.097229	188.700000
747.134827	185.200000
747.172363	195.100000
747.209900	190.600000
747.247498	182.900000
747.285034	193.500000
747.322571	194.800000
747.360168	185.200000
747.397644	180.200000
747.435242	190.600000
747.472778	194.700000
747.510315	184.300000
747.547913	185.100000
747.585388	193.800000
747.622925	185.900000
747.660522	178.400000
747.697998	183.900000
747.735596	187.300000
747.773132	185.100000
747.810669	186.300000
747.848206	191.200000
747.885742	182.700000
747.923279	182.300000
747.960815	189.800000
747.998352	187.800000
748.035889	192.100000
748.073425	191.700000
748.110901	184.700000
748.148437	184.500000
748.185974	188.900000
748.223511	197.900000
748.261047	188.500000
748.298584	191.000000
748.336060	187.400000
748.373596	190.400000
748.411133	207.700000
748.448608	184.100000
748.486145	190.600000
748.523682	194.400000
748.561218	194.100000
748.598755	187.800000
748.636292	191.100000
748.673706	185.200000
748.711243	194.700000
748.748718	189.900000
748.786255	187.300000
748.823792	187.700000
748.861267	182.400000
748.898804	189.700000
748.936340	189.700000
748.973816	184.900000
749.011292	193.200000
749.048828	188.600000
749.086304	192.000000
749.123840	197.900000
749.161316	183.300000
749.198792	197.200000
749.236328	194.800000
749.273743	187.400000
749.311279	186.100000
749.348816	189.500000
749.386230	189.100000
749.423767	175.800000
749.461304	189.800000
749.498718	187.400000
749.536255	195.000000
749.573730	198.700000
749.611206	193.500000
749.648682	186.500000
749.686218	188.700000
749.723633	192.800000
749.761169	187.000000
749.798645	184.500000
749.836060	186.600000
749.873596	184.500000
749.911011	188.400000
749.948547	193.500000
749.986023	186.400000
750.023437	187.300000
750.060913	181.300000
750.098450	182.300000
750.135864	187.500000
750.173340	187.600000
750.210815	193.200000
750.248291	182.400000
750.285767	188.000000
750.323242	193.800000
750.360657	190.100000
750.398132	184.100000
750.435608	191.100000
750.473022	184.200000
750.510498	182.700000
750.547974	183.600000
750.585449	185.400000
750.622925	179.000000
750.660339	197.500000
750.697815	188.500000
750.735291	186.300000
750.772644	187.700000
750.810120	188.300000
750.847595	192.000000
750.885010	182.200000
750.922485	195.500000
750.959961	185.600000
750.997375	195.100000
751.034851	191.100000
751.072266	193.800000
751.109680	180.900000
751.147156	195.000000
751.184570	189.600000
751.221985	189.400000
751.259460	180.000000
751.296875	188.700000
751.334290	188.200000
751.371765	192.500000
751.409180	189.900000
751.446594	194.600000
751.484070	190.300000
751.521423	188.900000
751.558899	189.100000
751.596375	197.100000
751.633728	194.500000
751.671204	201.800000
751.708618	184.100000
751.746033	190.400000
751.783447	181.900000
751.820801	183.900000
751.858276	190.000000
751.895691	187.800000
751.933105	184.200000
751.970520	183.800000
752.007935	186.800000
752.045349	191.300000
752.082764	187.900000
752.120178	186.100000
752.157532	184.000000
752.195007	186.100000
752.232422	192.300000
752.269775	192.600000
752.307190	191.000000
752.344543	184.400000
752.382019	186.200000
752.419434	186.000000
752.456787	189.200000
752.494202	194.600000
752.531616	189.400000
752.568970	191.800000
752.606384	189.300000
752.643799	188.800000
752.681152	196.300000
752.718567	190.900000
752.755981	180.800000
752.793335	190.400000
752.830750	180.300000
752.868164	192.600000
752.905518	184.400000
752.942932	191.700000
752.980225	183.900000
753.017639	192.400000
753.055054	187.500000
753.092407	190.500000
753.129822	194.900000
753.167175	197.700000
753.204529	186.900000
753.241943	184.600000
753.279358	183.400000
753.316650	191.000000
753.354065	190.100000
753.391479	191.800000
753.428772	197.300000
753.466187	191.400000
753.503479	183.100000
753.540894	186.000000
753.578308	183.400000
753.615601	181.700000
753.653015	187.300000
753.690369	187.600000
753.727722	184.700000
753.765076	181.000000
753.802490	181.700000
753.839783	180.700000
753.877136	185.700000
753.914551	203.400000
753.951843	183.600000
753.989258	192.100000
754.026611	189.600000
754.063904	190.300000
754.101257	185.000000
754.138611	181.500000
754.175964	188.800000
754.213318	198.700000
754.250610	179.900000
754.288025	184.800000
754.325378	182.100000
754.362671	192.700000
754.400024	186.100000
754.437378	196.500000
754.474670	198.200000
754.512085	183.000000
754.549438	188.200000
754.586731	186.100000
754.624084	187.800000
754.661438	183.700000
754.698730	196.200000
754.736084	185.900000
754.773376	186.300000
754.810730	190.600000
754.848083	186.600000
754.885315	190.500000
754.922668	179.300000
754.960022	183.600000
754.997314	191.800000
755.034668	188.900000
755.072021	186.700000
755.109253	184.800000
755.146606	194.200000
755.183960	184.700000
755.221252	194.400000
755.258545	192.800000
755.295898	192.300000
755.333191	194.000000
755.370544	189.200000
755.407776	187.500000
755.445129	187.200000
755.482422	192.700000
755.519714	184.700000
755.557068	181.200000
755.594360	179.500000
755.631653	191.600000
755.668945	196.000000
755.706299	189.000000
755.743530	198.900000
755.780884	196.300000
755.818176	193.500000
755.855408	192.000000
755.892761	190.800000
755.930054	188.300000
755.967346	190.300000
756.004639	191.500000
756.041870	188.800000
756.079224	193.000000
756.116516	184.600000
756.153748	191.800000
756.191040	196.600000
756.228394	190.400000
756.265625	183.700000
756.302917	188.500000
756.340210	186.500000
756.377441	193.900000
756.414795	195.800000
756.452087	187.800000
756.489319	181.900000
756.526611	192.400000
756.563843	190.600000
756.601135	199.000000
756.638428	198.000000
756.675659	187.500000
756.712952	193.400000
756.750244	192.600000
756.787476	190.600000
756.824768	196.100000
756.862061	187.200000
756.899292	236.000000
756.936584	193.800000
756.973816	200.400000
757.011047	202.300000
757.048340	192.000000
757.085632	190.000000
757.122864	204.100000
757.160156	188.600000
757.197327	192.100000
757.234619	196.000000
757.271912	190.400000
757.309082	194.900000
757.346375	187.400000
757.383667	196.500000
757.420837	192.500000
757.458130	192.400000
757.495422	190.600000
757.532593	193.500000
757.569885	185.300000
757.607117	188.300000
757.644348	192.900000
757.681580	204.100000
757.718811	180.300000
757.756042	190.300000
757.793335	189.300000
757.830505	193.500000
757.867798	189.400000
757.905029	188.700000
757.942200	193.700000
757.979492	188.400000
758.016724	190.800000
758.053894	189.600000
758.091187	209.200000
758.128418	191.800000
758.165588	192.400000
758.202820	204.000000
758.240112	190.500000
758.277283	203.200000
758.314514	193.900000
758.351685	190.100000
758.388916	203.400000
758.426147	200.800000
758.463379	201.000000
758.500610	198.300000
758.537842	194.200000
758.575012	200.600000
758.612244	189.300000
758.649475	206.300000
758.686646	187.000000
758.723877	200.700000
758.761108	202.600000
758.798279	194.400000
758.835510	196.400000
758.872742	201.600000
758.909851	196.600000
758.947083	198.400000
758.984253	196.600000
759.021484	199.800000
759.058716	200.200000
759.095886	199.700000
759.133057	195.700000
759.170288	200.000000
759.207458	193.500000
759.244690	206.500000
759.281860	206.800000
759.319031	197.300000
759.356262	195.000000
759.393433	195.200000
759.430603	197.100000
759.467773	197.100000
759.505005	203.600000
759.542175	203.500000
759.579346	195.800000
759.616516	198.700000
759.653687	202.300000
759.690918	196.800000
759.728027	200.200000
759.765259	201.200000
759.802429	202.600000
759.839539	201.900000
759.876770	205.000000
759.913940	209.200000
759.951111	200.500000
759.988281	201.200000
760.025452	197.700000
760.062561	196.000000
760.099792	210.000000
760.136963	203.400000
760.174072	200.500000
760.211243	195.900000
760.248413	197.000000
760.285583	197.100000
760.322754	211.800000
760.359863	208.200000
760.397034	207.500000
760.434204	200.300000
760.471375	201.400000
760.508545	201.000000
760.545715	202.300000
760.582825	197.500000
760.619995	206.300000
760.657166	194.500000
760.694275	208.300000
760.731445	205.000000
760.768555	205.000000
760.805664	207.600000
760.842834	204.900000
760.879944	207.400000
760.917114	205.600000
760.954285	202.900000
760.991394	196.600000
761.028564	210.500000
761.065674	207.100000
761.102783	200.100000
761.139954	209.600000
761.177124	208.000000
761.214172	208.900000
761.251343	202.600000
761.288452	204.000000
761.325562	207.500000
761.362732	201.300000
761.399841	203.500000
761.436951	206.300000
761.474121	201.700000
761.511169	205.600000
761.548340	209.400000
761.585449	207.700000
761.622559	210.100000
761.659668	206.200000
761.696838	213.100000
761.733887	207.700000
761.771057	206.600000
761.808167	205.500000
761.845276	212.900000
761.882385	220.000000
761.919434	207.400000
761.956604	226.300000
761.993713	205.300000
762.030762	215.300000
762.067871	208.700000
762.105042	209.000000
762.142090	213.700000
762.179199	210.100000
762.216309	214.100000
762.253418	225.500000
762.290527	219.700000
762.327637	217.100000
762.364685	205.300000
762.401794	215.400000
762.438904	215.200000
762.475952	208.800000
762.513062	208.600000
762.550110	207.600000
762.587219	222.500000
762.624329	220.200000
762.661377	215.500000
762.698486	215.100000
762.735596	213.300000
762.772644	208.500000
762.809753	205.600000
762.846863	214.900000
762.883911	218.100000
762.921021	217.200000
762.958069	215.300000
762.995117	221.900000
763.032227	223.400000
763.069336	213.200000
763.106323	210.600000
763.143433	209.600000
763.180481	218.500000
763.217590	218.900000
763.254639	213.100000
763.291687	214.100000
763.328735	224.200000
763.365845	215.000000
763.402893	214.300000
763.439941	218.500000
763.477051	221.600000
763.514038	223.000000
763.551147	215.800000
763.588196	219.800000
763.625244	218.400000
763.662292	224.100000
763.699402	229.100000
763.736389	222.800000
763.773499	231.300000
763.810486	223.400000
763.847534	221.000000
763.884644	223.300000
763.921631	219.400000
763.958679	234.900000
763.995728	223.600000
764.032776	230.900000
764.069824	218.300000
764.106873	226.400000
764.143860	232.500000
764.180969	223.600000
764.218018	231.100000
764.255005	222.500000
764.292053	225.500000
764.329102	235.000000
764.366089	236.100000
764.403137	231.700000
764.440125	223.900000
764.477173	228.500000
764.514221	232.000000
764.551208	227.200000
764.588257	225.600000
764.625305	234.400000
764.662292	238.900000
764.699341	240.400000
764.736389	231.400000
764.773376	247.700000
764.810425	236.000000
764.847473	242.600000
764.884399	238.600000
764.921448	246.900000
764.958435	245.600000
764.995483	235.900000
765.032532	252.300000
765.069458	236.500000
765.106506	237.000000
765.143555	235.000000
765.180481	241.800000
765.217529	248.500000
765.254578	235.300000
765.291504	243.900000
765.328552	241.100000
765.365540	237.100000
765.402527	251.800000
765.439575	239.200000
765.476501	234.300000
765.513550	235.400000
765.550537	243.300000
765.587463	250.200000
765.624512	240.400000
765.661499	233.300000
765.698486	249.600000
765.735474	240.400000
765.772461	241.400000
765.809448	250.500000
765.846436	248.900000
765.883423	251.000000
765.920410	247.100000
765.957397	243.800000
765.994385	248.200000
766.031311	258.900000
766.068359	249.600000
766.105286	248.900000
766.142273	256.200000
766.179260	251.100000
766.216187	244.300000
766.253174	243.600000
766.290161	251.800000
766.327148	254.400000
766.364136	255.000000
766.401123	269.700000
766.438049	247.900000
766.475037	260.100000
766.512024	257.600000
766.548950	269.700000
766.585937	265.300000
766.622864	260.800000
766.659790	258.500000
766.696777	248.600000
766.733704	262.800000
766.770691	254.600000
766.807678	267.400000
766.844604	262.500000
766.881531	260.000000
766.918518	266.700000
766.955444	267.700000
766.992432	260.800000
767.029358	262.200000
767.066284	268.900000
767.103271	265.100000
767.140198	297.000000
767.177124	279.400000
767.214050	270.700000
767.251038	270.300000
767.287964	266.600000
767.324890	262.300000
767.361816	268.500000
767.398743	272.600000
767.435730	265.500000
767.472595	271.000000
767.509583	275.500000
767.546509	265.400000
767.583374	272.300000
767.620361	263.300000
767.657288	270.500000
767.694214	271.200000
767.731140	269.800000
767.768066	271.300000
767.804993	277.200000
767.841919	267.100000
767.878845	272.600000
767.915710	282.400000
767.952698	274.900000
767.989563	277.500000
768.026489	278.200000
768.063416	272.500000
768.100281	271.500000
768.137207	286.000000
768.174133	280.400000
768.211060	282.000000
768.247986	280.000000
768.284912	277.500000
768.321777	278.200000
768.358704	275.300000
768.395630	277.900000
768.432495	273.000000
768.469421	279.000000
768.506348	284.800000
768.543152	290.600000
768.580078	286.700000
768.616943	288.900000
768.653870	290.200000
768.690796	287.500000
768.727661	286.800000
768.764587	288.600000
768.801453	282.800000
768.838318	292.700000
768.875244	289.300000
768.912109	297.000000
768.948975	287.100000
768.985901	290.000000
769.022766	288.900000
769.059631	294.400000
769.096558	288.600000
769.133362	289.900000
769.170288	290.700000
769.207214	290.700000
769.244019	296.800000
769.280945	294.800000
769.317810	303.500000
769.354675	297.200000
769.391541	305.400000
769.428406	301.100000
769.465271	311.100000
769.502136	301.200000
769.539062	301.900000
769.575867	301.200000
769.612732	304.100000
769.649597	307.800000
769.686462	310.700000
769.723328	307.200000
769.760193	302.400000
769.797058	307.200000
769.833923	314.800000
769.870728	310.300000
769.907593	312.600000
769.944519	311.000000
769.981323	316.000000
770.018188	315.600000
770.055054	314.000000
770.091858	313.100000
770.128723	323.400000
770.165588	328.800000
770.202393	312.600000
770.239258	327.700000
770.276062	323.100000
770.312927	324.500000
770.349792	329.600000
770.386597	327.300000
770.423462	334.400000
770.460327	342.000000
770.497131	329.500000
770.533997	323.000000
770.570862	338.400000
770.607605	337.400000
770.644470	333.900000
770.681335	338.900000
770.718140	337.000000
770.754944	333.900000
770.791809	332.300000
770.828613	335.500000
770.865479	337.700000
770.902222	347.600000
770.939087	340.200000
770.975952	330.700000
771.012695	335.600000
771.049561	352.900000
771.086365	341.700000
771.123169	339.500000
771.159973	342.500000
771.196838	341.900000
771.233582	346.200000
771.270447	347.100000
771.307251	350.900000
771.344055	347.200000
771.380859	352.600000
771.417664	346.800000
771.454468	357.900000
771.491272	356.600000
771.528076	353.100000
771.564880	353.300000
771.601685	363.600000
771.638428	351.200000
771.675293	359.600000
771.712097	348.600000
771.748840	368.200000
771.785645	355.400000
771.822449	363.700000
771.859253	366.300000
771.896057	362.500000
771.932861	373.700000
771.969604	363.000000
772.006409	355.300000
772.043213	368.600000
772.079956	363.400000
772.116760	358.200000
772.153503	364.800000
772.190308	373.800000
772.227112	365.500000
772.263855	362.200000
772.300659	366.100000
772.337463	377.000000
772.374207	365.600000
772.411011	362.400000
772.447754	368.200000
772.484497	383.300000
772.521301	375.800000
772.558105	375.400000
772.594849	373.600000
772.631592	380.400000
772.668396	378.000000
772.705139	382.100000
772.741882	378.300000
772.778625	389.000000
772.815430	392.600000
772.852173	386.700000
772.888916	390.800000
772.925720	394.500000
772.962463	399.900000
772.999207	393.300000
773.035950	398.600000
773.072754	399.000000
773.109436	393.000000
773.146240	394.300000
773.182922	393.000000
773.219727	401.700000
773.256470	395.500000
773.293152	386.900000
773.329956	391.800000
773.366699	398.900000
773.403381	389.600000
773.440186	395.500000
773.476929	399.200000
773.513611	392.400000
773.550354	395.000000
773.587158	391.600000
773.623840	387.000000
773.660583	398.000000
773.697327	411.100000
773.734009	400.800000
773.770813	401.000000
773.807495	397.700000
773.844238	396.300000
773.880981	412.000000
773.917664	406.800000
773.954407	413.900000
773.991150	406.500000
774.027832	410.800000
774.064575	405.900000
774.101318	412.400000
774.138000	419.400000
774.174744	412.800000
774.211487	416.700000
774.248108	404.500000
774.284851	404.100000
774.321594	414.500000
774.358276	414.300000
774.395020	423.200000
774.431702	423.900000
774.468384	414.100000
774.505127	409.600000
774.541809	421.000000
774.578491	428.500000
774.615234	429.600000
774.651917	422.900000
774.688599	425.900000
774.725342	433.800000
774.762024	432.000000
774.798706	434.500000
774.835449	435.000000
774.872070	444.200000
774.908813	439.400000
774.945496	434.800000
774.982178	436.600000
775.018860	435.300000
775.055542	440.000000
775.092224	439.200000
775.128967	447.500000
775.165588	444.600000
775.202271	438.700000
775.239014	448.600000
775.275635	450.400000
775.312317	445.200000
775.349060	450.000000
775.385681	449.200000
775.422363	442.600000
775.459045	449.700000
775.495667	450.800000
775.532410	457.900000
775.569092	460.400000
775.605713	460.900000
775.642395	461.100000
775.679016	464.000000
775.715698	464.300000
775.752380	467.200000
775.789001	460.700000
775.825684	461.400000
775.862366	466.100000
775.898987	475.100000
775.935669	463.300000
775.972351	485.800000
776.008972	485.100000
776.045654	485.800000
776.082336	481.100000
776.118958	481.700000
776.155640	482.000000
776.192322	490.300000
776.228882	495.300000
776.265564	493.200000
776.302185	489.400000
776.338867	499.600000
776.375488	487.500000
776.412109	496.500000
776.448792	498.900000
776.485413	508.600000
776.522034	502.400000
776.558716	496.700000
776.595337	496.900000
776.631958	506.700000
776.668579	506.300000
776.705261	512.400000
776.741882	506.000000
776.778503	506.000000
776.815186	502.900000
776.851746	510.000000
776.888367	508.400000
776.924988	523.000000
776.961609	508.200000
776.998291	511.700000
777.034851	507.400000
777.071472	516.800000
777.108154	515.000000
777.144714	527.300000
777.181335	526.000000
777.218018	517.500000
777.254578	525.700000
777.291199	528.300000
777.327759	532.900000
777.364380	540.200000
777.401062	547.600000
777.437622	558.100000
777.474243	541.700000
777.510864	550.100000
777.547424	540.600000
777.584045	545.300000
777.620667	550.600000
777.657227	550.200000
777.693848	550.000000
777.730469	565.500000
777.767029	553.700000
777.803650	560.100000
777.840271	554.300000
777.876831	556.200000
777.913452	561.200000
777.950012	545.200000
777.986633	545.800000
778.023193	547.500000
778.059753	544.300000
778.096375	548.800000
778.132996	562.600000
778.169556	553.900000
778.206116	557.700000
778.242737	552.100000
778.279297	564.600000
778.315857	557.500000
778.352478	565.700000
778.389038	572.600000
778.425598	570.100000
778.462219	576.300000
778.498718	574.100000
778.535339	574.600000
778.571838	578.000000
778.608459	584.900000
778.645020	575.500000
778.681580	580.200000
778.718140	584.400000
778.754761	577.900000
778.791260	584.600000
778.827881	588.300000
778.864441	585.400000
778.900940	595.200000
778.937561	591.900000
778.974121	591.700000
779.010620	580.800000
779.047241	585.500000
779.083801	592.900000
779.120300	591.700000
779.156860	596.300000
779.193359	589.100000
779.229980	590.200000
779.266541	591.900000
779.303040	595.400000
779.339600	587.500000
779.376160	585.100000
779.412659	588.700000
779.449219	578.600000
779.485779	590.000000
779.522278	585.900000
779.558838	590.200000
779.595398	588.700000
779.631897	591.500000
779.668457	581.900000
779.705017	593.900000
779.741516	590.000000
779.778076	578.500000
779.814575	584.900000
779.851074	591.600000
779.887634	589.300000
779.924133	602.700000
779.960693	583.000000
779.997253	597.600000
780.033691	601.200000
780.070251	603.900000
780.106812	611.700000
780.143250	610.000000
780.179810	605.200000
780.216370	607.100000
780.252808	611.600000
780.289368	617.600000
780.325867	615.500000
780.362366	610.500000
780.398865	620.000000
780.435364	613.900000
780.471863	629.700000
780.508423	623.700000
780.544861	629.000000
780.581421	627.300000
780.617920	618.300000
780.654419	614.700000
780.690918	617.000000
780.727417	628.600000
780.763916	626.200000
780.800415	637.400000
780.836914	624.700000
780.873352	633.600000
780.909912	629.700000
780.946411	638.000000
780.982849	646.400000
781.019348	657.600000
781.055786	650.000000
781.092346	649.900000
781.128845	662.400000
781.165283	663.600000
781.201782	668.700000
781.238281	674.400000
781.274719	677.300000
781.311218	669.500000
781.347717	678.800000
781.384155	669.800000
781.420654	670.800000
781.457092	679.400000
781.493591	674.200000
781.530090	670.300000
781.566528	672.300000
781.602966	673.500000
781.639465	672.300000
781.675903	666.200000
781.712402	674.100000
781.748901	680.200000
781.785278	670.900000
781.821777	677.200000
781.858276	678.100000
781.894714	692.500000
781.931152	688.100000
781.967651	699.500000
782.004089	690.200000
782.040527	698.600000
782.076965	702.900000
782.113403	703.200000
782.149902	712.800000
782.186340	702.200000
782.222778	716.700000
782.259277	704.000000
782.295654	703.600000
782.332092	710.600000
782.368591	712.700000
782.404968	704.700000
782.441467	712.700000
782.477905	713.600000
782.514282	706.900000
782.550781	726.100000
782.587219	722.800000
782.623596	732.100000
782.660095	732.400000
782.696472	740.500000
782.732910	746.600000
782.769348	746.400000
782.805786	768.800000
782.842224	765.400000
782.878662	761.500000
782.915039	761.900000
782.951477	759.600000
782.987915	754.000000
783.024292	760.100000
783.060730	764.300000
783.097168	759.600000
783.133545	756.200000
783.169983	753.500000
783.206421	744.600000
783.242798	740.600000
783.279236	733.100000
783.315613	730.000000
783.352051	729.300000
783.388489	720.900000
783.424866	715.100000
783.461304	721.100000
783.497681	726.700000
783.534058	721.400000
783.570496	718.600000
783.606934	713.400000
783.643250	724.500000
783.679687	729.800000
783.716125	720.200000
783.752441	736.600000
783.788879	751.900000
783.825317	768.300000
783.861633	773.800000
783.898071	775.400000
783.934448	789.000000
783.970825	805.700000
784.007263	804.400000
784.043579	810.800000
784.080017	814.100000
784.116394	804.700000
784.152710	806.200000
784.189148	813.900000
784.225525	814.200000
784.261902	806.000000
784.298279	799.400000
784.334656	799.000000
784.371033	790.300000
784.407410	794.900000
784.443787	779.700000
784.480164	758.600000
784.516541	741.200000
784.552856	746.100000
784.589233	738.200000
784.625610	736.900000
784.661987	759.300000
784.698364	751.800000
784.734741	747.300000
784.771057	751.500000
784.807434	757.900000
784.843811	774.200000
784.880127	773.500000
784.916504	803.200000
784.952881	806.900000
784.989197	801.100000
785.025574	803.800000
785.061951	810.200000
785.098267	829.900000
785.134644	822.000000
785.170959	822.500000
785.207275	824.800000
785.243652	822.000000
785.279968	809.800000
785.316345	812.100000
785.352722	812.800000
785.388977	805.000000
785.425354	785.500000
785.461731	767.600000
785.498047	761.800000
785.534363	749.000000
785.570679	750.300000
785.606995	754.900000
785.643372	761.900000
785.679687	762.300000
785.716003	750.800000
785.752380	751.900000
785.788635	753.000000
785.825012	769.900000
785.861328	778.600000
785.897644	771.000000
785.933960	784.200000
785.970337	788.300000
786.006592	805.600000
786.042908	814.900000
786.079285	816.300000
786.115540	820.600000
786.151855	825.100000
786.188171	816.600000
786.224487	819.000000
786.260803	809.900000
786.297119	816.600000
786.333435	816.200000
786.369751	809.300000
786.406006	809.000000
786.442322	792.700000
786.478638	785.600000
786.514954	800.000000
786.551270	798.000000
786.587585	811.300000
786.623840	795.600000
786.660156	789.900000
786.696472	770.200000
786.732727	766.100000
786.769043	775.500000
786.805298	768.000000
786.841614	775.200000
786.877930	785.600000
786.914124	772.700000
786.950439	791.800000
786.986755	796.000000
787.023010	813.500000
787.059326	821.200000
787.095642	831.300000
787.131836	847.800000
787.168152	837.800000
787.204468	838.500000
787.240723	850.600000
787.276978	859.200000
787.313293	863.700000
787.349548	861.900000
787.385803	862.500000
787.422058	848.100000
787.458313	846.100000
787.494629	844.300000
787.530823	843.700000
787.567139	831.200000
787.603455	822.900000
787.639648	808.900000
787.675903	812.900000
787.712219	808.000000
787.748413	806.800000
787.784729	819.300000
787.820984	807.600000
787.857178	799.800000
787.893494	799.000000
787.929749	797.000000
787.965942	803.100000
788.002258	827.700000
788.038452	837.600000
788.074707	827.600000
788.110962	840.900000
788.147217	839.100000
788.183472	851.300000
788.219727	864.800000
788.255920	885.000000
788.292175	891.500000
788.328430	884.800000
788.364624	871.600000
788.400879	867.600000
788.437134	872.000000
788.473328	872.200000
788.509583	865.600000
788.545837	864.500000
788.582031	866.200000
788.618286	853.500000
788.654480	850.500000
788.690735	862.000000
788.726990	879.600000
788.763184	874.000000
788.799377	889.500000
788.835632	878.900000
788.871826	893.700000
788.908081	889.200000
788.944336	886.200000
788.980469	906.300000
789.016724	894.700000
789.052979	893.200000
789.089111	875.100000
789.125366	885.200000
789.161621	869.200000
789.197754	882.800000
789.234009	882.100000
789.270142	876.000000
789.306396	873.300000
789.342590	864.800000
789.378784	847.500000
789.414978	842.500000
789.451233	855.600000
789.487366	854.800000
789.523621	864.300000
789.559814	863.700000
789.595947	854.000000
789.632202	864.100000
789.668335	873.600000
789.704529	887.400000
789.740784	910.800000
789.776917	916.600000
789.813110	901.900000
789.849304	917.200000
789.885498	918.300000
789.921692	941.400000
789.957886	950.300000
789.994019	949.700000
790.030212	946.300000
790.066406	947.300000
790.102539	945.800000
790.138733	951.600000
790.174927	943.300000
790.211060	957.600000
790.247253	946.400000
790.283386	935.300000
790.319580	923.000000
790.355774	906.400000
790.391907	909.300000
790.428101	925.800000
790.464294	924.800000
790.500427	922.800000
790.536621	907.100000
790.572754	887.900000
790.608887	889.500000
790.645081	902.600000
790.681274	914.400000
790.717346	918.200000
790.753540	905.800000
790.789734	889.600000
790.825867	874.800000
790.862000	882.500000
790.898132	889.600000
790.934265	883.600000
790.970459	887.600000
791.006592	889.800000
791.042725	881.100000
791.078918	874.100000
791.114990	871.200000
791.151184	871.500000
791.187317	889.600000
791.223389	885.700000
791.259583	869.100000
791.295715	874.500000
791.331848	879.900000
791.367981	887.900000
791.404114	897.000000
791.440247	904.000000
791.476379	910.200000
791.512451	894.200000
791.548584	885.800000
791.584778	877.700000
791.620850	891.800000
791.656982	896.900000
791.693115	898.900000
791.729187	898.700000
791.765381	887.300000
791.801514	889.700000
791.837585	888.100000
791.873718	897.900000
791.909851	909.600000
791.945923	916.500000
791.982056	887.600000
792.018188	886.400000
792.054260	891.000000
792.090393	886.500000
792.126465	871.200000
792.162598	887.600000
792.198669	873.100000
792.234741	866.600000
792.270874	860.400000
792.307007	842.100000
792.343079	849.000000
792.379150	859.900000
792.415283	850.600000
792.451355	854.000000
792.487488	831.700000
792.523560	834.600000
792.559631	814.900000
792.595764	778.700000
792.631836	744.500000
792.667908	726.500000
792.703979	705.400000
792.740051	717.800000
792.776184	744.300000
792.812256	748.100000
792.848328	758.900000
792.884399	766.500000
792.920471	773.600000
792.956543	766.800000
792.992615	769.800000
793.028748	763.400000
793.064758	767.200000
793.100830	790.900000
793.136963	806.800000
793.172974	805.700000
793.209045	794.800000
793.245178	804.000000
793.281189	790.200000
793.317261	794.900000
793.353271	794.300000
793.389404	804.100000
793.425476	805.000000
793.461487	790.700000
793.497559	784.700000
793.533630	785.200000
793.569641	778.600000
793.605713	782.500000
793.641785	787.300000
793.677795	799.000000
793.713867	788.000000
793.749878	790.200000
793.785950	804.800000
793.822021	806.700000
793.858032	791.900000
793.894104	801.900000
793.930176	792.100000
793.966187	793.800000
794.002258	788.700000
794.038269	791.100000
794.074280	788.000000
794.110352	815.700000
794.146423	794.300000
794.182373	796.900000
794.218445	796.700000
794.254517	787.100000
794.290466	771.300000
794.326538	781.900000
794.362549	781.700000
794.398560	787.400000
794.434631	793.200000
794.470581	771.200000
794.506653	767.900000
794.542664	769.400000
794.578674	774.700000
794.614685	780.700000
794.650757	781.000000
794.686707	776.100000
794.722778	767.200000
794.758789	779.500000
794.794739	783.200000
794.830811	801.000000
794.866821	823.400000
794.902771	821.800000
794.938843	813.200000
794.974792	812.100000
795.010803	813.200000
795.046814	810.800000
795.082825	803.700000
795.118835	819.300000
795.154846	798.700000
795.190796	804.500000
795.226807	784.200000
795.262817	793.400000
795.298767	788.800000
795.334778	796.300000
795.370850	788.000000
795.406799	797.000000
795.442810	782.800000
795.478821	780.000000
795.514709	775.500000
795.550720	797.700000
795.586670	777.200000
795.622681	784.900000
795.658691	783.300000
795.694641	783.900000
795.730652	772.600000
795.766663	777.500000
795.802551	779.600000
795.838562	798.500000
795.874573	786.300000
795.910522	783.000000
795.946472	772.700000
795.982483	776.900000
796.018433	779.700000
796.054382	789.300000
796.090393	778.200000
796.126282	775.800000
796.162292	770.500000
796.198242	765.300000
796.234192	762.500000
796.270203	755.400000
796.306091	760.600000
796.342041	774.200000
796.378052	760.400000
796.413940	756.600000
796.449951	767.100000
796.485901	767.900000
796.521790	771.500000
796.557800	787.200000
796.593689	788.100000
796.629639	779.600000
796.665649	776.500000
796.701599	772.800000
796.737488	768.900000
796.773437	773.600000
796.809387	772.900000
796.845337	777.500000
796.881287	774.900000
796.917175	757.900000
796.953125	756.200000
796.989075	766.400000
797.024963	774.800000
797.060913	770.100000
797.096863	767.300000
797.132751	763.200000
797.168701	745.500000
797.204590	750.100000
797.240540	751.600000
797.276489	755.500000
797.312439	763.400000
797.348328	758.000000
797.384277	749.700000
797.420166	742.100000
797.456055	741.500000
797.492004	735.000000
797.527893	744.900000
797.563843	750.000000
797.599731	737.600000
797.635620	732.300000
797.671570	739.600000
797.707520	743.600000
797.743347	738.900000
797.779297	747.300000
797.815125	742.800000
797.851074	733.000000
797.887024	723.300000
797.922913	717.400000
797.958801	726.200000
797.994690	721.500000
798.030579	727.500000
798.066467	733.300000
798.102356	727.000000
798.138245	718.500000
798.174133	712.200000
798.210083	722.200000
798.245911	728.500000
798.281799	728.600000
798.317749	721.400000
798.353577	720.800000
798.389465	714.200000
798.425293	709.900000
798.461243	710.100000
798.497131	716.500000
798.532959	721.500000
798.568848	726.100000
798.604736	714.900000
798.640564	697.500000
798.676453	699.500000
798.712402	699.000000
798.748230	706.200000
798.784119	703.100000
798.820007	706.000000
798.855835	701.600000
798.891724	694.400000
798.927551	687.900000
798.963379	697.900000
798.999268	695.200000
799.035095	693.200000
799.070984	683.900000
799.106873	676.200000
799.142700	682.500000
799.178528	671.900000
799.214417	674.400000
799.250244	689.300000
799.286133	677.100000
799.321960	681.300000
799.357788	673.700000
799.393677	670.800000
799.429504	667.000000
799.465332	667.800000
799.501221	677.400000
799.537048	674.700000
799.572876	668.400000
799.608704	668.600000
799.644531	675.800000
799.680359	678.800000
799.716248	686.900000
799.752014	694.400000
799.787903	683.000000
799.823730	684.200000
799.859558	673.000000
799.895386	676.800000
799.931213	680.200000
799.967041	675.300000
800.002869	676.900000
800.038696	690.300000
800.074463	672.200000
800.110352	674.300000
800.146179	663.700000
800.181946	674.800000
800.217773	678.300000
800.253540	676.800000
800.289429	673.100000
800.325256	662.100000
800.361023	653.400000
800.396851	661.100000
800.432678	664.000000
800.468445	663.600000
800.504272	663.100000
800.540100	655.800000
800.575867	655.000000
800.611694	653.000000
800.647461	647.000000
800.683289	647.900000
800.719116	655.100000
800.754883	649.100000
800.790649	634.100000
800.826477	630.500000
800.862244	652.400000
800.898071	634.500000
800.933838	637.300000
800.969604	640.700000
801.005432	641.000000
801.041199	643.300000
801.076965	634.700000
801.112793	623.000000
801.148560	617.100000
801.184326	622.300000
801.220154	623.600000
801.255859	615.600000
801.291687	615.800000
801.327454	611.400000
801.363281	614.200000
801.398987	610.200000
801.434814	612.800000
801.470520	622.200000
801.506287	609.900000
801.542114	601.600000
801.577820	604.400000
801.613647	603.300000
801.649414	602.800000
801.685120	602.200000
801.720886	614.300000
801.756714	602.800000
801.792419	591.800000
801.828186	585.400000
801.863892	594.200000
801.899719	586.100000
801.935486	588.100000
801.971252	596.700000
802.006958	588.900000
802.042725	583.700000
802.078430	583.100000
802.114197	579.400000
802.149963	598.100000
802.185669	588.700000
802.221436	584.100000
802.257202	583.500000
802.292908	579.800000
802.328674	583.500000
802.364441	585.900000
802.400146	580.600000
802.435913	583.300000
802.471558	577.800000
802.507324	574.900000
802.543091	569.600000
802.578796	581.100000
802.614502	580.500000
802.650269	588.100000
802.685974	571.900000
802.721741	575.400000
802.757446	581.500000
802.793152	576.500000
802.828918	587.700000
802.864624	583.500000
802.900330	585.600000
802.936035	581.800000
802.971802	577.500000
803.007446	573.300000
803.043213	567.500000
803.078857	575.600000
803.114624	560.500000
803.150330	565.800000
803.185974	556.300000
803.221741	562.000000
803.257446	571.500000
803.293152	573.400000
803.328857	566.600000
803.364563	562.100000
803.400208	556.500000
803.435974	564.200000
803.471680	554.800000
803.507324	550.300000
803.543030	560.600000
803.578735	561.200000
803.614441	555.700000
803.650146	562.000000
803.685791	551.300000
803.721497	553.500000
803.757202	541.200000
803.792847	556.800000
803.828552	544.300000
803.864258	546.500000
803.899902	546.800000
803.935608	527.700000
803.971313	538.000000
804.006958	535.500000
804.042664	530.300000
804.078308	542.700000
804.113953	534.200000
804.149658	540.300000
804.185364	528.100000
804.221008	538.800000
804.256714	527.100000
804.292297	525.500000
804.328003	524.000000
804.363708	517.400000
804.399292	517.600000
804.434998	518.600000
804.470703	511.100000
804.506287	520.500000
804.541992	513.000000
804.577637	517.000000
804.613281	506.200000
804.648926	503.900000
804.684570	506.600000
804.720215	501.800000
804.755920	502.200000
804.791565	499.200000
804.827209	507.500000
804.862854	499.600000
804.898437	494.500000
804.934143	496.800000
804.969788	497.100000
805.005371	500.200000
805.041077	496.600000
805.076721	495.500000
805.112305	484.800000
805.147949	486.800000
805.183655	482.400000
805.219238	486.300000
805.254883	483.200000
805.290466	493.100000
805.326111	484.700000
805.361755	479.200000
805.397400	479.000000
805.432983	481.200000
805.468628	480.600000
805.504211	484.200000
805.539856	482.700000
805.575500	487.800000
805.611084	478.400000
805.646729	467.400000
805.682373	474.200000
805.717957	483.800000
805.753601	484.600000
805.789246	466.700000
805.824768	481.000000
805.860413	485.100000
805.895996	472.200000
805.931641	469.600000
805.967224	480.200000
806.002869	473.500000
806.038452	482.300000
806.074036	482.900000
806.109619	469.400000
806.145264	466.000000
806.180847	465.800000
806.216431	460.200000
806.252014	467.900000
806.287659	466.700000
806.323181	475.200000
806.358826	470.600000
806.394409	452.800000
806.429993	458.000000
806.465576	470.600000
806.501160	454.100000
806.536743	448.700000
806.572327	458.800000
806.607910	456.000000
806.643494	456.300000
806.679077	447.600000
806.714661	448.900000
806.750244	450.400000
806.785828	445.200000
806.821350	446.200000
806.856934	453.000000
806.892517	447.500000
806.928101	439.600000
806.963684	442.400000
806.999268	453.000000
807.034790	434.100000
807.070374	441.400000
807.105896	435.000000
807.141479	429.700000
807.177063	441.500000
807.212585	430.500000
807.248169	430.500000
807.283752	438.800000
807.319275	430.300000
807.354858	432.900000
807.390381	429.700000
807.425903	427.300000
807.461487	424.700000
807.497070	416.300000
807.532593	422.500000
807.568115	420.600000
807.603699	416.800000
807.639221	413.600000
807.674744	421.600000
807.710266	426.400000
807.745850	426.300000
807.781372	419.000000
807.816895	416.200000
807.852417	418.900000
807.888000	418.400000
807.923523	413.000000
807.959045	417.700000
807.994629	408.100000
808.030090	406.300000
808.065613	414.100000
808.101135	416.300000
808.136658	411.300000
808.172241	409.700000
808.207764	408.400000
808.243225	403.900000
808.278809	400.800000
808.314270	410.500000
808.349792	394.500000
808.385315	394.700000
808.420837	401.400000
808.456360	406.700000
808.491882	406.900000
808.527344	400.800000
808.562866	409.700000
808.598389	401.900000
808.633850	397.800000
808.669434	394.700000
808.704895	399.500000
808.740417	406.300000
808.775940	397.100000
808.811462	393.400000
808.846924	389.200000
808.882385	388.000000
808.917847	390.100000
808.953369	391.800000
808.988892	384.900000
809.024353	393.300000
809.059875	392.000000
809.095398	388.200000
809.130798	383.400000
809.166321	383.300000
809.201843	382.300000
809.237305	387.900000
809.272766	393.600000
809.308228	378.100000
809.343750	380.300000
809.379211	383.000000
809.414734	380.700000
809.450134	388.500000
809.485657	372.200000
809.521118	380.000000
809.556580	376.700000
809.592102	375.300000
809.627502	372.800000
809.663025	371.500000
809.698486	367.200000
809.733887	364.400000
809.769409	368.600000
809.804871	359.600000
809.840271	361.700000
809.875793	367.500000
809.911194	370.000000
809.946655	361.900000
809.982178	356.700000
810.017639	364.600000
810.053040	360.800000
810.088501	358.200000
810.123901	354.800000
810.159424	353.800000
810.194885	349.600000
810.230286	354.400000
810.265747	351.700000
810.301208	349.700000
810.336609	351.400000
810.372070	342.800000
810.407532	346.000000
810.442932	349.700000
810.478394	354.800000
810.513794	350.800000
810.549255	347.500000
810.584717	344.500000
810.620117	338.800000
810.655518	345.000000
810.690979	342.900000
810.726379	345.600000
810.761841	333.100000
810.797302	332.000000
810.832642	333.900000
810.868103	344.700000
810.903564	334.100000
810.938904	342.200000
810.974365	326.400000
811.009827	334.500000
811.045166	329.100000
811.080627	322.800000
811.115967	329.200000
811.151428	333.400000
811.186829	327.700000
811.222229	328.800000
811.257629	320.900000
811.293091	329.100000
811.328430	333.200000
811.363892	328.100000
811.399292	332.500000
811.434631	329.000000
811.470093	331.800000
811.505493	323.200000
811.540833	323.500000
811.576294	325.800000
811.611694	322.200000
811.647034	317.700000
811.682434	321.500000
811.717773	322.000000
811.753235	328.500000
811.788635	319.300000
811.823975	319.400000
811.859375	329.900000
811.894775	311.300000
811.930115	315.000000
811.965515	315.600000
812.000916	316.500000
812.036255	312.600000
812.071655	317.000000
812.106995	310.700000
812.142395	310.700000
812.177795	320.500000
812.213196	316.200000
812.248474	316.900000
812.283875	309.600000
812.319214	312.800000
812.354614	311.700000
812.390015	310.300000
812.425293	311.800000
812.460693	311.000000
812.496094	307.000000
812.531433	300.800000
812.566772	301.100000
812.602173	306.300000
812.637451	306.400000
812.672852	302.300000
812.708191	304.200000
812.743530	299.000000
812.778931	294.100000
812.814270	295.800000
812.849609	303.300000
812.884949	298.300000
812.920227	291.500000
812.955627	307.800000
812.990967	298.100000
813.026306	295.200000
813.061646	284.300000
813.096985	281.900000
813.132324	279.100000
813.167664	284.900000
813.203003	290.300000
813.238281	277.300000
813.273682	277.600000
813.308960	275.900000
813.344299	277.300000
813.379639	285.600000
813.414978	278.100000
813.450256	278.300000
813.485596	281.900000
813.520874	272.500000
813.556213	277.700000
813.591614	282.100000
813.626831	272.000000
813.662170	275.900000
813.697510	288.100000
813.732788	271.100000
813.768127	277.600000
813.803467	275.500000
813.838745	271.800000
813.874084	274.400000
813.909363	275.100000
813.944641	274.800000
813.979980	265.400000
814.015320	269.700000
814.050598	266.100000
814.085876	270.200000
814.121155	268.200000
814.156494	265.600000
814.191772	269.400000
814.227051	263.800000
814.262390	265.800000
814.297668	267.400000
814.332947	268.100000
814.368225	260.000000
814.403564	263.900000
814.438782	261.100000
814.474121	262.500000
814.509338	259.700000
814.544617	268.100000
814.579956	259.800000
814.615173	270.400000
814.650513	264.300000
814.685791	258.700000
814.721008	258.700000
814.756348	260.300000
814.791626	255.600000
814.826843	258.200000
814.862122	258.100000
814.897400	255.100000
814.932678	257.600000
814.967957	257.100000
815.003235	255.900000
815.038452	248.700000
815.073730	248.000000
815.108948	259.200000
815.144226	256.100000
815.179504	260.900000
815.214722	247.300000
815.250000	246.800000
815.285278	253.600000
815.320496	248.200000
815.355774	250.800000
815.391052	252.400000
815.426270	249.600000
815.461487	246.900000
815.496765	242.000000
815.531982	238.700000
815.567261	245.300000
815.602539	253.100000
815.637695	247.900000
815.672974	249.800000
815.708191	250.400000
815.743408	251.500000
815.778687	243.500000
815.813904	254.200000
815.849121	236.800000
815.884399	239.400000
815.919556	238.600000
815.954834	238.800000
815.990051	243.700000
816.025269	247.600000
816.060486	237.800000
816.095703	239.000000
816.130920	242.400000
816.166199	236.900000
816.201416	242.900000
816.236572	247.900000
816.271851	238.000000
816.307007	244.600000
816.342224	233.400000
816.377441	236.100000
816.412659	231.200000
816.447876	240.300000
816.483093	235.800000
816.518250	236.300000
816.553467	233.800000
816.588745	237.500000
816.623901	229.900000
816.659119	225.100000
816.694275	230.900000
816.729492	227.600000
816.764709	263.800000
816.799927	223.900000
816.835083	229.800000
816.870300	223.600000
816.905457	227.700000
816.940674	231.500000
816.975830	225.500000
817.010986	221.800000
817.046204	224.700000
817.081421	220.600000
817.116577	220.500000
817.151733	229.400000
817.186951	229.700000
817.222107	224.400000
817.257324	227.000000
817.292419	224.500000
817.327637	215.800000
817.362854	221.300000
817.398010	217.200000
817.433167	220.300000
817.468323	219.100000
817.503479	220.100000
817.538635	228.700000
817.573853	221.800000
817.608948	220.000000
817.644165	215.700000
817.679321	215.400000
817.714478	215.400000
817.749634	218.400000
817.784790	228.700000
817.819946	226.000000
817.855103	207.600000
817.890198	216.400000
817.925415	209.700000
817.960571	218.600000
817.995667	216.700000
818.030823	218.700000
818.066040	212.600000
818.101135	217.200000
818.136292	214.200000
818.171448	209.600000
818.206543	213.200000
818.241699	218.100000
818.276855	214.700000
818.311951	214.200000
818.347107	209.500000
818.382263	215.400000
818.417358	221.400000
818.452515	219.300000
818.487610	220.100000
818.522766	210.600000
818.557922	219.400000
818.593018	215.900000
818.628113	213.200000
818.663269	207.900000
818.698364	212.500000
818.733521	209.600000
818.768677	213.600000
818.803711	205.300000
818.838867	207.600000
818.874023	209.700000
818.909058	207.300000
818.944214	205.200000
818.979370	211.200000
819.014404	209.700000
819.049561	206.000000
819.084595	211.500000
819.119751	202.700000
819.154846	209.800000
819.189941	205.800000
819.225037	201.300000
819.260193	196.200000
819.295227	198.200000
819.330322	196.200000
819.365479	195.600000
819.400513	228.100000
819.435608	194.600000
819.470764	192.700000
819.505798	196.100000
819.540894	198.500000
819.575989	196.100000
819.611084	205.400000
819.646179	206.000000
819.681213	202.400000
819.716309	198.600000
819.751404	198.600000
819.786438	204.000000
819.821533	196.000000
819.856628	200.100000
819.891663	203.200000
819.926758	209.200000
819.961853	205.000000
819.996887	195.700000
820.031982	201.600000
820.067017	198.000000
820.102112	226.400000
820.137207	196.300000
820.172302	212.100000
820.207275	196.100000
820.242371	194.400000
820.277405	195.500000
820.312500	197.600000
820.347534	199.700000
820.382568	203.600000
820.417664	194.100000
820.452759	194.400000
820.487732	192.500000
820.522827	194.200000
820.557861	191.600000
820.592896	193.500000
820.627930	194.200000
820.662964	191.900000
820.698059	196.800000
820.733093	193.600000
820.768127	197.900000
820.803162	195.300000
820.838196	191.900000
820.873230	195.800000
820.908264	195.200000
820.943298	190.800000
820.978333	199.000000
821.013367	195.400000
821.048401	198.100000
821.083435	199.500000
821.118469	187.400000
821.153503	198.700000
821.188477	194.500000
821.223511	187.000000
821.258484	193.600000
821.293579	195.100000
821.328613	186.400000
821.363647	192.000000
821.398621	188.300000
821.433655	191.300000
821.468628	206.400000
821.503662	192.400000
821.538696	195.800000
821.573669	188.800000
821.608704	196.800000
821.643677	189.600000
821.678650	197.400000
821.713684	201.900000
821.748718	191.800000
821.783691	193.000000
821.818726	194.400000
821.853638	194.700000
821.888672	193.200000
821.923706	193.000000
821.958618	191.400000
821.993652	192.300000
822.028687	197.400000
822.063599	199.200000
822.098633	195.500000
822.133667	189.400000
822.168579	193.200000
822.203613	194.100000
822.238586	189.200000
822.273560	195.300000
822.308533	189.400000
822.343567	188.700000
822.378479	191.000000
822.413452	189.800000
822.448425	188.100000
822.483398	196.200000
822.518372	197.100000
822.553345	189.500000
822.588318	200.500000
822.623291	189.700000
822.658203	189.200000
822.693237	191.500000
822.728210	186.600000
822.763123	191.600000
822.798096	186.200000
822.833069	192.100000
822.867981	191.800000
822.902954	192.600000
822.937927	195.000000
822.972900	201.700000
823.007874	184.200000
823.042725	195.800000
823.077698	204.200000
823.112671	186.700000
823.147583	189.900000
823.182556	196.500000
823.217529	196.500000
823.252441	189.200000
823.287415	205.500000
823.322388	193.800000
823.357239	192.300000
823.392212	199.600000
823.427185	196.200000
823.462097	188.500000
823.497009	196.000000
823.531982	189.100000
823.566895	193.000000
823.601807	187.700000
823.636719	190.500000
823.671631	195.900000
823.706604	189.700000
823.741455	194.000000
823.776428	186.200000
823.811340	197.600000
823.846252	198.300000
823.881165	200.100000
823.916138	194.200000
823.950989	200.900000
823.985901	188.800000
824.020813	194.500000
824.055725	191.200000
824.090637	187.800000
824.125610	192.500000
824.160461	194.000000
824.195374	192.700000
824.230225	196.000000
824.265198	185.300000
824.300110	188.600000
824.334961	200.900000
824.369873	182.200000
824.404785	194.800000
824.439636	197.700000
824.474548	185.000000
824.509460	181.000000
824.544312	197.100000
824.579224	194.100000
824.614075	192.300000
824.648987	190.500000
824.683899	189.800000
824.718811	188.300000
824.753662	196.700000
824.788574	196.400000
824.823364	191.400000
824.858276	188.700000
824.893188	195.900000
824.928040	195.900000
824.962952	193.500000
824.997803	194.000000
825.032654	193.800000
825.067566	195.200000
825.102417	188.000000
825.137268	190.800000
825.172119	190.700000
825.206970	188.100000
825.241882	189.900000
825.276733	188.100000
825.311646	188.700000
825.346436	185.100000
825.381348	186.300000
825.416138	191.400000
825.450989	185.500000
825.485901	182.100000
825.520691	182.400000
825.555542	184.700000
825.590454	188.900000
825.625244	183.100000
825.660095	196.900000
825.695007	193.400000
825.729797	188.900000
825.764648	184.800000
825.799438	187.700000
825.834290	190.100000
825.869202	183.800000
825.903992	190.100000
825.938843	185.400000
825.973694	182.500000
826.008484	201.200000
826.043335	183.100000
826.078186	180.000000
826.112976	193.200000
826.147827	193.300000
826.182678	196.300000
826.217468	181.000000
826.252319	193.000000
826.287109	183.400000
826.321899	195.100000
826.356750	186.100000
826.391541	181.800000
826.426392	192.800000
826.461182	185.800000
826.495972	182.400000
826.530823	178.600000
826.565613	188.300000
826.600403	182.800000
826.635254	189.800000
826.670044	179.000000
826.704834	179.400000
826.739685	182.400000
826.774475	189.800000
826.809265	186.000000
826.844055	186.500000
826.878906	191.800000
826.913635	189.200000
826.948425	188.700000
826.983215	189.000000
827.018005	191.900000
827.052856	186.800000
827.087585	190.200000
827.122375	181.500000
827.157227	187.300000
827.191956	200.100000
827.226746	182.200000
827.261536	191.300000
827.296265	181.200000
827.331116	184.400000
827.365906	191.200000
827.400635	183.400000
827.435425	180.300000
827.470215	194.200000
827.504944	185.700000
827.539734	191.400000
827.574463	186.300000
827.609253	194.000000
827.644043	186.300000
827.678772	191.900000
827.713562	185.400000
827.748352	185.200000
827.783081	182.800000
827.817871	188.400000
827.852600	182.400000
827.887329	188.300000
827.922119	175.700000
827.956848	189.900000
827.991638	199.800000
828.026367	186.500000
828.061157	187.000000
828.095886	185.400000
828.130615	201.000000
828.165344	176.500000
828.200073	186.500000
828.234863	183.000000
828.269592	185.200000
828.304321	190.400000
828.339111	186.900000
828.373779	182.900000
828.408569	192.300000
828.443298	189.800000
828.477966	182.900000
828.512756	188.600000
828.547424	181.900000
828.582214	185.500000
828.616943	184.900000
828.651672	184.600000
828.686340	189.500000
828.721130	183.800000
828.755798	186.000000
828.790527	187.100000
828.825256	189.200000
828.859924	187.500000
828.894714	191.900000
828.929443	196.100000
828.964111	183.000000
828.998840	184.000000
829.033569	183.200000
829.068237	185.300000
829.102966	184.400000
829.137634	188.800000
829.172363	188.600000
829.207092	188.900000
829.241821	182.600000
829.276489	180.200000
829.311157	188.100000
829.345825	184.700000
829.380554	191.400000
829.415283	182.400000
829.449951	179.100000
829.484619	194.900000
829.519348	194.100000
829.554016	186.400000
829.588745	187.500000
829.623413	180.900000
829.658081	196.100000
829.692749	181.200000
829.727417	191.300000
829.762146	188.400000
829.796814	181.400000
829.831482	184.000000
829.866150	186.800000
829.900879	182.700000
829.935486	188.500000
829.970154	184.200000
830.004883	197.000000
830.039490	186.200000
830.074219	182.000000
830.108887	188.000000
830.143494	184.900000
830.178223	181.200000
830.212891	184.900000
830.247498	185.100000
830.282166	194.100000
830.316772	194.300000
830.351501	184.800000
830.386169	185.300000
830.420776	185.300000
830.455444	187.500000
830.490112	183.600000
830.524719	178.700000
830.559387	189.000000
830.594055	189.300000
830.628662	186.900000
830.663330	186.400000
830.697998	194.300000
830.732605	186.700000
830.767273	189.400000
830.801941	187.900000
830.836487	195.600000
830.871155	189.000000
830.905762	187.900000
830.940430	180.900000
830.975098	183.800000
831.009644	187.400000
831.044312	195.000000
831.078979	188.800000
831.113525	179.100000
831.148193	188.000000
831.182861	185.800000
831.217407	190.500000
831.252075	203.600000
831.286621	182.200000
831.321289	182.000000
831.355896	186.300000
831.390564	192.700000
831.425110	186.700000
831.459778	193.400000
831.494324	199.000000
831.528931	188.000000
831.563599	190.300000
831.598145	179.700000
831.632751	185.600000
831.667419	185.700000
831.701965	187.500000
831.736572	189.400000
831.771179	179.300000
831.805786	183.100000
831.840393	190.800000
831.874939	179.200000
831.909546	191.600000
831.944153	179.300000
831.978760	185.800000
832.013306	180.600000
832.047913	192.400000
832.082458	194.400000
832.117065	183.500000
832.151672	195.500000
832.186218	187.000000
832.220825	189.700000
832.255432	179.400000
832.289978	182.200000
832.324585	188.500000
832.359192	189.500000
832.393677	184.200000
832.428284	188.500000
832.462830	186.100000
832.497437	185.500000
832.531982	191.600000
832.566589	185.100000
832.601135	189.100000
832.635681	180.300000
832.670227	186.800000
832.704773	192.700000
832.739380	188.700000
832.773926	188.300000
832.808472	183.100000
832.843079	186.100000
832.877563	190.400000
832.912170	185.000000
832.946716	178.900000
832.981201	191.500000
833.015808	190.200000
833.050293	185.500000
833.084839	183.800000
833.119446	184.700000
833.153992	189.900000
833.188477	186.100000
833.223022	182.800000
833.257568	188.200000
833.292114	192.400000
833.326660	195.600000
833.361145	183.600000
833.395691	178.000000
833.430237	185.600000
833.464783	188.700000
833.499329	181.500000
833.533875	180.100000
833.568359	189.600000
833.602905	192.100000
833.637390	190.900000
833.671875	183.700000
833.706421	185.200000
833.740906	183.400000
833.775452	175.400000
833.809998	183.700000
833.844482	194.500000
833.879028	186.200000
833.913513	184.200000
833.947998	187.700000
833.982544	183.100000
834.017090	183.700000
834.051514	176.500000
834.086060	188.700000
834.120544	187.100000
834.155029	188.600000
834.189575	184.600000
834.223999	189.600000
834.258545	188.600000
834.293030	187.700000
834.327515	185.800000
834.362000	182.800000
834.396545	189.800000
834.430969	185.400000
834.465454	190.300000
834.500000	179.200000
834.534424	189.200000
834.568970	178.700000
834.603455	178.900000
834.637878	183.300000
834.672363	187.100000
834.706909	186.200000
834.741333	186.800000
834.775818	179.300000
834.810242	181.800000
834.844727	186.500000
834.879211	185.200000
834.913635	188.100000
834.948181	186.200000
834.982666	185.900000
835.017090	184.200000
835.051575	189.800000
835.086060	181.600000
835.120483	189.100000
835.154907	189.000000
835.189331	186.600000
835.223816	188.600000
835.258301	180.400000
835.292786	180.500000
835.327209	190.900000
835.361694	182.000000
835.396057	183.600000
835.430542	190.200000
835.465027	188.000000
835.499390	180.800000
835.533875	205.900000
835.568359	184.500000
835.602722	178.500000
835.637207	187.600000
835.671692	181.400000
835.706055	202.900000
835.740540	188.900000
835.774902	189.200000
835.809387	188.000000
835.843811	181.100000
835.878235	195.000000
835.912659	181.000000
835.947083	184.600000
835.981506	186.000000
836.015930	179.900000
836.050354	191.300000
836.084778	195.500000
836.119202	190.900000
836.153625	200.100000
836.187988	183.300000
836.222473	183.100000
836.256897	187.800000
836.291260	184.700000
836.325684	189.200000
836.360046	184.000000
836.394470	185.400000
836.428894	192.800000
836.463318	183.000000
836.497681	189.600000
836.532104	193.200000
836.566467	187.100000
836.600891	183.900000
836.635315	192.300000
836.669678	189.000000
836.704102	192.000000
836.738525	188.600000
836.772888	178.000000
836.807251	183.500000
836.841675	187.700000
836.876038	182.200000
836.910461	182.300000
836.944763	189.400000
836.979187	183.100000
837.013611	192.100000
837.047974	179.000000
837.082336	197.700000
837.116699	189.600000
837.151062	184.200000
837.185486	179.900000
837.219849	184.600000
837.254211	188.900000
837.288574	185.300000
837.322937	181.100000
837.357300	174.200000
837.391663	199.400000
837.426086	190.900000
837.460388	187.400000
837.494751	190.700000
837.529114	183.700000
837.563477	191.100000
837.597839	188.200000
837.632141	187.100000
837.666565	182.400000
837.700928	188.400000
837.735229	189.500000
837.769592	188.800000
837.803955	191.200000
837.838257	184.100000
837.872620	184.000000
837.906982	195.500000
837.941284	187.800000
837.975647	188.300000
838.010010	193.500000
838.044312	183.900000
838.078674	184.300000
838.112976	188.100000
838.147339	190.200000
838.181702	186.200000
838.216003	196.100000
838.250366	187.300000
838.284668	190.400000
838.318970	179.800000
838.353333	186.900000
838.387634	185.300000
838.421936	187.200000
838.456299	187.900000
838.490601	195.300000
838.524902	189.200000
838.559265	191.800000
838.593567	189.000000
838.627869	179.300000
838.662170	187.700000
838.696472	179.900000
838.730774	182.200000
838.765137	191.000000
838.799377	172.300000
838.833740	186.800000
838.868042	190.700000
838.902283	178.900000
838.936646	192.600000
838.970947	188.200000
839.005188	192.200000
839.039551	179.100000
839.073792	195.500000
839.108093	183.600000
839.142395	195.400000
839.176697	180.300000
839.210937	187.200000
839.245300	197.900000
839.279541	181.600000
839.313843	184.800000
839.348145	189.200000
839.382385	191.900000
839.416687	191.800000
839.450989	190.000000
839.485229	186.600000
839.519531	182.100000
839.553833	192.600000
839.588013	186.500000
839.622314	187.200000
839.656555	189.600000
839.690857	187.700000
839.725159	180.700000
839.759460	186.500000
839.793640	182.900000
839.827942	186.000000
839.862183	182.400000
839.896423	187.300000
839.930725	196.100000
839.964966	193.500000
839.999207	194.100000
840.033508	193.900000
840.067688	183.900000
840.101990	196.000000
840.136230	186.600000
840.170471	195.000000
840.204712	182.600000
840.238953	182.100000
840.273193	187.700000
840.307434	189.000000
840.341736	182.100000
840.375916	181.600000
840.410217	182.400000
840.444397	191.100000
840.478638	189.000000
840.512878	192.900000
840.547119	186.400000
840.581360	189.600000
840.615601	195.400000
840.649780	196.600000
840.684021	185.800000
840.718262	195.100000
840.752441	192.000000
840.786682	187.400000
840.820862	188.300000
840.855103	194.200000
840.889343	187.800000
840.923584	191.900000
840.957764	188.500000
840.992004	188.800000
841.026184	202.200000
841.060425	185.800000
841.094666	184.400000
841.128845	190.400000
841.163025	188.200000
841.197266	189.900000
841.231445	187.400000
841.265686	187.800000
841.299866	184.700000
841.334045	195.100000
841.368286	187.400000
841.402405	194.400000
841.436646	191.200000
841.470825	185.800000
841.505005	187.600000
841.539185	183.800000
841.573425	184.500000
841.607544	187.400000
841.641785	186.700000
841.675964	183.100000
841.710144	188.100000
841.744324	184.200000
841.778503	186.700000
841.812683	182.900000
841.846863	194.900000
841.881042	194.100000
841.915222	183.600000
841.949402	201.100000
841.983521	179.800000
842.017700	184.800000
842.051880	188.100000
842.086060	189.000000
842.120239	187.900000
842.154419	185.400000
842.188538	188.200000
842.222717	183.400000
842.256897	197.600000
842.291016	185.200000
842.325195	188.100000
842.359375	196.900000
842.393494	194.300000
842.427673	187.000000
842.461853	190.200000
842.495911	195.600000
842.530090	187.400000
842.564209	186.100000
842.598389	188.700000
842.632568	187.800000
842.666626	192.400000
842.700806	184.100000
842.734985	184.000000
842.769043	190.500000
842.803223	185.500000
842.837402	187.200000
842.871460	185.900000
842.905640	196.900000
842.939697	183.400000
842.973877	189.800000
843.007996	193.700000
843.042175	197.600000
843.076233	184.600000
843.110413	189.900000
843.144470	197.800000
843.178589	191.500000
843.212769	185.000000
843.246826	191.700000
843.280945	186.100000
843.315125	186.900000
843.349182	183.600000
843.383301	193.400000
843.417419	200.700000
843.451538	188.000000
843.485657	185.500000
843.519714	188.400000
843.553833	189.600000
843.587952	185.800000
843.622070	184.300000
843.656128	191.400000
843.690247	184.300000
843.724304	186.200000
843.758423	190.100000
843.792542	186.100000
843.826599	186.200000
843.860718	185.900000
843.894836	180.100000
843.928894	188.900000
843.963013	189.200000
843.997070	184.200000
844.031128	180.300000
844.065247	192.200000
844.099304	191.800000
844.133362	188.200000
844.167480	190.400000
844.201599	194.000000
844.235596	189.200000
844.269714	189.500000
844.303711	190.900000
844.337830	179.500000
844.371948	191.100000
844.405945	187.900000
844.440063	182.100000
844.474121	203.100000
844.508118	186.600000
844.542236	187.200000
844.576294	188.000000
844.610352	182.100000
844.644409	187.900000
844.678406	180.700000
844.712524	193.100000
844.746582	194.700000
844.780640	188.300000
844.814636	189.100000
844.848755	200.200000
844.882751	186.400000
844.916809	193.300000
844.950867	191.800000
844.984863	197.300000
845.018921	186.400000
845.052979	185.200000
845.086975	187.800000
845.121033	182.000000
845.155090	184.800000
845.189087	193.900000
845.223145	185.100000
845.257141	187.600000
845.291199	191.900000
845.325256	194.900000
845.359253	189.400000
845.393250	199.800000
845.427307	187.100000
845.461304	190.300000
845.495361	188.400000
845.529358	199.400000
845.563354	185.100000
845.597412	182.900000
845.631409	196.000000
845.665405	195.000000
845.699463	192.400000
845.733459	187.300000
845.767456	195.000000
845.801453	186.200000
845.835449	195.600000
845.869446	191.400000
845.903503	192.900000
845.937439	184.000000
845.971497	193.400000
846.005493	181.200000
846.039429	190.200000
846.073486	197.100000
846.107483	186.900000
846.141418	186.800000
846.175476	188.000000
846.209473	195.100000
846.243408	183.700000
846.277405	187.600000
846.311401	186.000000
846.345337	188.800000
846.379395	193.200000
846.413330	185.800000
846.447327	196.900000
846.481323	183.200000
846.515259	185.900000
846.549255	188.600000
846.583252	191.800000
846.617187	182.500000
846.651184	190.200000
846.685120	187.500000
846.719055	197.000000
846.753052	194.500000
846.786987	193.800000
846.820984	182.500000
846.854980	195.000000
846.888916	184.500000
846.922852	191.300000
846.956848	197.400000
846.990723	185.100000
847.024719	189.200000
847.058716	187.600000
847.092590	196.300000
847.126587	190.200000
847.160522	185.300000
847.194458	191.900000
847.228455	183.600000
847.262390	183.100000
847.296265	186.200000
847.330261	194.900000
847.364136	186.300000
847.398132	184.800000
847.432068	187.700000
847.466003	186.900000
847.499939	186.300000
847.533875	189.700000
847.567749	186.400000
847.601746	186.100000
847.635681	190.500000
847.669556	180.700000
847.703491	192.600000
847.737427	201.100000
847.771301	183.900000
847.805237	189.100000
847.839233	189.800000
847.873108	188.800000
847.907043	186.100000
847.940918	194.400000
847.974854	189.500000
848.008789	192.200000
848.042664	188.400000
848.076538	192.100000
848.110474	189.500000
848.144348	188.800000
848.178284	182.500000
848.212219	189.700000
848.246094	187.700000
848.279968	189.700000
848.313904	192.600000
848.347778	189.200000
848.381653	187.900000
848.415588	186.300000
848.449463	187.400000
848.483337	191.400000
848.517212	195.200000
848.551086	188.900000
848.585022	184.100000
848.618835	196.400000
848.652771	185.500000
848.686646	185.400000
848.720520	198.100000
848.754395	187.500000
848.788330	193.000000
848.822144	193.000000
848.856018	186.600000
848.889954	197.400000
848.923767	184.000000
848.957642	183.800000
848.991577	192.700000
849.025391	186.000000
849.059265	187.100000
849.093079	184.500000
849.126953	184.200000
849.160828	192.400000
849.194641	189.000000
849.228577	187.100000
849.262451	186.000000
849.296265	186.600000
849.330139	182.800000
849.364014	189.500000
849.397827	191.900000
849.431702	187.900000
849.465515	192.700000
849.499329	180.100000
849.533203	183.900000
849.567078	179.400000
849.600891	191.300000
849.634766	187.700000
849.668518	192.500000
849.702393	190.100000
849.736267	182.500000
849.770020	200.000000
849.803894	192.400000
849.837769	190.300000
849.871521	189.600000
849.905396	195.000000
849.939270	185.400000
849.973022	188.200000
850.006897	191.700000
850.040710	191.800000
850.074524	193.000000
850.108337	187.500000
850.142151	192.600000
850.175964	195.300000
850.209778	188.000000
850.243530	176.500000
850.277405	193.400000
850.311218	189.400000
850.344971	186.700000
850.378845	196.200000
850.412659	185.400000
850.446411	189.400000
850.480225	188.700000
850.514038	193.700000
850.547791	190.700000
850.581665	188.100000
850.615417	184.300000
850.649231	189.700000
850.683044	188.400000
850.716858	186.500000
850.750610	188.100000
850.784424	192.900000
850.818176	183.800000
850.851929	186.800000
850.885742	185.400000
850.919495	186.600000
850.953308	193.900000
850.987122	194.300000
851.020874	183.200000
851.054626	180.600000
851.088440	191.800000
851.122192	192.600000
851.156006	188.500000
851.189697	188.900000
851.223511	184.000000
851.257263	193.100000
851.291077	192.100000
851.324829	188.600000
851.358582	185.500000
851.392334	185.600000
851.426086	187.800000
851.459900	197.000000
851.493591	189.900000
851.527344	189.400000
851.561157	189.800000
851.594849	191.500000
851.628662	189.200000
851.662415	196.700000
851.696106	192.800000
851.729858	194.500000
851.763611	183.200000
851.797363	190.500000
851.831116	184.700000
851.864868	192.100000
851.898560	193.600000
851.932312	186.500000
851.966064	191.400000
851.999817	189.100000
852.033569	188.200000
852.067261	193.600000
852.101013	185.300000
852.134766	187.400000
852.168457	179.400000
852.202209	193.800000
852.235901	184.400000
852.269592	191.800000
852.303345	198.700000
852.337036	192.900000
852.370789	188.700000
852.404541	192.400000
852.438171	183.900000
852.471924	188.200000
852.505676	182.100000
852.539307	191.200000
852.573059	184.900000
852.606812	186.400000
852.640442	188.200000
852.674194	193.100000
852.707886	199.700000
852.741577	196.300000
852.775269	183.400000
852.809021	190.000000
852.842651	190.700000
852.876404	192.600000
852.910034	190.200000
852.943787	194.700000
852.977478	191.800000
853.011108	184.600000
853.044861	186.500000
853.078552	195.200000
853.112183	190.100000
853.145874	191.600000
853.179626	180.800000
853.213257	190.800000
853.246948	186.800000
853.280640	197.200000
853.314270	188.200000
853.347961	195.800000
853.381653	190.800000
853.415283	194.300000
853.448975	186.700000
853.482605	191.500000
853.516296	187.300000
853.549988	183.800000
853.583618	190.300000
853.617310	192.000000
853.651001	191.300000
853.684631	185.400000
853.718323	186.000000
853.751953	196.900000
853.785583	181.500000
853.819275	192.800000
853.852966	189.200000
853.886536	180.800000
853.920227	183.500000
853.953918	194.200000
853.987488	186.500000
854.021179	192.400000
854.054749	195.100000
854.088440	191.700000
854.122131	184.000000
854.155701	191.800000
854.189331	184.300000
854.223022	190.900000
854.256592	191.700000
854.290283	185.800000
854.323914	191.900000
854.357483	189.900000
854.391174	191.100000
854.424744	199.300000
854.458374	190.600000
854.492065	200.000000
854.525696	186.500000
854.559265	195.100000
854.592896	199.800000
854.626465	188.700000
854.660095	190.300000
854.693787	190.600000
854.727356	188.000000
854.760986	192.500000
854.794617	191.300000
854.828186	186.100000
854.861816	194.300000
854.895447	189.100000
854.929016	190.000000
854.962585	191.400000
854.996155	198.200000
855.029785	193.400000
855.063416	192.000000
855.097046	192.700000
855.130615	184.100000
855.164185	196.200000
855.197754	189.400000
855.231384	191.800000
855.264954	188.100000
855.298523	193.400000
855.332153	190.500000
855.365723	196.600000
855.399292	185.800000
855.432922	189.300000
855.466492	191.600000
855.500061	186.200000
855.533630	186.600000
855.567200	190.700000
855.600769	193.100000
855.634338	193.900000
855.667969	191.400000
855.701477	185.000000
855.735046	185.600000
855.768616	180.900000
855.802185	191.800000
855.835754	202.400000
855.869324	180.600000
855.902893	187.400000
855.936401	195.500000
855.969971	189.400000
856.003540	181.400000
856.037109	191.300000
856.070618	188.100000
856.104187	182.900000
856.137695	187.700000
856.171265	180.300000
856.204834	188.600000
856.238403	193.700000
856.271912	185.300000
856.305481	190.600000
856.338989	181.800000
856.372559	192.600000
856.406128	191.100000
856.439636	194.300000
856.473145	185.900000
856.506653	196.500000
856.540222	188.400000
856.573792	195.700000
856.607300	192.600000
856.640808	184.100000
856.674377	190.400000
856.707825	218.800000
856.741394	194.000000
856.774902	186.600000
856.808472	180.400000
856.841980	192.000000
856.875488	196.700000
856.908936	183.000000
856.942505	188.200000
856.976013	189.200000
857.009521	184.900000
857.043030	189.600000
857.076477	187.300000
857.110046	194.700000
857.143555	189.800000
857.177063	193.800000
857.210571	187.700000
857.244080	182.900000
857.277527	192.100000
857.311035	188.600000
857.344543	193.000000
857.378052	189.300000
857.411499	194.900000
857.445068	198.500000
857.478516	188.600000
857.512024	183.800000
857.545532	186.700000
857.578979	191.200000
857.612427	190.100000
857.645874	184.200000
857.679382	189.400000
857.712891	193.700000
857.746399	188.900000
857.779846	193.600000
857.813354	193.600000
857.846741	187.600000
857.880249	186.200000
857.913757	190.300000
857.947266	189.700000
857.980652	191.800000
858.014160	185.800000
858.047546	185.400000
858.081055	188.000000
858.114563	198.400000
858.147949	183.500000
858.181458	194.000000
858.214844	187.800000
858.248352	181.700000
858.281799	193.600000
858.315308	200.900000
858.348694	193.100000
858.382141	199.500000
858.415588	194.400000
858.449036	194.900000
858.482483	191.900000
858.515930	186.100000
858.549377	189.300000
858.582825	196.800000
858.616211	193.800000
858.649658	193.000000
858.683105	183.500000
858.716553	186.800000
858.750000	184.200000
858.783386	187.000000
858.816833	181.100000
858.850281	190.100000
858.883728	191.200000
858.917114	190.300000
858.950562	197.300000
858.983948	196.500000
859.017395	194.600000
859.050781	187.600000
859.084167	184.700000
859.117615	182.700000
859.151062	191.400000
859.184448	185.000000
859.217834	186.900000
859.251282	186.200000
859.284668	185.300000
859.318054	180.300000
859.351440	186.600000
859.384888	195.400000
859.418274	181.000000
859.451721	180.300000
859.485046	190.200000
859.518494	190.500000
859.551819	185.600000
859.585266	192.100000
859.618652	191.700000
859.652039	182.900000
859.685425	183.900000
859.718811	181.900000
859.752197	178.200000
859.785583	195.700000
859.819031	196.400000
859.852356	192.300000
859.885742	185.800000
859.919067	188.000000
859.952454	188.200000
859.985901	193.300000
860.019287	186.800000
860.052612	0.000000
860.085999	0.000000
860.119324	0.000000
860.152710	0.000000
860.186096	0.000000
860.219421	0.000000
860.252808	0.000000
860.286133	0.000000
860.319519	0.000000
860.352905	0.000000
860.386292	0.000000
860.419617	0.000000
860.452942	0.000000
860.486267	0.000000
860.519653	0.000000
860.553040	0.000000
860.586365	0.000000
860.619690	0.000000
860.653076	0.000000
860.686340	0.000000
860.719727	0.000000
860.753113	0.000000
860.786377	0.000000
860.819763	0.000000
860.853027	0.000000
860.886414	0.000000
860.919739	0.000000
860.953125	0.000000
860.986389	0.000000
861.019714	0.000000
861.053040	0.000000
861.086365	0.000000
861.119690	0.000000
861.153076	0.000000
861.186340	0.000000
861.219666	0.000000
861.252930	0.000000
861.286316	0.000000
861.319641	0.000000
861.352905	0.000000
861.386230	0.000000
861.419495	0.000000
861.452820	0.000000
861.486145	0.000000
861.519470	0.000000
861.552734	0.000000
861.586060	0.000000
861.619324	0.000000
861.652649	0.000000
861.685974	0.000000
861.719238	0.000000
861.752563	0.000000
861.785828	0.000000
861.819092	0.000000
861.852417	0.000000
861.885742	0.000000
861.918945	0.000000
861.952271	0.000000
861.985535	0.000000
862.018799	0.000000
862.052124	0.000000
862.085449	0.000000
862.118652	0.000000
862.151978	0.000000
862.185181	0.000000
862.218506	0.000000
862.251770	0.000000
862.285034	0.000000
862.318298	0.000000
862.351562	0.000000
862.384827	0.000000
862.418091	0.000000
862.451355	0.000000
862.484619	0.000000
862.517883	0.000000
862.551086	0.000000
862.584351	0.000000
862.617676	0.000000
862.650940	0.000000
862.684143	0.000000
862.717407	0.000000
862.750610	0.000000
862.783875	0.000000
862.817139	0.000000
862.850342	0.000000
862.883606	0.000000
862.916870	0.000000
862.950073	0.000000
862.983337	0.000000
863.016602	0.000000
863.049805	0.000000
863.083069	0.000000
863.116211	0.000000
863.149475	0.000000
863.182739	0.000000
863.216003	0.000000
863.249146	0.000000
863.282410	0.000000
863.315613	0.000000
863.348816	0.000000
863.382080	0.000000
863.415222	0.000000
863.448486	0.000000
863.481689	0.000000
863.514893	0.000000
863.548157	0.000000
863.581360	0.000000
863.614502	0.000000
863.647766	0.000000
863.680908	0.000000
863.714172	0.000000
863.747375	0.000000
863.780579	0.000000
863.813721	0.000000
863.846985	0.000000
863.880127	0.000000
863.913330	0.000000
863.946533	0.000000
863.979675	0.000000
864.012939	0.000000
