Model Number: SPM-001-M   
Serial Number: 10090201
Firmware Version: 004.17.6
Exposure Time: 500000.000000us
Data Taken on: 03-03-2021 09:47:16.167
Wavelength	Amplitude
733.770752	0.000000
733.808716	0.000000
733.846619	0.000000
733.884583	0.000000
733.922546	0.000000
733.960449	0.000000
733.998413	0.000000
734.036377	0.000000
734.074219	0.000000
734.112183	0.000000
734.150085	0.000000
734.188049	0.000000
734.226013	0.000000
734.263916	0.000000
734.301819	0.000000
734.339783	0.000000
734.377686	0.000000
734.415588	0.000000
734.453552	0.000000
734.491455	0.000000
734.529419	0.000000
734.567322	0.000000
734.605225	0.000000
734.643127	0.000000
734.681091	0.000000
734.718994	0.000000
734.756897	0.000000
734.794800	0.000000
734.832703	0.000000
734.870667	0.000000
734.908508	0.000000
734.946472	0.000000
734.984375	0.000000
735.022278	0.000000
735.060181	0.000000
735.098083	0.000000
735.135986	0.000000
735.173889	0.000000
735.211792	0.000000
735.249695	0.000000
735.287598	0.000000
735.325439	0.000000
735.363403	0.000000
735.401306	0.000000
735.439148	0.000000
735.477051	0.000000
735.515015	0.000000
735.552856	0.000000
735.590759	0.000000
735.628662	0.000000
735.666504	0.000000
735.704407	0.000000
735.742310	0.000000
735.780212	0.000000
735.818115	0.000000
735.856018	0.000000
735.893860	0.000000
735.931763	0.000000
735.969604	0.000000
736.007507	0.000000
736.045410	0.000000
736.083252	0.000000
736.121094	0.000000
736.158997	0.000000
736.196838	0.000000
736.234741	0.000000
736.272644	0.000000
736.310486	0.000000
736.348389	0.000000
736.386230	0.000000
736.424072	0.000000
736.461975	0.000000
736.499878	0.000000
736.537720	0.000000
736.575562	0.000000
736.613403	0.000000
736.651306	0.000000
736.689148	0.000000
736.726990	0.000000
736.764893	0.000000
736.802734	0.000000
736.840576	0.000000
736.878418	0.000000
736.916321	0.000000
736.954102	0.000000
736.992004	0.000000
737.029846	0.000000
737.067688	0.000000
737.105530	0.000000
737.143372	0.000000
737.181213	0.000000
737.219116	0.000000
737.256897	0.000000
737.294739	0.000000
737.332642	0.000000
737.370422	0.000000
737.408325	0.000000
737.446167	0.000000
737.483948	0.000000
737.521790	0.000000
737.559692	0.000000
737.597473	0.000000
737.635315	0.000000
737.673157	0.000000
737.710999	0.000000
737.748840	0.000000
737.786621	0.000000
737.824463	0.000000
737.862305	0.000000
737.900085	0.000000
737.937927	0.000000
737.975769	0.000000
738.013550	0.000000
738.051392	0.000000
738.089233	0.000000
738.127014	0.000000
738.164856	0.000000
738.202698	0.000000
738.240479	0.000000
738.278320	0.000000
738.316162	0.000000
738.353943	0.000000
738.391785	0.000000
738.429565	0.000000
738.467407	0.000000
738.505188	0.000000
738.542969	0.000000
738.580811	0.000000
738.618652	0.000000
738.656372	0.000000
738.694214	0.000000
738.732056	0.000000
738.769836	0.000000
738.807617	0.000000
738.845459	0.000000
738.883240	0.000000
738.921021	0.000000
738.958862	0.000000
738.996582	0.000000
739.034424	0.000000
739.072205	0.000000
739.109985	0.000000
739.147827	0.000000
739.185547	0.000000
739.223389	0.000000
739.261169	0.000000
739.298889	0.000000
739.336731	0.000000
739.374512	0.000000
739.412292	0.000000
739.450073	0.000000
739.487854	0.000000
739.525635	0.000000
739.563416	0.000000
739.601135	0.000000
739.638977	0.000000
739.676758	0.000000
739.714478	0.000000
739.752258	0.000000
739.790100	0.000000
739.827820	0.000000
739.865601	0.000000
739.903381	0.000000
739.941101	0.000000
739.978882	189.400000
740.016724	184.800000
740.054443	189.800000
740.092224	182.500000
740.130005	183.000000
740.167725	183.500000
740.205505	182.800000
740.243225	192.400000
740.281006	187.300000
740.318787	178.900000
740.356506	192.500000
740.394287	192.100000
740.432068	182.800000
740.469727	180.500000
740.507507	188.300000
740.545288	185.900000
740.583008	189.200000
740.620789	188.800000
740.658569	177.900000
740.696228	185.500000
740.734009	190.300000
740.771790	175.400000
740.809509	190.500000
740.847229	182.000000
740.884949	182.500000
740.922729	179.800000
740.960449	184.300000
740.998169	182.100000
741.035950	182.600000
741.073669	187.000000
741.111389	186.000000
741.149170	196.300000
741.186890	196.300000
741.224609	190.100000
741.262329	188.700000
741.300110	196.400000
741.337769	180.700000
741.375549	180.100000
741.413208	187.300000
741.450989	181.900000
741.488708	183.500000
741.526367	185.100000
741.564148	188.700000
741.601868	190.800000
741.639526	184.700000
741.677307	188.900000
741.715027	188.300000
741.752686	183.000000
741.790466	192.600000
741.828186	189.000000
741.865845	181.700000
741.903564	178.900000
741.941345	186.500000
741.979004	181.300000
742.016724	188.700000
742.054382	188.400000
742.092102	189.600000
742.129822	179.000000
742.167480	183.600000
742.205200	185.100000
742.242920	187.100000
742.280640	192.000000
742.318359	182.300000
742.356079	183.900000
742.393738	190.000000
742.431396	186.400000
742.469116	189.900000
742.506775	177.100000
742.544495	188.700000
742.582214	189.700000
742.619873	185.700000
742.657593	192.000000
742.695251	190.400000
742.732971	184.500000
742.770630	188.700000
742.808289	185.900000
742.846008	186.400000
742.883728	188.100000
742.921326	186.000000
742.959045	183.800000
742.996765	187.000000
743.034424	186.000000
743.072083	184.500000
743.109802	185.600000
743.147400	180.700000
743.185120	187.700000
743.222839	186.000000
743.260437	192.600000
743.298157	189.600000
743.335754	178.300000
743.373474	184.200000
743.411133	177.800000
743.448792	187.300000
743.486450	185.100000
743.524170	178.100000
743.561768	186.000000
743.599487	190.900000
743.637146	196.500000
743.674744	185.600000
743.712463	182.400000
743.750122	186.600000
743.787720	187.900000
743.825439	182.700000
743.863037	183.100000
743.900696	185.900000
743.938416	211.400000
743.976013	185.500000
744.013672	194.600000
744.051331	191.100000
744.088928	194.500000
744.126587	193.200000
744.164307	188.600000
744.201904	183.800000
744.239563	190.100000
744.277222	188.600000
744.314819	184.900000
744.352478	194.000000
744.390137	187.900000
744.427734	188.200000
744.465393	184.900000
744.502991	182.000000
744.540649	189.100000
744.578308	186.300000
744.615906	180.900000
744.653564	176.600000
744.691223	190.500000
744.728821	178.400000
744.766418	186.300000
744.804077	189.500000
744.841675	184.200000
744.879333	178.500000
744.916992	185.300000
744.954529	183.500000
744.992187	190.900000
745.029785	185.000000
745.067444	184.300000
745.105042	186.200000
745.142639	189.500000
745.180298	196.600000
745.217896	184.700000
745.255493	184.400000
745.293152	191.400000
745.330750	190.900000
745.368347	195.300000
745.405945	188.800000
745.443604	187.600000
745.481140	189.700000
745.518799	184.400000
745.556396	188.900000
745.593994	190.600000
745.631592	185.900000
745.669189	181.100000
745.706787	187.500000
745.744385	183.200000
745.781982	188.500000
745.819580	184.000000
745.857178	183.500000
745.894775	185.900000
745.932373	187.900000
745.969971	189.300000
746.007568	177.100000
746.045166	193.900000
746.082764	191.500000
746.120300	189.500000
746.157898	190.000000
746.195557	186.200000
746.233093	181.200000
746.270691	188.800000
746.308228	187.700000
746.345825	190.900000
746.383423	190.400000
746.420959	182.500000
746.458557	183.400000
746.496155	185.900000
746.533691	187.100000
746.571289	181.600000
746.608887	185.600000
746.646423	187.400000
746.684021	185.900000
746.721619	183.500000
746.759155	188.100000
746.796753	179.500000
746.834351	181.200000
746.871826	181.900000
746.909424	192.300000
746.946960	187.500000
746.984558	186.300000
747.022156	184.600000
747.059631	194.700000
747.097229	189.000000
747.134827	184.000000
747.172363	191.800000
747.209900	189.100000
747.247498	180.800000
747.285034	193.600000
747.322571	193.600000
747.360168	185.400000
747.397644	178.900000
747.435242	190.600000
747.472778	190.500000
747.510315	185.200000
747.547913	184.400000
747.585388	193.400000
747.622925	184.900000
747.660522	178.100000
747.697998	181.100000
747.735596	185.600000
747.773132	182.800000
747.810669	186.200000
747.848206	189.700000
747.885742	182.000000
747.923279	181.100000
747.960815	188.700000
747.998352	185.700000
748.035889	190.100000
748.073425	190.600000
748.110901	183.300000
748.148437	181.300000
748.185974	185.400000
748.223511	196.000000
748.261047	188.100000
748.298584	188.900000
748.336060	185.500000
748.373596	189.200000
748.411133	206.600000
748.448608	183.400000
748.486145	189.500000
748.523682	194.800000
748.561218	192.400000
748.598755	187.900000
748.636292	190.200000
748.673706	184.600000
748.711243	192.400000
748.748718	188.700000
748.786255	187.100000
748.823792	188.300000
748.861267	181.200000
748.898804	188.600000
748.936340	187.700000
748.973816	184.900000
749.011292	192.500000
749.048828	187.900000
749.086304	189.300000
749.123840	197.600000
749.161316	183.000000
749.198792	195.100000
749.236328	193.000000
749.273743	186.400000
749.311279	185.600000
749.348816	189.200000
749.386230	187.700000
749.423767	176.400000
749.461304	188.500000
749.498718	186.800000
749.536255	193.300000
749.573730	198.800000
749.611206	192.000000
749.648682	187.100000
749.686218	186.700000
749.723633	190.900000
749.761169	184.600000
749.798645	182.900000
749.836060	185.800000
749.873596	184.300000
749.911011	185.900000
749.948547	193.700000
749.986023	187.400000
750.023437	186.000000
750.060913	180.200000
750.098450	180.000000
750.135864	186.400000
750.173340	185.600000
750.210815	191.600000
750.248291	181.800000
750.285767	188.000000
750.323242	191.500000
750.360657	189.000000
750.398132	182.000000
750.435608	190.800000
750.473022	182.200000
750.510498	183.200000
750.547974	181.900000
750.585449	185.100000
750.622925	176.800000
750.660339	196.300000
750.697815	186.800000
750.735291	186.200000
750.772644	185.400000
750.810120	188.600000
750.847595	187.600000
750.885010	181.200000
750.922485	195.600000
750.959961	185.000000
750.997375	194.000000
751.034851	190.800000
751.072266	189.700000
751.109680	180.300000
751.147156	192.100000
751.184570	189.700000
751.221985	188.000000
751.259460	177.700000
751.296875	187.200000
751.334290	187.100000
751.371765	190.000000
751.409180	191.600000
751.446594	193.000000
751.484070	189.300000
751.521423	188.500000
751.558899	189.800000
751.596375	192.500000
751.633728	194.500000
751.671204	199.900000
751.708618	183.000000
751.746033	188.200000
751.783447	182.100000
751.820801	182.300000
751.858276	189.600000
751.895691	186.400000
751.933105	185.000000
751.970520	182.000000
752.007935	184.700000
752.045349	191.200000
752.082764	186.900000
752.120178	185.500000
752.157532	183.200000
752.195007	184.100000
752.232422	189.300000
752.269775	191.700000
752.307190	190.700000
752.344543	183.600000
752.382019	185.100000
752.419434	186.100000
752.456787	189.400000
752.494202	191.900000
752.531616	187.700000
752.568970	191.200000
752.606384	188.400000
752.643799	188.800000
752.681152	195.100000
752.718567	190.600000
752.755981	180.400000
752.793335	191.100000
752.830750	178.100000
752.868164	193.300000
752.905518	182.100000
752.942932	192.000000
752.980225	181.600000
753.017639	191.700000
753.055054	185.200000
753.092407	189.300000
753.129822	190.400000
753.167175	195.700000
753.204529	184.400000
753.241943	184.300000
753.279358	180.700000
753.316650	190.200000
753.354065	188.100000
753.391479	191.100000
753.428772	193.700000
753.466187	190.900000
753.503479	180.300000
753.540894	185.100000
753.578308	180.700000
753.615601	181.400000
753.653015	186.100000
753.690369	185.000000
753.727722	183.000000
753.765076	181.100000
753.802490	181.700000
753.839783	178.400000
753.877136	182.500000
753.914551	201.600000
753.951843	181.100000
753.989258	190.600000
754.026611	187.400000
754.063904	189.300000
754.101257	182.500000
754.138611	178.500000
754.175964	187.100000
754.213318	197.300000
754.250610	180.500000
754.288025	185.300000
754.325378	182.200000
754.362671	190.600000
754.400024	185.500000
754.437378	196.200000
754.474670	195.500000
754.512085	183.100000
754.549438	188.300000
754.586731	184.700000
754.624084	185.600000
754.661438	184.000000
754.698730	194.700000
754.736084	184.800000
754.773376	185.000000
754.810730	189.300000
754.848083	185.600000
754.885315	191.400000
754.922668	179.700000
754.960022	179.600000
754.997314	190.900000
755.034668	186.200000
755.072021	186.000000
755.109253	182.900000
755.146606	192.900000
755.183960	183.500000
755.221252	194.800000
755.258545	191.600000
755.295898	192.100000
755.333191	193.100000
755.370544	189.800000
755.407776	185.400000
755.445129	188.100000
755.482422	190.700000
755.519714	183.200000
755.557068	178.700000
755.594360	177.900000
755.631653	188.500000
755.668945	194.700000
755.706299	189.100000
755.743530	197.600000
755.780884	194.300000
755.818176	192.600000
755.855408	190.800000
755.892761	188.200000
755.930054	187.800000
755.967346	188.500000
756.004639	190.400000
756.041870	187.800000
756.079224	192.400000
756.116516	183.300000
756.153748	190.700000
756.191040	194.900000
756.228394	189.900000
756.265625	183.400000
756.302917	188.200000
756.340210	184.300000
756.377441	192.700000
756.414795	195.200000
756.452087	187.000000
756.489319	180.600000
756.526611	191.900000
756.563843	190.700000
756.601135	198.000000
756.638428	196.300000
756.675659	188.000000
756.712952	192.300000
756.750244	192.100000
756.787476	189.600000
756.824768	195.500000
756.862061	186.700000
756.899292	234.900000
756.936584	192.400000
756.973816	198.900000
757.011047	199.700000
757.048340	189.700000
757.085632	188.800000
757.122864	206.400000
757.160156	186.000000
757.197327	192.700000
757.234619	194.400000
757.271912	188.700000
757.309082	194.300000
757.346375	187.500000
757.383667	196.000000
757.420837	190.600000
757.458130	191.700000
757.495422	190.900000
757.532593	192.000000
757.569885	184.700000
757.607117	187.100000
757.644348	192.800000
757.681580	203.000000
757.718811	179.100000
757.756042	190.700000
757.793335	188.600000
757.830505	194.600000
757.867798	187.800000
757.905029	186.000000
757.942200	192.900000
757.979492	187.100000
758.016724	189.500000
758.053894	189.500000
758.091187	209.400000
758.128418	191.500000
758.165588	192.300000
758.202820	203.100000
758.240112	188.500000
758.277283	202.300000
758.314514	192.900000
758.351685	190.300000
758.388916	200.000000
758.426147	199.600000
758.463379	200.500000
758.500610	195.600000
758.537842	193.400000
758.575012	199.400000
758.612244	187.600000
758.649475	206.000000
758.686646	186.600000
758.723877	198.800000
758.761108	201.100000
758.798279	192.400000
758.835510	196.200000
758.872742	201.700000
758.909851	197.100000
758.947083	197.000000
758.984253	195.000000
759.021484	199.900000
759.058716	198.300000
759.095886	200.000000
759.133057	194.200000
759.170288	199.700000
759.207458	190.900000
759.244690	204.900000
759.281860	203.900000
759.319031	194.700000
759.356262	193.000000
759.393433	195.400000
759.430603	194.400000
759.467773	196.200000
759.505005	202.400000
759.542175	203.200000
759.579346	195.600000
759.616516	198.000000
759.653687	199.300000
759.690918	195.000000
759.728027	200.600000
759.765259	200.200000
759.802429	201.600000
759.839539	200.500000
759.876770	203.600000
759.913940	209.900000
759.951111	200.700000
759.988281	200.200000
760.025452	197.700000
760.062561	195.500000
760.099792	209.100000
760.136963	202.600000
760.174072	199.600000
760.211243	194.900000
760.248413	195.700000
760.285583	197.600000
760.322754	210.600000
760.359863	207.100000
760.397034	208.500000
760.434204	199.800000
760.471375	199.800000
760.508545	198.700000
760.545715	200.300000
760.582825	195.400000
760.619995	206.700000
760.657166	194.900000
760.694275	208.700000
760.731445	203.700000
760.768555	204.200000
760.805664	204.700000
760.842834	205.300000
760.879944	204.700000
760.917114	205.400000
760.954285	201.400000
760.991394	197.200000
761.028564	207.400000
761.065674	206.500000
761.102783	198.900000
761.139954	207.200000
761.177124	207.200000
761.214172	209.700000
761.251343	201.300000
761.288452	204.700000
761.325562	206.800000
761.362732	201.200000
761.399841	203.300000
761.436951	206.100000
761.474121	200.900000
761.511169	206.600000
761.548340	208.500000
761.585449	207.500000
761.622559	210.300000
761.659668	207.000000
761.696838	211.600000
761.733887	208.900000
761.771057	204.500000
761.808167	204.800000
761.845276	210.300000
761.882385	218.700000
761.919434	206.300000
761.956604	225.500000
761.993713	202.400000
762.030762	212.400000
762.067871	207.200000
762.105042	207.000000
762.142090	215.200000
762.179199	209.100000
762.216309	213.900000
762.253418	225.100000
762.290527	219.600000
762.327637	214.600000
762.364685	205.800000
762.401794	216.000000
762.438904	213.700000
762.475952	207.800000
762.513062	205.700000
762.550110	206.000000
762.587219	220.800000
762.624329	220.000000
762.661377	214.600000
762.698486	212.400000
762.735596	212.800000
762.772644	206.900000
762.809753	205.300000
762.846863	210.800000
762.883911	217.000000
762.921021	216.200000
762.958069	212.800000
762.995117	219.800000
763.032227	222.200000
763.069336	211.300000
763.106323	210.100000
763.143433	208.800000
763.180481	217.900000
763.217590	217.000000
763.254639	213.900000
763.291687	213.300000
763.328735	223.900000
763.365845	215.300000
763.402893	214.500000
763.439941	216.800000
763.477051	220.600000
763.514038	219.800000
763.551147	214.400000
763.588196	219.000000
763.625244	216.700000
763.662292	224.600000
763.699402	225.900000
763.736389	222.700000
763.773499	230.700000
763.810486	222.200000
763.847534	221.000000
763.884644	223.400000
763.921631	218.800000
763.958679	232.100000
763.995728	220.700000
764.032776	229.400000
764.069824	217.400000
764.106873	225.900000
764.143860	230.400000
764.180969	223.900000
764.218018	229.500000
764.255005	221.800000
764.292053	223.600000
764.329102	232.500000
764.366089	233.400000
764.403137	232.300000
764.440125	224.700000
764.477173	228.500000
764.514221	230.100000
764.551208	227.400000
764.588257	222.700000
764.625305	232.900000
764.662292	235.800000
764.699341	240.700000
764.736389	234.000000
764.773376	248.300000
764.810425	233.900000
764.847473	243.600000
764.884399	238.800000
764.921448	247.000000
764.958435	246.200000
764.995483	235.900000
765.032532	250.200000
765.069458	237.500000
765.106506	238.300000
765.143555	236.200000
765.180481	238.600000
765.217529	248.400000
765.254578	232.500000
765.291504	243.200000
765.328552	238.400000
765.365540	236.500000
765.402527	252.600000
765.439575	237.100000
765.476501	234.000000
765.513550	237.600000
765.550537	242.100000
765.587463	249.200000
765.624512	240.500000
765.661499	233.100000
765.698486	249.900000
765.735474	240.500000
765.772461	242.500000
765.809448	250.800000
765.846436	248.700000
765.883423	252.100000
765.920410	248.000000
765.957397	241.600000
765.994385	249.400000
766.031311	256.600000
766.068359	250.600000
766.105286	250.700000
766.142273	256.400000
766.179260	251.600000
766.216187	245.000000
766.253174	242.400000
766.290161	251.200000
766.327148	254.200000
766.364136	255.600000
766.401123	269.600000
766.438049	248.500000
766.475037	259.700000
766.512024	256.700000
766.548950	271.100000
766.585937	264.500000
766.622864	259.600000
766.659790	259.600000
766.696777	248.700000
766.733704	263.200000
766.770691	255.100000
766.807678	267.600000
766.844604	260.600000
766.881531	261.700000
766.918518	264.800000
766.955444	268.600000
766.992432	260.200000
767.029358	265.500000
767.066284	268.300000
767.103271	264.200000
767.140198	293.100000
767.177124	280.200000
767.214050	268.300000
767.251038	272.900000
767.287964	266.100000
767.324890	262.300000
767.361816	268.300000
767.398743	271.700000
767.435730	267.400000
767.472595	271.200000
767.509583	276.000000
767.546509	265.800000
767.583374	269.300000
767.620361	263.400000
767.657288	269.600000
767.694214	270.500000
767.731140	269.300000
767.768066	270.000000
767.804993	275.800000
767.841919	265.400000
767.878845	271.400000
767.915710	280.200000
767.952698	274.700000
767.989563	276.300000
768.026489	277.900000
768.063416	267.700000
768.100281	271.200000
768.137207	282.600000
768.174133	280.200000
768.211060	280.300000
768.247986	280.600000
768.284912	278.500000
768.321777	280.700000
768.358704	276.500000
768.395630	281.200000
768.432495	276.100000
768.469421	283.100000
768.506348	287.100000
768.543152	293.800000
768.580078	285.700000
768.616943	287.800000
768.653870	289.900000
768.690796	290.600000
768.727661	290.300000
768.764587	290.000000
768.801453	282.900000
768.838318	296.800000
768.875244	291.600000
768.912109	296.200000
768.948975	288.300000
768.985901	291.100000
769.022766	288.000000
769.059631	293.800000
769.096558	287.500000
769.133362	290.100000
769.170288	291.500000
769.207214	291.400000
769.244019	296.500000
769.280945	294.600000
769.317810	303.700000
769.354675	297.400000
769.391541	306.000000
769.428406	301.300000
769.465271	311.600000
769.502136	299.000000
769.539062	305.100000
769.575867	301.400000
769.612732	305.500000
769.649597	309.400000
769.686462	311.000000
769.723328	305.000000
769.760193	303.900000
769.797058	305.400000
769.833923	313.900000
769.870728	309.600000
769.907593	313.800000
769.944519	311.600000
769.981323	315.900000
770.018188	314.300000
770.055054	315.500000
770.091858	312.800000
770.128723	324.200000
770.165588	329.600000
770.202393	315.200000
770.239258	325.400000
770.276062	323.500000
770.312927	325.300000
770.349792	330.700000
770.386597	329.100000
770.423462	338.600000
770.460327	343.800000
770.497131	331.200000
770.533997	323.500000
770.570862	341.700000
770.607605	339.600000
770.644470	338.300000
770.681335	339.000000
770.718140	338.100000
770.754944	330.500000
770.791809	334.900000
770.828613	334.000000
770.865479	339.200000
770.902222	351.500000
770.939087	346.000000
770.975952	335.000000
771.012695	339.000000
771.049561	354.000000
771.086365	345.100000
771.123169	340.900000
771.159973	344.100000
771.196838	344.100000
771.233582	347.700000
771.270447	347.200000
771.307251	353.900000
771.344055	350.300000
771.380859	355.200000
771.417664	347.200000
771.454468	356.700000
771.491272	353.800000
771.528076	355.300000
771.564880	351.200000
771.601685	361.600000
771.638428	350.100000
771.675293	358.500000
771.712097	350.300000
771.748840	368.300000
771.785645	360.600000
771.822449	365.800000
771.859253	368.100000
771.896057	365.100000
771.932861	378.200000
771.969604	365.400000
772.006409	361.900000
772.043213	372.200000
772.079956	366.600000
772.116760	362.900000
772.153503	367.700000
772.190308	377.500000
772.227112	368.600000
772.263855	364.300000
772.300659	371.100000
772.337463	377.800000
772.374207	370.700000
772.411011	361.900000
772.447754	369.000000
772.484497	385.600000
772.521301	376.000000
772.558105	375.800000
772.594849	377.300000
772.631592	382.200000
772.668396	382.300000
772.705139	387.400000
772.741882	383.900000
772.778625	392.200000
772.815430	395.800000
772.852173	389.500000
772.888916	398.400000
772.925720	401.400000
772.962463	406.100000
772.999207	401.000000
773.035950	404.300000
773.072754	401.800000
773.109436	395.100000
773.146240	396.800000
773.182922	395.700000
773.219727	405.700000
773.256470	398.100000
773.293152	388.900000
773.329956	395.600000
773.366699	401.700000
773.403381	391.600000
773.440186	402.300000
773.476929	404.600000
773.513611	398.100000
773.550354	397.100000
773.587158	399.300000
773.623840	391.600000
773.660583	401.200000
773.697327	414.200000
773.734009	403.400000
773.770813	403.000000
773.807495	400.100000
773.844238	402.700000
773.880981	419.100000
773.917664	412.700000
773.954407	421.700000
773.991150	409.300000
774.027832	416.100000
774.064575	404.800000
774.101318	413.900000
774.138000	416.900000
774.174744	413.200000
774.211487	416.700000
774.248108	405.200000
774.284851	405.100000
774.321594	413.500000
774.358276	416.600000
774.395020	429.000000
774.431702	421.600000
774.468384	416.400000
774.505127	412.700000
774.541809	420.200000
774.578491	425.600000
774.615234	428.700000
774.651917	419.200000
774.688599	425.700000
774.725342	432.900000
774.762024	430.000000
774.798706	434.700000
774.835449	434.500000
774.872070	442.500000
774.908813	439.600000
774.945496	438.300000
774.982178	438.500000
775.018860	442.500000
775.055542	443.500000
775.092224	441.900000
775.128967	451.600000
775.165588	450.000000
775.202271	442.100000
775.239014	455.600000
775.275635	454.900000
775.312317	450.400000
775.349060	454.200000
775.385681	455.700000
775.422363	445.400000
775.459045	455.500000
775.495667	453.300000
775.532410	459.600000
775.569092	459.800000
775.605713	463.900000
775.642395	458.900000
775.679016	464.400000
775.715698	463.500000
775.752380	466.100000
775.789001	462.600000
775.825684	466.200000
775.862366	469.300000
775.898987	484.700000
775.935669	470.500000
775.972351	494.300000
776.008972	490.500000
776.045654	489.200000
776.082336	481.800000
776.118958	483.900000
776.155640	492.700000
776.192322	500.500000
776.228882	502.100000
776.265564	503.000000
776.302185	496.700000
776.338867	501.900000
776.375488	488.900000
776.412109	499.000000
776.448792	502.200000
776.485413	512.700000
776.522034	502.800000
776.558716	499.500000
776.595337	500.100000
776.631958	507.400000
776.668579	504.100000
776.705261	519.200000
776.741882	508.600000
776.778503	509.800000
776.815186	506.500000
776.851746	513.900000
776.888367	512.500000
776.924988	523.900000
776.961609	514.900000
776.998291	517.300000
777.034851	511.300000
777.071472	525.800000
777.108154	519.400000
777.144714	534.100000
777.181335	532.300000
777.218018	522.900000
777.254578	532.000000
777.291199	529.800000
777.327759	535.500000
777.364380	542.000000
777.401062	547.000000
777.437622	556.400000
777.474243	550.500000
777.510864	557.200000
777.547424	549.100000
777.584045	553.500000
777.620667	553.900000
777.657227	555.500000
777.693848	554.500000
777.730469	570.100000
777.767029	559.000000
777.803650	564.700000
777.840271	565.100000
777.876831	561.600000
777.913452	574.100000
777.950012	559.200000
777.986633	556.200000
778.023193	553.700000
778.059753	556.100000
778.096375	555.400000
778.132996	566.200000
778.169556	557.200000
778.206116	558.900000
778.242737	553.400000
778.279297	563.200000
778.315857	554.300000
778.352478	562.200000
778.389038	570.900000
778.425598	571.200000
778.462219	575.800000
778.498718	576.600000
778.535339	578.600000
778.571838	580.700000
778.608459	581.400000
778.645020	571.900000
778.681580	584.600000
778.718140	580.300000
778.754761	577.800000
778.791260	586.500000
778.827881	595.700000
778.864441	592.500000
778.900940	598.200000
778.937561	596.700000
778.974121	597.400000
779.010620	586.700000
779.047241	595.700000
779.083801	602.500000
779.120300	602.000000
779.156860	600.800000
779.193359	597.600000
779.229980	601.000000
779.266541	604.400000
779.303040	606.300000
779.339600	599.000000
779.376160	590.300000
779.412659	598.000000
779.449219	587.800000
779.485779	592.200000
779.522278	594.100000
779.558838	603.200000
779.595398	602.600000
779.631897	596.100000
779.668457	588.600000
779.705017	602.400000
779.741516	588.500000
779.778076	585.200000
779.814575	592.400000
779.851074	600.800000
779.887634	595.000000
779.924133	609.200000
779.960693	587.700000
779.997253	600.000000
780.033691	609.600000
780.070251	615.400000
780.106812	626.500000
780.143250	622.300000
780.179810	621.000000
780.216370	620.000000
780.252808	622.600000
780.289368	632.500000
780.325867	629.600000
780.362366	628.700000
780.398865	642.100000
780.435364	630.000000
780.471863	639.900000
780.508423	640.900000
780.544861	647.400000
780.581421	649.100000
780.617920	632.200000
780.654419	631.000000
780.690918	634.900000
780.727417	639.300000
780.763916	632.800000
780.800415	646.000000
780.836914	633.500000
780.873352	640.900000
780.909912	633.300000
780.946411	643.500000
780.982849	651.800000
781.019348	661.200000
781.055786	652.200000
781.092346	656.900000
781.128845	660.600000
781.165283	671.600000
781.201782	681.900000
781.238281	681.100000
781.274719	685.500000
781.311218	680.200000
781.347717	687.000000
781.384155	673.400000
781.420654	672.200000
781.457092	686.800000
781.493591	679.200000
781.530090	672.800000
781.566528	675.900000
781.602966	681.100000
781.639465	678.300000
781.675903	669.700000
781.712402	675.000000
781.748901	679.500000
781.785278	677.300000
781.821777	679.400000
781.858276	678.800000
781.894714	698.300000
781.931152	692.300000
781.967651	703.000000
782.004089	692.000000
782.040527	704.400000
782.076965	702.700000
782.113403	701.600000
782.149902	711.300000
782.186340	704.800000
782.222778	720.600000
782.259277	711.200000
782.295654	706.700000
782.332092	719.300000
782.368591	721.200000
782.404968	717.500000
782.441467	727.400000
782.477905	727.100000
782.514282	718.800000
782.550781	739.600000
782.587219	739.800000
782.623596	741.500000
782.660095	743.600000
782.696472	750.000000
782.732910	749.700000
782.769348	754.500000
782.805786	779.700000
782.842224	778.600000
782.878662	773.600000
782.915039	772.800000
782.951477	771.400000
782.987915	762.900000
783.024292	771.000000
783.060730	775.200000
783.097168	768.700000
783.133545	765.300000
783.169983	759.600000
783.206421	748.500000
783.242798	745.600000
783.279236	741.300000
783.315613	745.500000
783.352051	744.700000
783.388489	740.300000
783.424866	730.400000
783.461304	741.900000
783.497681	743.400000
783.534058	737.100000
783.570496	733.800000
783.606934	729.600000
783.643250	739.600000
783.679687	746.600000
783.716125	740.600000
783.752441	751.400000
783.788879	771.700000
783.825317	781.700000
783.861633	789.800000
783.898071	791.000000
783.934448	804.600000
783.970825	813.200000
784.007263	816.300000
784.043579	813.800000
784.080017	824.800000
784.116394	819.400000
784.152710	819.700000
784.189148	829.600000
784.225525	830.700000
784.261902	818.500000
784.298279	810.000000
784.334656	809.400000
784.371033	805.500000
784.407410	801.500000
784.443787	789.500000
784.480164	782.200000
784.516541	762.900000
784.552856	759.700000
784.589233	753.200000
784.625610	747.900000
784.661987	775.500000
784.698364	763.100000
784.734741	757.900000
784.771057	761.600000
784.807434	769.200000
784.843811	783.300000
784.880127	781.000000
784.916504	813.700000
784.952881	814.100000
784.989197	809.000000
785.025574	807.900000
785.061951	808.800000
785.098267	832.100000
785.134644	829.300000
785.170959	830.500000
785.207275	835.300000
785.243652	824.400000
785.279968	811.200000
785.316345	812.500000
785.352722	811.800000
785.388977	802.900000
785.425354	783.400000
785.461731	769.900000
785.498047	754.400000
785.534363	730.400000
785.570679	690.600000
785.606995	619.300000
785.643372	517.900000
785.679687	407.600000
785.716003	324.100000
785.752380	289.800000
785.788635	302.000000
785.825012	321.300000
785.861328	326.300000
785.897644	299.300000
785.933960	304.500000
785.970337	342.200000
786.006592	454.500000
786.042908	583.000000
786.079285	707.300000
786.115540	793.500000
786.151855	820.600000
786.188171	831.200000
786.224487	833.100000
786.260803	828.000000
786.297119	834.300000
786.333435	828.500000
786.369751	821.200000
786.406006	819.400000
786.442322	802.600000
786.478638	795.100000
786.514954	804.500000
786.551270	799.200000
786.587585	810.500000
786.623840	797.800000
786.660156	791.400000
786.696472	780.800000
786.732727	768.300000
786.769043	781.200000
786.805298	774.500000
786.841614	788.500000
786.877930	801.200000
786.914124	789.900000
786.950439	809.500000
786.986755	813.700000
787.023010	830.100000
787.059326	840.100000
787.095642	845.000000
787.131836	857.600000
787.168152	848.800000
787.204468	856.000000
787.240723	873.900000
787.276978	879.600000
787.313293	886.900000
787.349548	872.300000
787.385803	875.000000
787.422058	874.000000
787.458313	864.300000
787.494629	866.900000
787.530823	866.700000
787.567139	849.400000
787.603455	841.200000
787.639648	825.800000
787.675903	826.900000
787.712219	825.900000
787.748413	823.500000
787.784729	839.000000
787.820984	828.500000
787.857178	820.000000
787.893494	814.600000
787.929749	814.700000
787.965942	830.800000
788.002258	845.600000
788.038452	850.100000
788.074707	845.500000
788.110962	856.300000
788.147217	851.300000
788.183472	867.600000
788.219727	874.000000
788.255920	896.900000
788.292175	905.400000
788.328430	907.100000
788.364624	897.800000
788.400879	887.600000
788.437134	893.700000
788.473328	897.900000
788.509583	890.100000
788.545837	887.900000
788.582031	890.000000
788.618286	876.800000
788.654480	867.400000
788.690735	874.500000
788.726990	890.300000
788.763184	891.100000
788.799377	907.200000
788.835632	900.700000
788.871826	914.500000
788.908081	913.400000
788.944336	905.500000
788.980469	924.700000
789.016724	923.100000
789.052979	920.300000
789.089111	905.300000
789.125366	915.900000
789.161621	893.800000
789.197754	910.200000
789.234009	909.500000
789.270142	903.000000
789.306396	896.400000
789.342590	891.500000
789.378784	864.900000
789.414978	872.200000
789.451233	887.000000
789.487366	883.500000
789.523621	903.400000
789.559814	894.500000
789.595947	884.500000
789.632202	885.700000
789.668335	900.800000
789.704529	918.900000
789.740784	937.600000
789.776917	939.900000
789.813110	933.700000
789.849304	947.400000
789.885498	943.800000
789.921692	968.100000
789.957886	975.000000
789.994019	975.600000
790.030212	970.900000
790.066406	977.500000
790.102539	970.500000
790.138733	980.700000
790.174927	972.300000
790.211060	989.100000
790.247253	987.400000
790.283386	973.300000
790.319580	960.000000
790.355774	935.600000
790.391907	941.000000
790.428101	953.700000
790.464294	948.400000
790.500427	955.700000
790.536621	940.100000
790.572754	911.400000
790.608887	906.300000
790.645081	917.000000
790.681274	937.500000
790.717346	935.000000
790.753540	926.000000
790.789734	905.800000
790.825867	886.200000
790.862000	893.500000
790.898132	904.900000
790.934265	899.000000
790.970459	901.400000
791.006592	902.000000
791.042725	901.400000
791.078918	893.400000
791.114990	891.900000
791.151184	899.400000
791.187317	917.900000
791.223389	920.900000
791.259583	906.300000
791.295715	902.900000
791.331848	904.500000
791.367981	911.900000
791.404114	920.200000
791.440247	920.900000
791.476379	926.400000
791.512451	902.300000
791.548584	899.100000
791.584778	890.100000
791.620850	905.300000
791.656982	917.300000
791.693115	916.500000
791.729187	906.600000
791.765381	906.700000
791.801514	900.100000
791.837585	903.000000
791.873718	920.200000
791.909851	935.700000
791.945923	939.100000
791.982056	907.600000
792.018188	902.500000
792.054260	908.900000
792.090393	912.200000
792.126465	906.800000
792.162598	911.900000
792.198669	902.000000
792.234741	899.400000
792.270874	892.000000
792.307007	878.100000
792.343079	881.900000
792.379150	889.500000
792.415283	867.700000
792.451355	871.000000
792.487488	848.600000
792.523560	843.800000
792.559631	829.700000
792.595764	795.100000
792.631836	757.000000
792.667908	750.200000
792.703979	727.300000
792.740051	742.400000
792.776184	771.100000
792.812256	773.400000
792.848328	783.500000
792.884399	801.400000
792.920471	798.400000
792.956543	791.600000
792.992615	795.000000
793.028748	794.600000
793.064758	797.500000
793.100830	817.300000
793.136963	829.800000
793.172974	836.100000
793.209045	825.300000
793.245178	826.600000
793.281189	814.300000
793.317261	820.700000
793.353271	823.000000
793.389404	833.400000
793.425476	829.600000
793.461487	818.100000
793.497559	813.900000
793.533630	813.200000
793.569641	806.200000
793.605713	811.900000
793.641785	818.300000
793.677795	824.900000
793.713867	814.900000
793.749878	824.500000
793.785950	828.900000
793.822021	837.400000
793.858032	829.800000
793.894104	845.300000
793.930176	830.900000
793.966187	832.300000
794.002258	823.600000
794.038269	824.600000
794.074280	818.100000
794.110352	847.600000
794.146423	832.400000
794.182373	827.400000
794.218445	830.300000
794.254517	815.200000
794.290466	810.600000
794.326538	810.500000
794.362549	809.900000
794.398560	820.500000
794.434631	824.800000
794.470581	802.900000
794.506653	799.500000
794.542664	803.700000
794.578674	810.700000
794.614685	812.900000
794.650757	809.600000
794.686707	808.000000
794.722778	801.700000
794.758789	805.600000
794.794739	812.100000
794.830811	837.000000
794.866821	862.800000
794.902771	868.000000
794.938843	855.800000
794.974792	859.000000
795.010803	851.500000
795.046814	854.200000
795.082825	843.100000
795.118835	857.300000
795.154846	831.600000
795.190796	838.400000
795.226807	816.800000
795.262817	820.700000
795.298767	820.100000
795.334778	831.500000
795.370850	820.600000
795.406799	826.100000
795.442810	809.500000
795.478821	811.200000
795.514709	811.000000
795.550720	832.300000
795.586670	812.300000
795.622681	821.600000
795.658691	821.800000
795.694641	820.200000
795.730652	810.700000
795.766663	819.300000
795.802551	819.800000
795.838562	842.800000
795.874573	828.200000
795.910522	824.400000
795.946472	814.500000
795.982483	819.000000
796.018433	817.300000
796.054382	827.400000
796.090393	812.900000
796.126282	812.600000
796.162292	805.300000
796.198242	794.100000
796.234192	797.500000
796.270203	795.400000
796.306091	799.800000
796.342041	815.800000
796.378052	799.900000
796.413940	802.800000
796.449951	801.400000
796.485901	802.400000
796.521790	808.500000
796.557800	820.500000
796.593689	821.500000
796.629639	813.400000
796.665649	806.900000
796.701599	806.100000
796.737488	799.700000
796.773437	803.700000
796.809387	801.800000
796.845337	808.100000
796.881287	802.700000
796.917175	788.300000
796.953125	783.500000
796.989075	797.700000
797.024963	798.600000
797.060913	796.300000
797.096863	795.500000
797.132751	788.900000
797.168701	771.900000
797.204590	781.300000
797.240540	776.600000
797.276489	790.400000
797.312439	800.600000
797.348328	800.700000
797.384277	785.800000
797.420166	772.200000
797.456055	774.100000
797.492004	771.600000
797.527893	777.500000
797.563843	780.000000
797.599731	770.300000
797.635620	765.200000
797.671570	771.800000
797.707520	768.200000
797.743347	771.300000
797.779297	783.400000
797.815125	780.200000
797.851074	773.900000
797.887024	762.100000
797.922913	750.500000
797.958801	762.000000
797.994690	758.100000
798.030579	766.700000
798.066467	769.800000
798.102356	759.600000
798.138245	751.500000
798.174133	743.800000
798.210083	753.300000
798.245911	762.700000
798.281799	766.200000
798.317749	758.800000
798.353577	753.600000
798.389465	751.200000
798.425293	747.100000
798.461243	747.200000
798.497131	752.500000
798.532959	760.300000
798.568848	763.300000
798.604736	749.400000
798.640564	734.600000
798.676453	734.800000
798.712402	737.400000
798.748230	746.500000
798.784119	742.400000
798.820007	751.500000
798.855835	743.700000
798.891724	736.700000
798.927551	726.600000
798.963379	737.500000
798.999268	738.800000
799.035095	735.900000
799.070984	722.400000
799.106873	711.000000
799.142700	716.500000
799.178528	707.500000
799.214417	710.200000
799.250244	723.500000
799.286133	716.500000
799.321960	717.300000
799.357788	706.900000
799.393677	705.500000
799.429504	703.100000
799.465332	700.300000
799.501221	711.800000
799.537048	710.000000
799.572876	703.000000
799.608704	702.100000
799.644531	705.100000
799.680359	709.800000
799.716248	716.300000
799.752014	722.900000
799.787903	712.400000
799.823730	707.200000
799.859558	702.500000
799.895386	705.100000
799.931213	711.500000
799.967041	697.000000
800.002869	703.000000
800.038696	717.800000
800.074463	699.100000
800.110352	700.800000
800.146179	690.600000
800.181946	697.700000
800.217773	701.800000
800.253540	699.400000
800.289429	695.300000
800.325256	685.900000
800.361023	680.700000
800.396851	687.700000
800.432678	693.800000
800.468445	695.700000
800.504272	693.900000
800.540100	682.100000
800.575867	684.000000
800.611694	682.700000
800.647461	675.700000
800.683289	679.900000
800.719116	685.100000
800.754883	677.100000
800.790649	667.500000
800.826477	655.100000
800.862244	676.800000
800.898071	664.300000
800.933838	667.600000
800.969604	662.600000
801.005432	665.100000
801.041199	662.400000
801.076965	655.200000
801.112793	642.600000
801.148560	639.500000
801.184326	646.200000
801.220154	650.200000
801.255859	645.300000
801.291687	643.000000
801.327454	636.000000
801.363281	642.100000
801.398987	640.300000
801.434814	640.600000
801.470520	649.400000
801.506287	635.500000
801.542114	626.500000
801.577820	626.300000
801.613647	625.700000
801.649414	626.800000
801.685120	629.800000
801.720886	636.000000
801.756714	626.000000
801.792419	617.300000
801.828186	612.800000
801.863892	619.300000
801.899719	611.600000
801.935486	611.000000
801.971252	622.700000
802.006958	615.700000
802.042725	606.100000
802.078430	605.900000
802.114197	601.600000
802.149963	620.400000
802.185669	607.800000
802.221436	602.700000
802.257202	609.800000
802.292908	605.400000
802.328674	611.000000
802.364441	610.800000
802.400146	609.300000
802.435913	609.600000
802.471558	605.600000
802.507324	600.600000
802.543091	595.500000
802.578796	608.500000
802.614502	609.600000
802.650269	612.200000
802.685974	596.900000
802.721741	604.300000
802.757446	607.800000
802.793152	602.500000
802.828918	612.500000
802.864624	607.300000
802.900330	605.100000
802.936035	606.400000
802.971802	604.700000
803.007446	598.500000
803.043213	593.200000
803.078857	600.000000
803.114624	588.300000
803.150330	598.900000
803.185974	589.400000
803.221741	586.600000
803.257446	600.400000
803.293152	604.900000
803.328857	598.300000
803.364563	595.500000
803.400208	585.600000
803.435974	589.600000
803.471680	579.000000
803.507324	577.400000
803.543030	589.200000
803.578735	589.800000
803.614441	577.900000
803.650146	587.100000
803.685791	574.800000
803.721497	574.800000
803.757202	563.900000
803.792847	574.100000
803.828552	566.700000
803.864258	566.600000
803.899902	566.900000
803.935608	547.300000
803.971313	554.000000
804.006958	555.100000
804.042664	553.400000
804.078308	561.000000
804.113953	554.500000
804.149658	559.800000
804.185364	548.300000
804.221008	561.000000
804.256714	547.500000
804.292297	547.100000
804.328003	547.100000
804.363708	537.500000
804.399292	538.200000
804.434998	538.900000
804.470703	529.500000
804.506287	546.300000
804.541992	538.200000
804.577637	542.000000
804.613281	525.500000
804.648926	525.100000
804.684570	529.100000
804.720215	522.000000
804.755920	520.900000
804.791565	520.300000
804.827209	527.200000
804.862854	520.200000
804.898437	513.300000
804.934143	519.300000
804.969788	516.400000
805.005371	518.000000
805.041077	515.400000
805.076721	518.700000
805.112305	507.700000
805.147949	507.700000
805.183655	502.700000
805.219238	509.300000
805.254883	506.900000
805.290466	512.900000
805.326111	510.600000
805.361755	500.900000
805.397400	503.500000
805.432983	502.700000
805.468628	501.700000
805.504211	506.900000
805.539856	504.200000
805.575500	509.900000
805.611084	499.500000
805.646729	487.400000
805.682373	494.200000
805.717957	501.500000
805.753601	503.000000
805.789246	486.300000
805.824768	501.900000
805.860413	499.100000
805.895996	486.000000
805.931641	486.300000
805.967224	495.900000
806.002869	489.700000
806.038452	497.500000
806.074036	493.900000
806.109619	482.600000
806.145264	481.100000
806.180847	485.800000
806.216431	482.300000
806.252014	488.200000
806.287659	489.400000
806.323181	496.600000
806.358826	485.800000
806.394409	471.400000
806.429993	477.300000
806.465576	492.100000
806.501160	474.700000
806.536743	466.600000
806.572327	479.200000
806.607910	475.100000
806.643494	475.600000
806.679077	470.600000
806.714661	471.300000
806.750244	472.400000
806.785828	464.000000
806.821350	467.500000
806.856934	473.200000
806.892517	467.500000
806.928101	462.500000
806.963684	463.200000
806.999268	474.400000
807.034790	454.900000
807.070374	462.000000
807.105896	452.900000
807.141479	450.700000
807.177063	459.100000
807.212585	452.000000
807.248169	451.600000
807.283752	457.700000
807.319275	450.900000
807.354858	455.400000
807.390381	448.400000
807.425903	448.400000
807.461487	441.800000
807.497070	438.700000
807.532593	439.100000
807.568115	437.700000
807.603699	434.600000
807.639221	433.600000
807.674744	434.100000
807.710266	437.400000
807.745850	439.900000
807.781372	436.800000
807.816895	433.500000
807.852417	435.600000
807.888000	433.400000
807.923523	428.400000
807.959045	431.700000
807.994629	424.100000
808.030090	425.500000
808.065613	430.600000
808.101135	431.000000
808.136658	427.400000
808.172241	424.600000
808.207764	427.900000
808.243225	419.100000
808.278809	417.700000
808.314270	426.600000
808.349792	410.500000
808.385315	410.300000
808.420837	417.400000
808.456360	423.500000
808.491882	423.000000
808.527344	416.900000
808.562866	429.400000
808.598389	418.900000
808.633850	411.100000
808.669434	407.000000
808.704895	414.600000
808.740417	419.900000
808.775940	413.100000
808.811462	411.100000
808.846924	405.100000
808.882385	401.900000
808.917847	401.300000
808.953369	406.300000
808.988892	401.200000
809.024353	408.600000
809.059875	406.700000
809.095398	403.300000
809.130798	396.400000
809.166321	397.100000
809.201843	396.600000
809.237305	401.100000
809.272766	406.000000
809.308228	391.500000
809.343750	396.500000
809.379211	396.600000
809.414734	396.300000
809.450134	402.100000
809.485657	385.500000
809.521118	396.000000
809.556580	392.500000
809.592102	388.800000
809.627502	387.300000
809.663025	384.900000
809.698486	381.300000
809.733887	380.400000
809.769409	385.000000
809.804871	374.300000
809.840271	378.600000
809.875793	381.400000
809.911194	385.000000
809.946655	376.200000
809.982178	372.900000
810.017639	379.700000
810.053040	374.400000
810.088501	373.200000
810.123901	370.900000
810.159424	369.300000
810.194885	365.200000
810.230286	368.700000
810.265747	363.300000
810.301208	360.900000
810.336609	362.400000
810.372070	353.800000
810.407532	356.200000
810.442932	358.300000
810.478394	364.600000
810.513794	360.300000
810.549255	356.600000
810.584717	356.300000
810.620117	349.200000
810.655518	358.600000
810.690979	355.300000
810.726379	354.700000
810.761841	345.700000
810.797302	345.000000
810.832642	346.200000
810.868103	356.200000
810.903564	344.800000
810.938904	351.100000
810.974365	340.600000
811.009827	343.600000
811.045166	339.300000
811.080627	328.900000
811.115967	338.900000
811.151428	342.400000
811.186829	336.200000
811.222229	335.500000
811.257629	331.000000
811.293091	334.900000
811.328430	344.900000
811.363892	337.000000
811.399292	341.500000
811.434631	334.900000
811.470093	340.000000
811.505493	328.200000
811.540833	332.700000
811.576294	335.100000
811.611694	330.800000
811.647034	326.700000
811.682434	331.800000
811.717773	331.600000
811.753235	335.700000
811.788635	328.100000
811.823975	328.800000
811.859375	336.400000
811.894775	322.800000
811.930115	326.000000
811.965515	327.200000
812.000916	328.100000
812.036255	321.900000
812.071655	326.500000
812.106995	319.100000
812.142395	320.800000
812.177795	328.100000
812.213196	325.900000
812.248474	325.200000
812.283875	314.700000
812.319214	319.800000
812.354614	318.500000
812.390015	315.900000
812.425293	317.600000
812.460693	319.300000
812.496094	313.400000
812.531433	307.200000
812.566772	310.200000
812.602173	312.700000
812.637451	315.600000
812.672852	310.100000
812.708191	314.400000
812.743530	304.300000
812.778931	298.400000
812.814270	304.200000
812.849609	311.400000
812.884949	305.500000
812.920227	299.500000
812.955627	314.800000
812.990967	307.900000
813.026306	299.600000
813.061646	291.300000
813.096985	287.600000
813.132324	286.200000
813.167664	290.500000
813.203003	296.600000
813.238281	283.000000
813.273682	285.100000
813.308960	282.300000
813.344299	283.000000
813.379639	291.500000
813.414978	287.000000
813.450256	284.400000
813.485596	289.600000
813.520874	279.000000
813.556213	283.800000
813.591614	288.400000
813.626831	278.800000
813.662170	281.500000
813.697510	293.500000
813.732788	275.600000
813.768127	283.900000
813.803467	283.300000
813.838745	278.200000
813.874084	283.800000
813.909363	283.000000
813.944641	282.200000
813.979980	271.800000
814.015320	277.500000
814.050598	274.100000
814.085876	277.800000
814.121155	273.800000
814.156494	270.800000
814.191772	273.700000
814.227051	271.100000
814.262390	272.500000
814.297668	272.700000
814.332947	272.600000
814.368225	264.400000
814.403564	267.400000
814.438782	267.100000
814.474121	269.100000
814.509338	265.700000
814.544617	273.500000
814.579956	262.500000
814.615173	275.300000
814.650513	271.700000
814.685791	262.200000
814.721008	266.500000
814.756348	265.400000
814.791626	262.200000
814.826843	261.100000
814.862122	262.000000
814.897400	261.000000
814.932678	262.900000
814.967957	262.800000
815.003235	261.900000
815.038452	257.300000
815.073730	254.900000
815.108948	264.900000
815.144226	261.600000
815.179504	265.600000
815.214722	253.000000
815.250000	250.700000
815.285278	258.200000
815.320496	250.900000
815.355774	253.700000
815.391052	256.600000
815.426270	255.600000
815.461487	250.600000
815.496765	248.800000
815.531982	244.600000
815.567261	249.500000
815.602539	257.700000
815.637695	252.900000
815.672974	254.400000
815.708191	255.700000
815.743408	254.000000
815.778687	245.900000
815.813904	257.600000
815.849121	241.900000
815.884399	240.800000
815.919556	243.600000
815.954834	243.300000
815.990051	247.900000
816.025269	251.800000
816.060486	241.400000
816.095703	242.400000
816.130920	244.600000
816.166199	239.600000
816.201416	245.200000
816.236572	249.400000
816.271851	240.400000
816.307007	247.100000
816.342224	235.600000
816.377441	240.200000
816.412659	232.100000
816.447876	244.600000
816.483093	237.900000
816.518250	239.100000
816.553467	235.400000
816.588745	240.600000
816.623901	232.300000
816.659119	230.400000
816.694275	233.000000
816.729492	230.000000
816.764709	266.300000
816.799927	227.600000
816.835083	232.500000
816.870300	225.200000
816.905457	229.400000
816.940674	232.800000
816.975830	227.400000
817.010986	224.100000
817.046204	227.300000
817.081421	223.500000
817.116577	223.100000
817.151733	233.600000
817.186951	230.800000
817.222107	226.900000
817.257324	229.800000
817.292419	228.000000
817.327637	218.400000
817.362854	224.700000
817.398010	217.500000
817.433167	221.000000
817.468323	219.900000
817.503479	221.800000
817.538635	230.400000
817.573853	225.200000
817.608948	222.800000
817.644165	219.200000
817.679321	217.800000
817.714478	216.600000
817.749634	222.100000
817.784790	231.800000
817.819946	226.200000
817.855103	210.300000
817.890198	218.400000
817.925415	210.500000
817.960571	219.900000
817.995667	219.300000
818.030823	218.100000
818.066040	214.100000
818.101135	219.500000
818.136292	217.100000
818.171448	211.200000
818.206543	214.500000
818.241699	217.800000
818.276855	216.300000
818.311951	214.800000
818.347107	210.000000
818.382263	217.300000
818.417358	221.900000
818.452515	221.800000
818.487610	221.200000
818.522766	210.300000
818.557922	220.800000
818.593018	216.000000
818.628113	213.100000
818.663269	209.800000
818.698364	214.200000
818.733521	210.000000
818.768677	214.300000
818.803711	207.500000
818.838867	207.800000
818.874023	212.000000
818.909058	206.500000
818.944214	205.300000
818.979370	211.100000
819.014404	211.100000
819.049561	207.100000
819.084595	212.700000
819.119751	202.700000
819.154846	210.300000
819.189941	207.000000
819.225037	202.800000
819.260193	198.000000
819.295227	201.500000
819.330322	196.300000
819.365479	196.600000
819.400513	229.800000
819.435608	195.200000
819.470764	195.000000
819.505798	199.600000
819.540894	198.700000
819.575989	198.900000
819.611084	206.400000
819.646179	208.000000
819.681213	201.600000
819.716309	198.700000
819.751404	198.500000
819.786438	204.600000
819.821533	195.900000
819.856628	200.900000
819.891663	203.700000
819.926758	210.600000
819.961853	206.600000
819.996887	197.000000
820.031982	201.800000
820.067017	196.500000
820.102112	227.700000
820.137207	196.600000
820.172302	213.400000
820.207275	194.600000
820.242371	194.800000
820.277405	194.100000
820.312500	198.500000
820.347534	198.600000
820.382568	202.100000
820.417664	194.700000
820.452759	195.500000
820.487732	191.700000
820.522827	195.000000
820.557861	190.800000
820.592896	194.500000
820.627930	195.800000
820.662964	193.200000
820.698059	197.100000
820.733093	195.100000
820.768127	198.300000
820.803162	194.700000
820.838196	191.800000
820.873230	195.500000
820.908264	194.200000
820.943298	191.600000
820.978333	200.900000
821.013367	195.100000
821.048401	198.000000
821.083435	199.800000
821.118469	186.700000
821.153503	198.900000
821.188477	195.600000
821.223511	187.700000
821.258484	194.500000
821.293579	195.700000
821.328613	187.900000
821.363647	191.900000
821.398621	187.800000
821.433655	189.500000
821.468628	206.000000
821.503662	193.400000
821.538696	196.800000
821.573669	188.800000
821.608704	197.500000
821.643677	190.300000
821.678650	195.700000
821.713684	201.500000
821.748718	191.200000
821.783691	192.700000
821.818726	194.700000
821.853638	195.000000
821.888672	192.600000
821.923706	192.800000
821.958618	190.500000
821.993652	189.600000
822.028687	198.600000
822.063599	199.000000
822.098633	194.500000
822.133667	187.400000
822.168579	191.600000
822.203613	194.300000
822.238586	189.100000
822.273560	194.400000
822.308533	189.400000
822.343567	187.500000
822.378479	190.700000
822.413452	189.900000
822.448425	187.300000
822.483398	195.800000
822.518372	197.000000
822.553345	188.700000
822.588318	198.700000
822.623291	189.800000
822.658203	189.600000
822.693237	192.200000
822.728210	187.200000
822.763123	191.900000
822.798096	187.100000
822.833069	191.100000
822.867981	191.100000
822.902954	192.600000
822.937927	194.300000
822.972900	202.100000
823.007874	183.600000
823.042725	195.100000
823.077698	203.300000
823.112671	185.400000
823.147583	189.600000
823.182556	193.600000
823.217529	196.600000
823.252441	189.600000
823.287415	204.600000
823.322388	193.500000
823.357239	190.900000
823.392212	199.100000
823.427185	195.200000
823.462097	188.200000
823.497009	194.100000
823.531982	189.500000
823.566895	191.800000
823.601807	187.300000
823.636719	189.200000
823.671631	194.700000
823.706604	188.700000
823.741455	194.600000
823.776428	185.100000
823.811340	195.400000
823.846252	197.200000
823.881165	199.600000
823.916138	191.400000
823.950989	199.500000
823.985901	188.700000
824.020813	192.600000
824.055725	188.800000
824.090637	185.800000
824.125610	191.900000
824.160461	193.200000
824.195374	192.600000
824.230225	196.400000
824.265198	182.700000
824.300110	186.900000
824.334961	201.300000
824.369873	181.900000
824.404785	192.700000
824.439636	197.400000
824.474548	182.600000
824.509460	181.600000
824.544312	196.400000
824.579224	193.500000
824.614075	193.700000
824.648987	189.600000
824.683899	190.300000
824.718811	188.400000
824.753662	195.900000
824.788574	196.500000
824.823364	190.200000
824.858276	187.100000
824.893188	195.500000
824.928040	195.700000
824.962952	193.100000
824.997803	194.500000
825.032654	191.400000
825.067566	194.300000
825.102417	187.300000
825.137268	190.000000
825.172119	191.000000
825.206970	186.800000
825.241882	188.500000
825.276733	186.200000
825.311646	187.700000
825.346436	183.700000
825.381348	184.200000
825.416138	189.700000
825.450989	184.900000
825.485901	181.000000
825.520691	181.800000
825.555542	181.600000
825.590454	189.000000
825.625244	181.400000
825.660095	196.100000
825.695007	191.700000
825.729797	187.100000
825.764648	183.800000
825.799438	187.000000
825.834290	188.100000
825.869202	182.300000
825.903992	189.000000
825.938843	185.200000
825.973694	183.000000
826.008484	199.300000
826.043335	182.600000
826.078186	177.900000
826.112976	192.200000
826.147827	192.700000
826.182678	197.400000
826.217468	180.700000
826.252319	190.400000
826.287109	183.400000
826.321899	193.500000
826.356750	185.700000
826.391541	182.300000
826.426392	192.700000
826.461182	186.000000
826.495972	182.300000
826.530823	177.300000
826.565613	186.400000
826.600403	179.800000
826.635254	189.300000
826.670044	178.800000
826.704834	177.400000
826.739685	182.400000
826.774475	187.700000
826.809265	186.300000
826.844055	184.000000
826.878906	192.100000
826.913635	187.400000
826.948425	188.300000
826.983215	187.900000
827.018005	189.300000
827.052856	183.400000
827.087585	189.500000
827.122375	178.700000
827.157227	186.200000
827.191956	196.800000
827.226746	180.600000
827.261536	188.700000
827.296265	179.900000
827.331116	183.700000
827.365906	189.800000
827.400635	181.600000
827.435425	178.800000
827.470215	190.900000
827.504944	185.500000
827.539734	189.500000
827.574463	185.800000
827.609253	191.700000
827.644043	185.400000
827.678772	190.500000
827.713562	182.900000
827.748352	184.400000
827.783081	182.300000
827.817871	186.100000
827.852600	181.700000
827.887329	186.000000
827.922119	175.700000
827.956848	188.500000
827.991638	199.100000
828.026367	186.700000
828.061157	188.000000
828.095886	185.800000
828.130615	200.700000
828.165344	176.700000
828.200073	185.800000
828.234863	182.400000
828.269592	185.100000
828.304321	191.100000
828.339111	187.900000
828.373779	181.100000
828.408569	191.200000
828.443298	190.700000
828.477966	183.300000
828.512756	186.700000
828.547424	180.600000
828.582214	184.300000
828.616943	183.800000
828.651672	184.900000
828.686340	188.500000
828.721130	184.300000
828.755798	184.500000
828.790527	185.700000
828.825256	185.400000
828.859924	186.700000
828.894714	190.700000
828.929443	193.300000
828.964111	181.400000
828.998840	189.600000
829.033569	181.800000
829.068237	184.600000
829.102966	182.700000
829.137634	188.600000
829.172363	187.600000
829.207092	186.700000
829.241821	181.500000
829.276489	178.900000
829.311157	184.800000
829.345825	183.100000
829.380554	188.100000
829.415283	181.400000
829.449951	178.500000
829.484619	195.500000
829.519348	191.800000
829.554016	184.900000
829.588745	185.200000
829.623413	180.300000
829.658081	195.700000
829.692749	180.100000
829.727417	190.100000
829.762146	188.300000
829.796814	180.300000
829.831482	183.800000
829.866150	186.000000
829.900879	183.200000
829.935486	187.200000
829.970154	182.500000
830.004883	195.400000
830.039490	187.600000
830.074219	181.600000
830.108887	186.500000
830.143494	183.900000
830.178223	180.500000
830.212891	184.400000
830.247498	185.100000
830.282166	192.400000
830.316772	192.300000
830.351501	183.300000
830.386169	185.200000
830.420776	183.000000
830.455444	184.900000
830.490112	183.100000
830.524719	176.700000
830.559387	188.500000
830.594055	188.700000
830.628662	184.800000
830.663330	186.000000
830.697998	194.900000
830.732605	184.900000
830.767273	187.100000
830.801941	185.300000
830.836487	195.400000
830.871155	187.100000
830.905762	188.100000
830.940430	177.200000
830.975098	183.600000
831.009644	187.300000
831.044312	195.000000
831.078979	189.200000
831.113525	178.400000
831.148193	184.800000
831.182861	185.400000
831.217407	189.600000
831.252075	200.800000
831.286621	182.200000
831.321289	181.300000
831.355896	185.100000
831.390564	192.200000
831.425110	186.300000
831.459778	192.700000
831.494324	197.900000
831.528931	189.300000
831.563599	188.000000
831.598145	178.700000
831.632751	184.900000
831.667419	183.100000
831.701965	186.000000
831.736572	190.200000
831.771179	179.200000
831.805786	182.900000
831.840393	191.300000
831.874939	179.200000
831.909546	188.600000
831.944153	176.600000
831.978760	184.400000
832.013306	180.600000
832.047913	192.200000
832.082458	194.700000
832.117065	182.300000
832.151672	194.800000
832.186218	185.900000
832.220825	188.500000
832.255432	178.500000
832.289978	183.000000
832.324585	187.400000
832.359192	187.300000
832.393677	183.500000
832.428284	186.000000
832.462830	184.300000
832.497437	184.000000
832.531982	189.100000
832.566589	184.500000
832.601135	187.500000
832.635681	178.400000
832.670227	185.100000
832.704773	192.600000
832.739380	186.900000
832.773926	186.600000
832.808472	183.100000
832.843079	185.300000
832.877563	188.900000
832.912170	181.900000
832.946716	179.300000
832.981201	191.000000
833.015808	189.300000
833.050293	184.800000
833.084839	181.400000
833.119446	183.500000
833.153992	189.200000
833.188477	185.000000
833.223022	181.000000
833.257568	186.100000
833.292114	192.100000
833.326660	195.500000
833.361145	183.100000
833.395691	178.800000
833.430237	184.100000
833.464783	189.400000
833.499329	182.500000
833.533875	179.900000
833.568359	189.500000
833.602905	190.000000
833.637390	191.200000
833.671875	181.400000
833.706421	185.600000
833.740906	183.000000
833.775452	175.700000
833.809998	183.000000
833.844482	192.400000
833.879028	183.800000
833.913513	183.800000
833.947998	187.200000
833.982544	181.700000
834.017090	183.200000
834.051514	175.200000
834.086060	189.200000
834.120544	186.000000
834.155029	186.800000
834.189575	184.700000
834.223999	188.300000
834.258545	186.200000
834.293030	186.600000
834.327515	184.500000
834.362000	182.500000
834.396545	189.200000
834.430969	185.500000
834.465454	189.500000
834.500000	179.300000
834.534424	187.300000
834.568970	175.900000
834.603455	177.300000
834.637878	182.200000
834.672363	186.400000
834.706909	185.100000
834.741333	186.100000
834.775818	178.200000
834.810242	182.000000
834.844727	185.200000
834.879211	183.700000
834.913635	187.600000
834.948181	187.600000
834.982666	186.700000
835.017090	183.400000
835.051575	188.400000
835.086060	183.000000
835.120483	188.800000
835.154907	189.000000
835.189331	184.400000
835.223816	188.600000
835.258301	180.100000
835.292786	179.100000
835.327209	189.700000
835.361694	181.500000
835.396057	183.100000
835.430542	186.700000
835.465027	186.100000
835.499390	180.200000
835.533875	206.000000
835.568359	181.700000
835.602722	178.800000
835.637207	187.700000
835.671692	181.000000
835.706055	200.700000
835.740540	187.600000
835.774902	188.600000
835.809387	186.100000
835.843811	178.700000
835.878235	192.900000
835.912659	179.300000
835.947083	182.600000
835.981506	183.600000
836.015930	178.800000
836.050354	191.000000
836.084778	194.200000
836.119202	190.600000
836.153625	198.600000
836.187988	182.500000
836.222473	182.400000
836.256897	187.200000
836.291260	185.400000
836.325684	187.500000
836.360046	183.300000
836.394470	185.200000
836.428894	191.700000
836.463318	182.600000
836.497681	190.600000
836.532104	193.800000
836.566467	186.600000
836.600891	183.000000
836.635315	191.200000
836.669678	188.700000
836.704102	189.000000
836.738525	187.100000
836.772888	177.000000
836.807251	183.800000
836.841675	186.500000
836.876038	181.400000
836.910461	181.600000
836.944763	189.200000
836.979187	180.700000
837.013611	190.800000
837.047974	179.000000
837.082336	196.200000
837.116699	188.000000
837.151062	185.700000
837.185486	179.100000
837.219849	184.600000
837.254211	188.400000
837.288574	185.400000
837.322937	181.100000
837.357300	173.800000
837.391663	197.500000
837.426086	190.500000
837.460388	185.900000
837.494751	190.100000
837.529114	181.800000
837.563477	190.800000
837.597839	186.900000
837.632141	185.300000
837.666565	183.600000
837.700928	187.500000
837.735229	188.100000
837.769592	187.800000
837.803955	191.900000
837.838257	183.000000
837.872620	182.400000
837.906982	192.600000
837.941284	187.400000
837.975647	186.700000
838.010010	191.200000
838.044312	184.600000
838.078674	183.400000
838.112976	186.200000
838.147339	189.600000
838.181702	185.200000
838.216003	193.900000
838.250366	187.400000
838.284668	187.900000
838.318970	177.800000
838.353333	186.300000
838.387634	184.500000
838.421936	187.100000
838.456299	186.700000
838.490601	193.500000
838.524902	187.000000
838.559265	192.200000
838.593567	189.900000
838.627869	181.500000
838.662170	188.300000
838.696472	180.100000
838.730774	182.800000
838.765137	190.400000
838.799377	170.700000
838.833740	185.900000
838.868042	190.200000
838.902283	178.600000
838.936646	192.300000
838.970947	188.600000
839.005188	190.600000
839.039551	180.100000
839.073792	192.700000
839.108093	182.500000
839.142395	193.200000
839.176697	181.400000
839.210937	186.200000
839.245300	197.200000
839.279541	179.700000
839.313843	182.900000
839.348145	189.500000
839.382385	191.500000
839.416687	190.400000
839.450989	188.400000
839.485229	185.700000
839.519531	182.200000
839.553833	191.600000
839.588013	186.200000
839.622314	187.800000
839.656555	187.600000
839.690857	185.600000
839.725159	179.100000
839.759460	186.200000
839.793640	182.000000
839.827942	185.400000
839.862183	181.100000
839.896423	187.300000
839.930725	195.600000
839.964966	193.300000
839.999207	191.800000
840.033508	193.000000
840.067688	182.500000
840.101990	194.700000
840.136230	185.800000
840.170471	193.900000
840.204712	181.900000
840.238953	181.200000
840.273193	186.200000
840.307434	190.000000
840.341736	181.500000
840.375916	179.800000
840.410217	183.300000
840.444397	190.600000
840.478638	187.500000
840.512878	190.700000
840.547119	185.500000
840.581360	188.600000
840.615601	195.000000
840.649780	195.100000
840.684021	186.500000
840.718262	194.000000
840.752441	192.500000
840.786682	186.200000
840.820862	188.000000
840.855103	194.900000
840.889343	186.700000
840.923584	192.400000
840.957764	188.400000
840.992004	187.900000
841.026184	200.100000
841.060425	184.900000
841.094666	183.800000
841.128845	189.600000
841.163025	187.100000
841.197266	188.500000
841.231445	187.700000
841.265686	187.600000
841.299866	183.000000
841.334045	194.100000
841.368286	185.700000
841.402405	193.000000
841.436646	190.600000
841.470825	182.500000
841.505005	185.600000
841.539185	181.800000
841.573425	183.100000
841.607544	185.600000
841.641785	187.000000
841.675964	181.000000
841.710144	186.100000
841.744324	182.800000
841.778503	186.200000
841.812683	182.200000
841.846863	194.600000
841.881042	193.100000
841.915222	183.100000
841.949402	200.400000
841.983521	178.400000
842.017700	184.100000
842.051880	188.700000
842.086060	188.900000
842.120239	186.400000
842.154419	183.400000
842.188538	187.600000
842.222717	182.500000
842.256897	196.900000
842.291016	185.100000
842.325195	189.000000
842.359375	197.500000
842.393494	195.000000
842.427673	186.800000
842.461853	189.000000
842.495911	194.700000
842.530090	189.100000
842.564209	185.900000
842.598389	188.600000
842.632568	186.900000
842.666626	191.700000
842.700806	182.600000
842.734985	183.900000
842.769043	190.100000
842.803223	185.200000
842.837402	186.500000
842.871460	184.500000
842.905640	195.800000
842.939697	181.900000
842.973877	188.300000
843.007996	192.300000
843.042175	195.100000
843.076233	183.600000
843.110413	189.100000
843.144470	196.100000
843.178589	191.500000
843.212769	184.700000
843.246826	191.300000
843.280945	185.500000
843.315125	185.500000
843.349182	182.800000
843.383301	192.400000
843.417419	197.800000
843.451538	186.900000
843.485657	185.500000
843.519714	186.800000
843.553833	188.000000
843.587952	184.300000
843.622070	181.900000
843.656128	189.100000
843.690247	184.500000
843.724304	185.600000
843.758423	189.600000
843.792542	185.900000
843.826599	185.300000
843.860718	184.000000
843.894836	178.700000
843.928894	187.900000
843.963013	189.300000
843.997070	184.100000
844.031128	180.000000
844.065247	191.200000
844.099304	192.700000
844.133362	188.300000
844.167480	189.800000
844.201599	194.100000
844.235596	188.100000
844.269714	189.300000
844.303711	187.600000
844.337830	178.700000
844.371948	189.200000
844.405945	186.200000
844.440063	180.500000
844.474121	200.300000
844.508118	184.700000
844.542236	186.700000
844.576294	185.700000
844.610352	182.600000
844.644409	184.300000
844.678406	180.100000
844.712524	192.300000
844.746582	193.400000
844.780640	185.200000
844.814636	186.600000
844.848755	197.400000
844.882751	185.300000
844.916809	191.800000
844.950867	188.700000
844.984863	194.700000
845.018921	185.900000
845.052979	183.300000
845.086975	188.400000
845.121033	181.100000
845.155090	182.300000
845.189087	193.200000
845.223145	184.100000
845.257141	187.000000
845.291199	188.400000
845.325256	193.900000
845.359253	188.200000
845.393250	197.700000
845.427307	185.400000
845.461304	188.700000
845.495361	186.800000
845.529358	197.600000
845.563354	184.000000
845.597412	183.800000
845.631409	195.000000
845.665405	195.500000
845.699463	193.300000
845.733459	185.600000
845.767456	194.600000
845.801453	185.300000
845.835449	193.400000
845.869446	191.700000
845.903503	191.000000
845.937439	184.700000
845.971497	193.100000
846.005493	180.900000
846.039429	190.300000
846.073486	196.900000
846.107483	184.500000
846.141418	185.800000
846.175476	184.600000
846.209473	195.300000
846.243408	184.200000
846.277405	189.300000
846.311401	183.100000
846.345337	186.700000
846.379395	193.100000
846.413330	184.100000
846.447327	195.800000
846.481323	182.400000
846.515259	184.700000
846.549255	187.300000
846.583252	190.700000
846.617187	182.900000
846.651184	189.300000
846.685120	186.400000
846.719055	195.400000
846.753052	192.500000
846.786987	192.200000
846.820984	180.400000
846.854980	194.300000
846.888916	182.500000
846.922852	190.300000
846.956848	195.200000
846.990723	183.300000
847.024719	187.500000
847.058716	185.000000
847.092590	193.800000
847.126587	188.600000
847.160522	183.900000
847.194458	191.100000
847.228455	182.500000
847.262390	183.900000
847.296265	185.000000
847.330261	193.000000
847.364136	185.600000
847.398132	185.200000
847.432068	186.600000
847.466003	185.700000
847.499939	186.000000
847.533875	189.900000
847.567749	185.900000
847.601746	185.600000
847.635681	191.100000
847.669556	179.500000
847.703491	192.500000
847.737427	202.300000
847.771301	182.800000
847.805237	189.300000
847.839233	188.900000
847.873108	187.200000
847.907043	185.900000
847.940918	193.100000
847.974854	187.500000
848.008789	191.100000
848.042664	187.800000
848.076538	188.900000
848.110474	186.800000
848.144348	189.000000
848.178284	181.400000
848.212219	188.500000
848.246094	185.600000
848.279968	188.400000
848.313904	190.600000
848.347778	188.200000
848.381653	186.300000
848.415588	184.000000
848.449463	184.900000
848.483337	189.300000
848.517212	194.500000
848.551086	187.400000
848.585022	182.400000
848.618835	196.500000
848.652771	185.100000
848.686646	182.600000
848.720520	194.500000
848.754395	186.800000
848.788330	192.200000
848.822144	191.100000
848.856018	185.700000
848.889954	196.900000
848.923767	183.800000
848.957642	184.000000
848.991577	191.200000
849.025391	186.000000
849.059265	185.800000
849.093079	184.000000
849.126953	181.900000
849.160828	192.500000
849.194641	187.900000
849.228577	183.300000
849.262451	186.100000
849.296265	184.300000
849.330139	183.500000
849.364014	188.200000
849.397827	190.000000
849.431702	186.800000
849.465515	191.900000
849.499329	180.200000
849.533203	183.200000
849.567078	177.600000
849.600891	190.100000
849.634766	185.100000
849.668518	190.100000
849.702393	187.500000
849.736267	180.500000
849.770020	198.300000
849.803894	189.800000
849.837769	188.400000
849.871521	187.700000
849.905396	193.300000
849.939270	182.000000
849.973022	185.600000
850.006897	190.500000
850.040710	191.500000
850.074524	190.700000
850.108337	186.800000
850.142151	191.300000
850.175964	193.900000
850.209778	188.100000
850.243530	176.200000
850.277405	190.300000
850.311218	188.300000
850.344971	184.800000
850.378845	196.600000
850.412659	184.200000
850.446411	188.700000
850.480225	182.900000
850.514038	191.800000
850.547791	190.300000
850.581665	188.800000
850.615417	184.400000
850.649231	187.300000
850.683044	185.500000
850.716858	187.400000
850.750610	188.300000
850.784424	191.000000
850.818176	185.000000
850.851929	184.900000
850.885742	185.700000
850.919495	187.100000
850.953308	193.700000
850.987122	194.200000
851.020874	181.800000
851.054626	178.800000
851.088440	190.900000
851.122192	192.300000
851.156006	187.300000
851.189697	187.600000
851.223511	182.600000
851.257263	193.000000
851.291077	191.500000
851.324829	186.600000
851.358582	184.100000
851.392334	183.800000
851.426086	185.700000
851.459900	195.900000
851.493591	187.700000
851.527344	186.900000
851.561157	187.100000
851.594849	189.700000
851.628662	190.000000
851.662415	195.800000
851.696106	189.600000
851.729858	192.500000
851.763611	180.600000
851.797363	188.600000
851.831116	182.800000
851.864868	190.500000
851.898560	192.800000
851.932312	185.500000
851.966064	189.200000
851.999817	187.200000
852.033569	186.100000
852.067261	192.100000
852.101013	185.000000
852.134766	186.800000
852.168457	178.700000
852.202209	191.900000
852.235901	183.800000
852.269592	189.500000
852.303345	196.400000
852.337036	190.900000
852.370789	188.000000
852.404541	191.800000
852.438171	183.800000
852.471924	186.700000
852.505676	180.800000
852.539307	189.300000
852.573059	184.800000
852.606812	185.200000
852.640442	186.900000
852.674194	192.400000
852.707886	199.000000
852.741577	193.800000
852.775269	183.100000
852.809021	188.900000
852.842651	191.300000
852.876404	192.300000
852.910034	189.100000
852.943787	193.200000
852.977478	191.600000
853.011108	184.900000
853.044861	184.700000
853.078552	195.500000
853.112183	190.100000
853.145874	189.500000
853.179626	179.900000
853.213257	189.500000
853.246948	185.600000
853.280640	195.800000
853.314270	187.200000
853.347961	194.100000
853.381653	190.400000
853.415283	192.400000
853.448975	184.100000
853.482605	189.000000
853.516296	187.000000
853.549988	182.000000
853.583618	189.200000
853.617310	189.900000
853.651001	190.300000
853.684631	181.800000
853.718323	185.500000
853.751953	196.400000
853.785583	178.200000
853.819275	191.200000
853.852966	188.600000
853.886536	179.300000
853.920227	182.000000
853.953918	192.800000
853.987488	185.300000
854.021179	192.000000
854.054749	196.200000
854.088440	190.600000
854.122131	184.200000
854.155701	191.500000
854.189331	183.600000
854.223022	191.800000
854.256592	189.900000
854.290283	184.900000
854.323914	191.100000
854.357483	189.500000
854.391174	190.100000
854.424744	199.200000
854.458374	189.300000
854.492065	198.900000
854.525696	192.000000
854.559265	195.700000
854.592896	198.000000
854.626465	189.900000
854.660095	188.400000
854.693787	190.300000
854.727356	187.200000
854.760986	191.500000
854.794617	189.500000
854.828186	186.200000
854.861816	190.900000
854.895447	189.400000
854.929016	188.800000
854.962585	191.300000
854.996155	194.800000
855.029785	189.200000
855.063416	190.200000
855.097046	191.900000
855.130615	182.700000
855.164185	193.800000
855.197754	187.100000
855.231384	190.800000
855.264954	186.700000
855.298523	192.100000
855.332153	187.300000
855.365723	194.900000
855.399292	184.400000
855.432922	186.800000
855.466492	191.300000
855.500061	184.300000
855.533630	186.400000
855.567200	190.500000
855.600769	193.300000
855.634338	192.200000
855.667969	190.300000
855.701477	183.100000
855.735046	184.400000
855.768616	179.300000
855.802185	190.300000
855.835754	202.000000
855.869324	180.300000
855.902893	186.600000
855.936401	194.000000
855.969971	188.200000
856.003540	181.100000
856.037109	192.700000
856.070618	187.600000
856.104187	181.700000
856.137695	185.800000
856.171265	178.100000
856.204834	188.300000
856.238403	193.800000
856.271912	186.100000
856.305481	189.800000
856.338989	182.000000
856.372559	189.600000
856.406128	190.200000
856.439636	193.000000
856.473145	185.300000
856.506653	195.200000
856.540222	187.000000
856.573792	194.300000
856.607300	192.600000
856.640808	183.200000
856.674377	188.700000
856.707825	215.600000
856.741394	191.400000
856.774902	184.900000
856.808472	180.100000
856.841980	191.400000
856.875488	197.100000
856.908936	180.900000
856.942505	185.400000
856.976013	188.400000
857.009521	185.300000
857.043030	188.700000
857.076477	187.100000
857.110046	193.800000
857.143555	188.600000
857.177063	192.500000
857.210571	186.000000
857.244080	182.700000
857.277527	191.200000
857.311035	187.000000
857.344543	192.500000
857.378052	186.600000
857.411499	193.300000
857.445068	197.600000
857.478516	186.700000
857.512024	183.000000
857.545532	186.500000
857.578979	190.600000
857.612427	187.100000
857.645874	184.600000
857.679382	188.700000
857.712891	193.200000
857.746399	186.600000
857.779846	193.400000
857.813354	192.300000
857.846741	187.800000
857.880249	185.600000
857.913757	189.700000
857.947266	189.100000
857.980652	192.800000
858.014160	185.900000
858.047546	187.600000
858.081055	186.300000
858.114563	197.800000
858.147949	180.900000
858.181458	191.800000
858.214844	187.400000
858.248352	181.200000
858.281799	192.600000
858.315308	201.900000
858.348694	191.900000
858.382141	196.200000
858.415588	191.000000
858.449036	191.900000
858.482483	188.900000
858.515930	185.600000
858.549377	186.700000
858.582825	195.000000
858.616211	191.100000
858.649658	190.100000
858.683105	184.400000
858.716553	185.300000
858.750000	182.700000
858.783386	186.500000
858.816833	180.400000
858.850281	190.100000
858.883728	192.300000
858.917114	188.100000
858.950562	197.600000
858.983948	198.100000
859.017395	193.400000
859.050781	186.800000
859.084167	183.600000
859.117615	182.900000
859.151062	191.500000
859.184448	183.800000
859.217834	186.600000
859.251282	187.200000
859.284668	185.200000
859.318054	178.600000
859.351440	187.600000
859.384888	195.000000
859.418274	180.200000
859.451721	179.500000
859.485046	192.400000
859.518494	189.400000
859.551819	183.200000
859.585266	190.100000
859.618652	192.300000
859.652039	181.700000
859.685425	183.100000
859.718811	181.300000
859.752197	177.600000
859.785583	193.400000
859.819031	196.300000
859.852356	191.500000
859.885742	185.000000
859.919067	187.700000
859.952454	186.300000
859.985901	193.400000
860.019287	186.800000
860.052612	0.000000
860.085999	0.000000
860.119324	0.000000
860.152710	0.000000
860.186096	0.000000
860.219421	0.000000
860.252808	0.000000
860.286133	0.000000
860.319519	0.000000
860.352905	0.000000
860.386292	0.000000
860.419617	0.000000
860.452942	0.000000
860.486267	0.000000
860.519653	0.000000
860.553040	0.000000
860.586365	0.000000
860.619690	0.000000
860.653076	0.000000
860.686340	0.000000
860.719727	0.000000
860.753113	0.000000
860.786377	0.000000
860.819763	0.000000
860.853027	0.000000
860.886414	0.000000
860.919739	0.000000
860.953125	0.000000
860.986389	0.000000
861.019714	0.000000
861.053040	0.000000
861.086365	0.000000
861.119690	0.000000
861.153076	0.000000
861.186340	0.000000
861.219666	0.000000
861.252930	0.000000
861.286316	0.000000
861.319641	0.000000
861.352905	0.000000
861.386230	0.000000
861.419495	0.000000
861.452820	0.000000
861.486145	0.000000
861.519470	0.000000
861.552734	0.000000
861.586060	0.000000
861.619324	0.000000
861.652649	0.000000
861.685974	0.000000
861.719238	0.000000
861.752563	0.000000
861.785828	0.000000
861.819092	0.000000
861.852417	0.000000
861.885742	0.000000
861.918945	0.000000
861.952271	0.000000
861.985535	0.000000
862.018799	0.000000
862.052124	0.000000
862.085449	0.000000
862.118652	0.000000
862.151978	0.000000
862.185181	0.000000
862.218506	0.000000
862.251770	0.000000
862.285034	0.000000
862.318298	0.000000
862.351562	0.000000
862.384827	0.000000
862.418091	0.000000
862.451355	0.000000
862.484619	0.000000
862.517883	0.000000
862.551086	0.000000
862.584351	0.000000
862.617676	0.000000
862.650940	0.000000
862.684143	0.000000
862.717407	0.000000
862.750610	0.000000
862.783875	0.000000
862.817139	0.000000
862.850342	0.000000
862.883606	0.000000
862.916870	0.000000
862.950073	0.000000
862.983337	0.000000
863.016602	0.000000
863.049805	0.000000
863.083069	0.000000
863.116211	0.000000
863.149475	0.000000
863.182739	0.000000
863.216003	0.000000
863.249146	0.000000
863.282410	0.000000
863.315613	0.000000
863.348816	0.000000
863.382080	0.000000
863.415222	0.000000
863.448486	0.000000
863.481689	0.000000
863.514893	0.000000
863.548157	0.000000
863.581360	0.000000
863.614502	0.000000
863.647766	0.000000
863.680908	0.000000
863.714172	0.000000
863.747375	0.000000
863.780579	0.000000
863.813721	0.000000
863.846985	0.000000
863.880127	0.000000
863.913330	0.000000
863.946533	0.000000
863.979675	0.000000
864.012939	0.000000
