Model Number: SPM-001-M   
Serial Number: 10090201
Firmware Version: 004.17.6
Exposure Time: 500000.000000us
Data Taken on: 03-03-2021 10:42:24.151
Wavelength	Amplitude
733.770752	0.000000
733.808716	0.000000
733.846619	0.000000
733.884583	0.000000
733.922546	0.000000
733.960449	0.000000
733.998413	0.000000
734.036377	0.000000
734.074219	0.000000
734.112183	0.000000
734.150085	0.000000
734.188049	0.000000
734.226013	0.000000
734.263916	0.000000
734.301819	0.000000
734.339783	0.000000
734.377686	0.000000
734.415588	0.000000
734.453552	0.000000
734.491455	0.000000
734.529419	0.000000
734.567322	0.000000
734.605225	0.000000
734.643127	0.000000
734.681091	0.000000
734.718994	0.000000
734.756897	0.000000
734.794800	0.000000
734.832703	0.000000
734.870667	0.000000
734.908508	0.000000
734.946472	0.000000
734.984375	0.000000
735.022278	0.000000
735.060181	0.000000
735.098083	0.000000
735.135986	0.000000
735.173889	0.000000
735.211792	0.000000
735.249695	0.000000
735.287598	0.000000
735.325439	0.000000
735.363403	0.000000
735.401306	0.000000
735.439148	0.000000
735.477051	0.000000
735.515015	0.000000
735.552856	0.000000
735.590759	0.000000
735.628662	0.000000
735.666504	0.000000
735.704407	0.000000
735.742310	0.000000
735.780212	0.000000
735.818115	0.000000
735.856018	0.000000
735.893860	0.000000
735.931763	0.000000
735.969604	0.000000
736.007507	0.000000
736.045410	0.000000
736.083252	0.000000
736.121094	0.000000
736.158997	0.000000
736.196838	0.000000
736.234741	0.000000
736.272644	0.000000
736.310486	0.000000
736.348389	0.000000
736.386230	0.000000
736.424072	0.000000
736.461975	0.000000
736.499878	0.000000
736.537720	0.000000
736.575562	0.000000
736.613403	0.000000
736.651306	0.000000
736.689148	0.000000
736.726990	0.000000
736.764893	0.000000
736.802734	0.000000
736.840576	0.000000
736.878418	0.000000
736.916321	0.000000
736.954102	0.000000
736.992004	0.000000
737.029846	0.000000
737.067688	0.000000
737.105530	0.000000
737.143372	0.000000
737.181213	0.000000
737.219116	0.000000
737.256897	0.000000
737.294739	0.000000
737.332642	0.000000
737.370422	0.000000
737.408325	0.000000
737.446167	0.000000
737.483948	0.000000
737.521790	0.000000
737.559692	0.000000
737.597473	0.000000
737.635315	0.000000
737.673157	0.000000
737.710999	0.000000
737.748840	0.000000
737.786621	0.000000
737.824463	0.000000
737.862305	0.000000
737.900085	0.000000
737.937927	0.000000
737.975769	0.000000
738.013550	0.000000
738.051392	0.000000
738.089233	0.000000
738.127014	0.000000
738.164856	0.000000
738.202698	0.000000
738.240479	0.000000
738.278320	0.000000
738.316162	0.000000
738.353943	0.000000
738.391785	0.000000
738.429565	0.000000
738.467407	0.000000
738.505188	0.000000
738.542969	0.000000
738.580811	0.000000
738.618652	0.000000
738.656372	0.000000
738.694214	0.000000
738.732056	0.000000
738.769836	0.000000
738.807617	0.000000
738.845459	0.000000
738.883240	0.000000
738.921021	0.000000
738.958862	0.000000
738.996582	0.000000
739.034424	0.000000
739.072205	0.000000
739.109985	0.000000
739.147827	0.000000
739.185547	0.000000
739.223389	0.000000
739.261169	0.000000
739.298889	0.000000
739.336731	0.000000
739.374512	0.000000
739.412292	0.000000
739.450073	0.000000
739.487854	0.000000
739.525635	0.000000
739.563416	0.000000
739.601135	0.000000
739.638977	0.000000
739.676758	0.000000
739.714478	0.000000
739.752258	0.000000
739.790100	0.000000
739.827820	0.000000
739.865601	0.000000
739.903381	0.000000
739.941101	0.000000
739.978882	190.900000
740.016724	186.100000
740.054443	189.700000
740.092224	185.000000
740.130005	182.800000
740.167725	183.700000
740.205505	184.300000
740.243225	193.300000
740.281006	188.700000
740.318787	180.500000
740.356506	192.800000
740.394287	192.000000
740.432068	183.400000
740.469727	179.400000
740.507507	189.800000
740.545288	185.800000
740.583008	189.600000
740.620789	186.900000
740.658569	178.000000
740.696228	185.100000
740.734009	193.000000
740.771790	176.400000
740.809509	190.800000
740.847229	181.600000
740.884949	184.800000
740.922729	180.600000
740.960449	186.500000
740.998169	182.300000
741.035950	183.900000
741.073669	188.300000
741.111389	187.000000
741.149170	195.400000
741.186890	196.200000
741.224609	189.800000
741.262329	188.400000
741.300110	197.400000
741.337769	182.100000
741.375549	181.200000
741.413208	188.700000
741.450989	183.100000
741.488708	184.100000
741.526367	185.800000
741.564148	191.000000
741.601868	191.200000
741.639526	186.400000
741.677307	187.600000
741.715027	190.300000
741.752686	183.300000
741.790466	194.500000
741.828186	190.400000
741.865845	181.500000
741.903564	179.800000
741.941345	187.500000
741.979004	182.700000
742.016724	190.800000
742.054382	187.200000
742.092102	191.900000
742.129822	180.400000
742.167480	185.400000
742.205200	185.200000
742.242920	188.600000
742.280640	191.000000
742.318359	183.300000
742.356079	184.900000
742.393738	190.400000
742.431396	185.900000
742.469116	190.900000
742.506775	175.600000
742.544495	189.300000
742.582214	191.400000
742.619873	185.700000
742.657593	194.500000
742.695251	190.900000
742.732971	186.200000
742.770630	188.100000
742.808289	187.000000
742.846008	186.300000
742.883728	188.900000
742.921326	186.700000
742.959045	184.100000
742.996765	187.000000
743.034424	185.000000
743.072083	185.400000
743.109802	186.800000
743.147400	181.100000
743.185120	188.000000
743.222839	188.900000
743.260437	192.600000
743.298157	188.100000
743.335754	179.200000
743.373474	185.100000
743.411133	180.400000
743.448792	188.200000
743.486450	187.500000
743.524170	179.600000
743.561768	187.200000
743.599487	192.600000
743.637146	198.700000
743.674744	184.400000
743.712463	185.000000
743.750122	187.700000
743.787720	188.500000
743.825439	184.100000
743.863037	184.800000
743.900696	187.300000
743.938416	213.300000
743.976013	186.200000
744.013672	195.600000
744.051331	190.500000
744.088928	195.400000
744.126587	191.700000
744.164307	187.800000
744.201904	184.100000
744.239563	189.400000
744.277222	190.200000
744.314819	186.200000
744.352478	192.700000
744.390137	189.700000
744.427734	188.100000
744.465393	183.700000
744.502991	182.000000
744.540649	190.600000
744.578308	188.100000
744.615906	181.200000
744.653564	176.400000
744.691223	191.700000
744.728821	180.200000
744.766418	186.400000
744.804077	189.800000
744.841675	184.600000
744.879333	181.200000
744.916992	186.700000
744.954529	184.200000
744.992187	191.900000
745.029785	184.900000
745.067444	184.600000
745.105042	188.700000
745.142639	189.900000
745.180298	196.700000
745.217896	186.700000
745.255493	187.000000
745.293152	189.900000
745.330750	192.000000
745.368347	195.500000
745.405945	191.300000
745.443604	187.900000
745.481140	191.000000
745.518799	186.400000
745.556396	191.400000
745.593994	192.800000
745.631592	186.900000
745.669189	182.300000
745.706787	189.400000
745.744385	184.100000
745.781982	191.300000
745.819580	185.000000
745.857178	185.300000
745.894775	188.100000
745.932373	188.600000
745.969971	187.900000
746.007568	178.500000
746.045166	196.000000
746.082764	194.100000
746.120300	189.900000
746.157898	190.100000
746.195557	186.700000
746.233093	180.800000
746.270691	190.300000
746.308228	189.400000
746.345825	190.600000
746.383423	190.600000
746.420959	182.900000
746.458557	182.200000
746.496155	184.600000
746.533691	185.200000
746.571289	181.600000
746.608887	187.200000
746.646423	188.000000
746.684021	187.900000
746.721619	185.500000
746.759155	187.400000
746.796753	180.000000
746.834351	181.600000
746.871826	183.600000
746.909424	193.500000
746.946960	190.000000
746.984558	185.700000
747.022156	185.600000
747.059631	195.500000
747.097229	190.400000
747.134827	184.800000
747.172363	193.500000
747.209900	189.300000
747.247498	183.800000
747.285034	194.500000
747.322571	195.500000
747.360168	186.000000
747.397644	180.700000
747.435242	190.900000
747.472778	194.200000
747.510315	184.900000
747.547913	185.500000
747.585388	193.600000
747.622925	186.600000
747.660522	180.300000
747.697998	184.500000
747.735596	187.400000
747.773132	185.700000
747.810669	186.600000
747.848206	189.900000
747.885742	182.100000
747.923279	181.900000
747.960815	188.700000
747.998352	189.400000
748.035889	191.600000
748.073425	191.100000
748.110901	184.500000
748.148437	182.700000
748.185974	186.200000
748.223511	196.400000
748.261047	188.700000
748.298584	188.700000
748.336060	184.800000
748.373596	188.400000
748.411133	206.500000
748.448608	182.400000
748.486145	191.400000
748.523682	195.200000
748.561218	193.700000
748.598755	187.600000
748.636292	190.200000
748.673706	184.900000
748.711243	193.500000
748.748718	190.300000
748.786255	187.300000
748.823792	187.600000
748.861267	182.800000
748.898804	188.600000
748.936340	189.900000
748.973816	186.700000
749.011292	193.400000
749.048828	190.000000
749.086304	190.900000
749.123840	199.200000
749.161316	183.100000
749.198792	197.100000
749.236328	193.900000
749.273743	187.700000
749.311279	187.400000
749.348816	190.700000
749.386230	188.700000
749.423767	176.000000
749.461304	190.600000
749.498718	188.800000
749.536255	194.400000
749.573730	199.800000
749.611206	194.100000
749.648682	186.700000
749.686218	188.000000
749.723633	192.100000
749.761169	186.000000
749.798645	185.200000
749.836060	186.500000
749.873596	184.700000
749.911011	187.900000
749.948547	193.900000
749.986023	187.400000
750.023437	186.400000
750.060913	180.000000
750.098450	180.600000
750.135864	186.200000
750.173340	187.900000
750.210815	192.100000
750.248291	180.900000
750.285767	187.600000
750.323242	193.000000
750.360657	189.100000
750.398132	183.500000
750.435608	191.100000
750.473022	183.200000
750.510498	182.700000
750.547974	183.800000
750.585449	185.200000
750.622925	177.500000
750.660339	197.000000
750.697815	189.200000
750.735291	187.100000
750.772644	187.800000
750.810120	189.600000
750.847595	190.400000
750.885010	183.100000
750.922485	195.700000
750.959961	185.800000
750.997375	195.200000
751.034851	192.200000
751.072266	193.000000
751.109680	181.500000
751.147156	193.500000
751.184570	189.800000
751.221985	188.500000
751.259460	179.400000
751.296875	187.800000
751.334290	188.300000
751.371765	192.800000
751.409180	190.300000
751.446594	193.500000
751.484070	189.600000
751.521423	191.300000
751.558899	189.200000
751.596375	194.700000
751.633728	195.000000
751.671204	200.100000
751.708618	183.500000
751.746033	188.100000
751.783447	181.100000
751.820801	184.000000
751.858276	190.700000
751.895691	187.100000
751.933105	184.600000
751.970520	184.800000
752.007935	184.800000
752.045349	190.900000
752.082764	187.700000
752.120178	185.200000
752.157532	183.900000
752.195007	183.900000
752.232422	190.000000
752.269775	192.000000
752.307190	190.500000
752.344543	182.400000
752.382019	186.800000
752.419434	185.900000
752.456787	190.800000
752.494202	191.900000
752.531616	189.100000
752.568970	191.600000
752.606384	190.000000
752.643799	189.300000
752.681152	196.100000
752.718567	191.600000
752.755981	181.700000
752.793335	190.800000
752.830750	180.500000
752.868164	193.900000
752.905518	184.400000
752.942932	192.000000
752.980225	183.700000
753.017639	192.300000
753.055054	186.100000
753.092407	191.800000
753.129822	193.400000
753.167175	197.700000
753.204529	186.700000
753.241943	185.200000
753.279358	182.400000
753.316650	190.700000
753.354065	190.000000
753.391479	192.400000
753.428772	198.000000
753.466187	192.000000
753.503479	182.100000
753.540894	185.000000
753.578308	180.900000
753.615601	184.100000
753.653015	186.600000
753.690369	185.400000
753.727722	183.300000
753.765076	179.900000
753.802490	181.800000
753.839783	179.500000
753.877136	185.400000
753.914551	201.600000
753.951843	183.000000
753.989258	189.100000
754.026611	188.600000
754.063904	187.800000
754.101257	182.600000
754.138611	180.100000
754.175964	187.100000
754.213318	199.600000
754.250610	181.100000
754.288025	184.100000
754.325378	181.100000
754.362671	191.100000
754.400024	186.100000
754.437378	196.200000
754.474670	197.000000
754.512085	184.600000
754.549438	187.700000
754.586731	185.800000
754.624084	185.900000
754.661438	183.500000
754.698730	195.900000
754.736084	185.600000
754.773376	187.000000
754.810730	191.200000
754.848083	184.900000
754.885315	192.800000
754.922668	180.300000
754.960022	181.900000
754.997314	191.800000
755.034668	187.300000
755.072021	187.200000
755.109253	185.400000
755.146606	193.700000
755.183960	185.000000
755.221252	194.700000
755.258545	190.600000
755.295898	191.900000
755.333191	192.200000
755.370544	190.000000
755.407776	186.200000
755.445129	186.900000
755.482422	191.500000
755.519714	183.500000
755.557068	177.900000
755.594360	177.200000
755.631653	189.800000
755.668945	194.900000
755.706299	187.800000
755.743530	197.400000
755.780884	193.700000
755.818176	191.300000
755.855408	190.700000
755.892761	188.900000
755.930054	187.100000
755.967346	187.900000
756.004639	188.900000
756.041870	187.700000
756.079224	191.300000
756.116516	182.300000
756.153748	190.600000
756.191040	195.000000
756.228394	189.400000
756.265625	182.800000
756.302917	188.500000
756.340210	184.300000
756.377441	192.300000
756.414795	193.500000
756.452087	186.000000
756.489319	181.300000
756.526611	190.300000
756.563843	189.800000
756.601135	197.100000
756.638428	196.600000
756.675659	187.600000
756.712952	192.900000
756.750244	191.400000
756.787476	189.700000
756.824768	195.400000
756.862061	187.000000
756.899292	235.400000
756.936584	192.600000
756.973816	200.200000
757.011047	200.000000
757.048340	188.900000
757.085632	189.200000
757.122864	204.800000
757.160156	187.600000
757.197327	192.600000
757.234619	194.400000
757.271912	189.400000
757.309082	193.600000
757.346375	185.900000
757.383667	193.600000
757.420837	191.100000
757.458130	190.600000
757.495422	187.700000
757.532593	190.200000
757.569885	181.900000
757.607117	185.000000
757.644348	190.800000
757.681580	201.900000
757.718811	176.800000
757.756042	188.600000
757.793335	186.600000
757.830505	192.100000
757.867798	186.600000
757.905029	185.700000
757.942200	190.900000
757.979492	185.800000
758.016724	187.000000
758.053894	187.000000
758.091187	206.900000
758.128418	189.400000
758.165588	190.300000
758.202820	201.200000
758.240112	188.700000
758.277283	201.500000
758.314514	191.800000
758.351685	188.100000
758.388916	201.200000
758.426147	198.500000
758.463379	200.900000
758.500610	194.300000
758.537842	193.100000
758.575012	197.900000
758.612244	187.400000
758.649475	203.800000
758.686646	185.600000
758.723877	199.000000
758.761108	200.400000
758.798279	192.700000
758.835510	195.500000
758.872742	198.600000
758.909851	194.400000
758.947083	197.500000
758.984253	195.400000
759.021484	197.500000
759.058716	196.700000
759.095886	197.600000
759.133057	192.700000
759.170288	196.900000
759.207458	189.100000
759.244690	204.900000
759.281860	202.100000
759.319031	193.500000
759.356262	191.500000
759.393433	192.600000
759.430603	192.300000
759.467773	192.700000
759.505005	200.700000
759.542175	200.200000
759.579346	192.800000
759.616516	194.100000
759.653687	196.400000
759.690918	192.600000
759.728027	196.400000
759.765259	196.700000
759.802429	199.400000
759.839539	198.100000
759.876770	201.400000
759.913940	206.800000
759.951111	197.900000
759.988281	195.800000
760.025452	193.800000
760.062561	194.900000
760.099792	205.600000
760.136963	200.900000
760.174072	197.100000
760.211243	191.700000
760.248413	193.800000
760.285583	194.800000
760.322754	207.800000
760.359863	204.900000
760.397034	204.800000
760.434204	198.400000
760.471375	199.800000
760.508545	198.800000
760.545715	197.500000
760.582825	193.600000
760.619995	204.500000
760.657166	193.000000
760.694275	206.200000
760.731445	200.800000
760.768555	202.100000
760.805664	203.000000
760.842834	200.600000
760.879944	203.600000
760.917114	201.000000
760.954285	199.100000
760.991394	193.800000
761.028564	206.300000
761.065674	203.300000
761.102783	196.400000
761.139954	204.800000
761.177124	204.500000
761.214172	206.700000
761.251343	199.200000
761.288452	200.500000
761.325562	203.300000
761.362732	197.300000
761.399841	200.600000
761.436951	202.300000
761.474121	196.600000
761.511169	201.200000
761.548340	205.100000
761.585449	203.800000
761.622559	205.300000
761.659668	201.700000
761.696838	207.600000
761.733887	203.700000
761.771057	200.200000
761.808167	201.300000
761.845276	206.200000
761.882385	215.100000
761.919434	204.900000
761.956604	222.100000
761.993713	199.700000
762.030762	210.600000
762.067871	203.400000
762.105042	201.900000
762.142090	210.200000
762.179199	206.600000
762.216309	209.800000
762.253418	221.500000
762.290527	216.000000
762.327637	211.000000
762.364685	202.400000
762.401794	211.200000
762.438904	208.500000
762.475952	204.400000
762.513062	202.200000
762.550110	202.100000
762.587219	217.000000
762.624329	216.100000
762.661377	211.300000
762.698486	210.600000
762.735596	208.500000
762.772644	203.400000
762.809753	201.200000
762.846863	207.400000
762.883911	212.400000
762.921021	212.600000
762.958069	208.600000
762.995117	217.800000
763.032227	216.100000
763.069336	207.600000
763.106323	203.500000
763.143433	202.600000
763.180481	211.100000
763.217590	213.600000
763.254639	207.200000
763.291687	207.800000
763.328735	216.600000
763.365845	209.800000
763.402893	208.500000
763.439941	209.800000
763.477051	213.900000
763.514038	214.300000
763.551147	208.200000
763.588196	213.000000
763.625244	212.100000
763.662292	219.400000
763.699402	220.100000
763.736389	215.300000
763.773499	224.300000
763.810486	215.300000
763.847534	213.700000
763.884644	214.000000
763.921631	210.900000
763.958679	224.300000
763.995728	214.800000
764.032776	223.600000
764.069824	212.200000
764.106873	218.200000
764.143860	225.000000
764.180969	214.600000
764.218018	223.600000
764.255005	214.100000
764.292053	216.500000
764.329102	226.700000
764.366089	226.100000
764.403137	223.200000
764.440125	215.700000
764.477173	219.400000
764.514221	222.300000
764.551208	220.200000
764.588257	215.000000
764.625305	225.000000
764.662292	228.000000
764.699341	231.200000
764.736389	221.300000
764.773376	237.800000
764.810425	225.000000
764.847473	232.100000
764.884399	228.400000
764.921448	237.300000
764.958435	234.100000
764.995483	226.600000
765.032532	241.100000
765.069458	226.400000
765.106506	229.700000
765.143555	224.800000
765.180481	228.100000
765.217529	238.900000
765.254578	221.900000
765.291504	231.700000
765.328552	229.800000
765.365540	227.000000
765.402527	244.800000
765.439575	228.700000
765.476501	225.500000
765.513550	227.600000
765.550537	230.600000
765.587463	238.800000
765.624512	231.100000
765.661499	221.900000
765.698486	238.000000
765.735474	227.300000
765.772461	230.800000
765.809448	239.600000
765.846436	234.900000
765.883423	241.500000
765.920410	236.200000
765.957397	232.100000
765.994385	238.200000
766.031311	247.700000
766.068359	243.000000
766.105286	240.800000
766.142273	247.300000
766.179260	243.100000
766.216187	234.100000
766.253174	233.300000
766.290161	240.400000
766.327148	244.000000
766.364136	243.400000
766.401123	257.100000
766.438049	236.000000
766.475037	249.100000
766.512024	243.500000
766.548950	258.500000
766.585937	252.600000
766.622864	245.900000
766.659790	244.600000
766.696777	235.300000
766.733704	251.100000
766.770691	241.100000
766.807678	253.700000
766.844604	246.700000
766.881531	247.800000
766.918518	252.100000
766.955444	254.900000
766.992432	246.200000
767.029358	249.900000
767.066284	252.700000
767.103271	249.500000
767.140198	280.600000
767.177124	266.200000
767.214050	255.000000
767.251038	256.100000
767.287964	251.700000
767.324890	247.500000
767.361816	254.000000
767.398743	259.100000
767.435730	252.300000
767.472595	255.600000
767.509583	261.300000
767.546509	248.300000
767.583374	253.700000
767.620361	247.900000
767.657288	251.800000
767.694214	255.500000
767.731140	253.000000
767.768066	255.800000
767.804993	260.700000
767.841919	251.100000
767.878845	256.700000
767.915710	264.600000
767.952698	257.800000
767.989563	259.800000
768.026489	259.900000
768.063416	254.400000
768.100281	255.000000
768.137207	267.700000
768.174133	265.700000
768.211060	264.700000
768.247986	264.100000
768.284912	261.800000
768.321777	263.400000
768.358704	259.500000
768.395630	264.200000
768.432495	259.300000
768.469421	263.200000
768.506348	268.500000
768.543152	273.000000
768.580078	268.700000
768.616943	268.700000
768.653870	272.500000
768.690796	269.600000
768.727661	268.600000
768.764587	271.100000
768.801453	264.100000
768.838318	275.600000
768.875244	272.100000
768.912109	276.600000
768.948975	269.000000
768.985901	270.500000
769.022766	268.100000
769.059631	275.400000
769.096558	269.000000
769.133362	270.400000
769.170288	270.800000
769.207214	271.100000
769.244019	275.200000
769.280945	272.900000
769.317810	282.300000
769.354675	273.700000
769.391541	283.700000
769.428406	279.900000
769.465271	290.800000
769.502136	279.600000
769.539062	282.500000
769.575867	280.800000
769.612732	283.300000
769.649597	286.900000
769.686462	288.600000
769.723328	283.600000
769.760193	280.800000
769.797058	285.700000
769.833923	294.800000
769.870728	289.200000
769.907593	289.900000
769.944519	290.000000
769.981323	291.200000
770.018188	294.800000
770.055054	291.400000
770.091858	292.200000
770.128723	299.900000
770.165588	306.800000
770.202393	290.400000
770.239258	304.400000
770.276062	299.300000
770.312927	299.400000
770.349792	308.200000
770.386597	304.600000
770.423462	312.100000
770.460327	318.800000
770.497131	302.700000
770.533997	297.700000
770.570862	312.200000
770.607605	313.100000
770.644470	308.500000
770.681335	310.100000
770.718140	310.700000
770.754944	304.000000
770.791809	304.000000
770.828613	305.800000
770.865479	309.700000
770.902222	319.300000
770.939087	312.500000
770.975952	303.600000
771.012695	307.900000
771.049561	324.800000
771.086365	313.200000
771.123169	310.700000
771.159973	314.100000
771.196838	315.900000
771.233582	317.500000
771.270447	318.900000
771.307251	321.900000
771.344055	317.700000
771.380859	325.600000
771.417664	317.700000
771.454468	329.000000
771.491272	326.400000
771.528076	327.700000
771.564880	322.900000
771.601685	332.500000
771.638428	321.900000
771.675293	330.900000
771.712097	319.100000
771.748840	338.100000
771.785645	328.500000
771.822449	330.800000
771.859253	330.400000
771.896057	330.600000
771.932861	341.500000
771.969604	331.000000
772.006409	324.900000
772.043213	338.900000
772.079956	335.300000
772.116760	329.100000
772.153503	333.000000
772.190308	345.700000
772.227112	334.000000
772.263855	329.400000
772.300659	334.100000
772.337463	344.500000
772.374207	334.500000
772.411011	331.400000
772.447754	335.700000
772.484497	348.900000
772.521301	340.600000
772.558105	340.700000
772.594849	344.000000
772.631592	346.500000
772.668396	342.800000
772.705139	349.200000
772.741882	341.600000
772.778625	354.300000
772.815430	354.600000
772.852173	346.100000
772.888916	353.100000
772.925720	355.800000
772.962463	363.200000
772.999207	354.800000
773.035950	362.900000
773.072754	359.600000
773.109436	355.100000
773.146240	358.500000
773.182922	357.600000
773.219727	366.000000
773.256470	360.300000
773.293152	348.200000
773.329956	356.900000
773.366699	359.700000
773.403381	350.200000
773.440186	359.600000
773.476929	365.300000
773.513611	357.700000
773.550354	357.600000
773.587158	357.800000
773.623840	352.300000
773.660583	360.200000
773.697327	375.800000
773.734009	363.100000
773.770813	362.800000
773.807495	355.700000
773.844238	362.100000
773.880981	376.000000
773.917664	369.700000
773.954407	378.800000
773.991150	368.200000
774.027832	374.500000
774.064575	366.100000
774.101318	374.100000
774.138000	378.300000
774.174744	372.700000
774.211487	377.300000
774.248108	363.500000
774.284851	363.900000
774.321594	372.600000
774.358276	372.900000
774.395020	382.000000
774.431702	377.800000
774.468384	371.000000
774.505127	366.200000
774.541809	376.400000
774.578491	384.800000
774.615234	387.600000
774.651917	377.500000
774.688599	383.700000
774.725342	389.800000
774.762024	385.000000
774.798706	390.800000
774.835449	389.200000
774.872070	395.700000
774.908813	391.000000
774.945496	392.900000
774.982178	389.000000
775.018860	391.500000
775.055542	391.500000
775.092224	394.900000
775.128967	404.100000
775.165588	402.800000
775.202271	397.500000
775.239014	405.200000
775.275635	404.600000
775.312317	398.000000
775.349060	405.100000
775.385681	405.300000
775.422363	397.800000
775.459045	405.200000
775.495667	405.300000
775.532410	410.500000
775.569092	409.100000
775.605713	410.300000
775.642395	412.600000
775.679016	417.700000
775.715698	412.800000
775.752380	414.700000
775.789001	408.100000
775.825684	412.200000
775.862366	414.300000
775.898987	427.300000
775.935669	415.000000
775.972351	433.200000
776.008972	427.700000
776.045654	427.200000
776.082336	424.000000
776.118958	426.800000
776.155640	427.000000
776.192322	433.600000
776.228882	433.500000
776.265564	434.700000
776.302185	433.200000
776.338867	442.900000
776.375488	431.200000
776.412109	445.800000
776.448792	446.500000
776.485413	454.800000
776.522034	444.800000
776.558716	435.400000
776.595337	436.400000
776.631958	444.200000
776.668579	444.600000
776.705261	453.500000
776.741882	448.300000
776.778503	451.800000
776.815186	448.000000
776.851746	453.100000
776.888367	453.100000
776.924988	461.400000
776.961609	455.400000
776.998291	456.600000
777.034851	448.500000
777.071472	461.900000
777.108154	458.400000
777.144714	471.500000
777.181335	467.700000
777.218018	462.600000
777.254578	468.300000
777.291199	470.100000
777.327759	475.300000
777.364380	478.100000
777.401062	484.800000
777.437622	496.600000
777.474243	481.500000
777.510864	489.800000
777.547424	485.200000
777.584045	487.100000
777.620667	487.900000
777.657227	490.100000
777.693848	489.300000
777.730469	506.400000
777.767029	495.300000
777.803650	499.000000
777.840271	491.700000
777.876831	494.100000
777.913452	501.500000
777.950012	485.600000
777.986633	486.600000
778.023193	486.700000
778.059753	485.600000
778.096375	484.400000
778.132996	500.000000
778.169556	489.800000
778.206116	491.000000
778.242737	487.000000
778.279297	497.300000
778.315857	489.400000
778.352478	493.800000
778.389038	503.600000
778.425598	501.800000
778.462219	506.000000
778.498718	502.800000
778.535339	503.700000
778.571838	508.300000
778.608459	515.700000
778.645020	502.600000
778.681580	510.400000
778.718140	513.500000
778.754761	506.400000
778.791260	512.300000
778.827881	517.100000
778.864441	518.000000
778.900940	521.000000
778.937561	522.100000
778.974121	515.700000
779.010620	509.500000
779.047241	512.800000
779.083801	524.300000
779.120300	520.100000
779.156860	525.000000
779.193359	519.100000
779.229980	520.300000
779.266541	524.400000
779.303040	528.700000
779.339600	520.500000
779.376160	510.900000
779.412659	515.000000
779.449219	512.900000
779.485779	514.200000
779.522278	517.400000
779.558838	523.700000
779.595398	526.900000
779.631897	521.200000
779.668457	517.200000
779.705017	527.400000
779.741516	516.100000
779.778076	515.900000
779.814575	519.100000
779.851074	524.300000
779.887634	523.800000
779.924133	532.000000
779.960693	521.400000
779.997253	530.500000
780.033691	532.400000
780.070251	537.900000
780.106812	547.000000
780.143250	538.800000
780.179810	536.700000
780.216370	535.600000
780.252808	540.300000
780.289368	546.500000
780.325867	543.400000
780.362366	543.000000
780.398865	556.600000
780.435364	545.100000
780.471863	556.500000
780.508423	553.500000
780.544861	556.700000
780.581421	559.100000
780.617920	547.800000
780.654419	544.700000
780.690918	552.500000
780.727417	561.800000
780.763916	557.600000
780.800415	567.200000
780.836914	553.900000
780.873352	563.200000
780.909912	555.900000
780.946411	560.700000
780.982849	567.300000
781.019348	576.100000
781.055786	570.600000
781.092346	569.900000
781.128845	575.200000
781.165283	579.900000
781.201782	588.000000
781.238281	591.200000
781.274719	596.900000
781.311218	587.100000
781.347717	595.200000
781.384155	584.900000
781.420654	585.900000
781.457092	598.000000
781.493591	591.600000
781.530090	584.700000
781.566528	589.300000
781.602966	592.100000
781.639465	591.100000
781.675903	587.300000
781.712402	595.600000
781.748901	600.500000
781.785278	593.300000
781.821777	598.100000
781.858276	594.900000
781.894714	610.300000
781.931152	604.600000
781.967651	612.000000
782.004089	601.200000
782.040527	610.600000
782.076965	612.100000
782.113403	614.700000
782.149902	617.300000
782.186340	610.400000
782.222778	623.400000
782.259277	615.100000
782.295654	614.200000
782.332092	624.100000
782.368591	623.100000
782.404968	619.300000
782.441467	632.200000
782.477905	627.700000
782.514282	624.600000
782.550781	642.500000
782.587219	639.000000
782.623596	642.200000
782.660095	643.500000
782.696472	647.800000
782.732910	645.800000
782.769348	651.500000
782.805786	666.600000
782.842224	661.500000
782.878662	657.100000
782.915039	659.400000
782.951477	665.400000
782.987915	660.500000
783.024292	674.800000
783.060730	678.000000
783.097168	665.300000
783.133545	658.800000
783.169983	655.800000
783.206421	647.100000
783.242798	645.000000
783.279236	640.500000
783.315613	634.000000
783.352051	635.400000
783.388489	627.200000
783.424866	620.900000
783.461304	625.000000
783.497681	634.800000
783.534058	634.300000
783.570496	630.500000
783.606934	626.800000
783.643250	633.800000
783.679687	639.600000
783.716125	636.300000
783.752441	643.900000
783.788879	661.500000
783.825317	667.900000
783.861633	672.600000
783.898071	675.700000
783.934448	686.100000
783.970825	694.900000
784.007263	693.900000
784.043579	693.600000
784.080017	701.200000
784.116394	695.900000
784.152710	697.600000
784.189148	701.100000
784.225525	700.400000
784.261902	692.000000
784.298279	685.700000
784.334656	686.600000
784.371033	675.000000
784.407410	679.000000
784.443787	663.100000
784.480164	649.400000
784.516541	639.500000
784.552856	642.200000
784.589233	632.000000
784.625610	629.000000
784.661987	648.700000
784.698364	631.900000
784.734741	615.100000
784.771057	605.600000
784.807434	589.300000
784.843811	579.800000
784.880127	544.200000
784.916504	542.600000
784.952881	520.400000
784.989197	492.900000
785.025574	477.900000
785.061951	462.400000
785.098267	465.100000
785.134644	450.600000
785.170959	447.000000
785.207275	462.100000
785.243652	474.200000
785.279968	475.700000
785.316345	496.200000
785.352722	518.700000
785.388977	538.400000
785.425354	542.600000
785.461731	556.400000
785.498047	571.700000
785.534363	582.100000
785.570679	599.000000
785.606995	609.600000
785.643372	625.000000
785.679687	630.500000
785.716003	629.600000
785.752380	630.200000
785.788635	635.100000
785.825012	654.400000
785.861328	665.400000
785.897644	656.700000
785.933960	676.400000
785.970337	679.700000
786.006592	689.700000
786.042908	698.600000
786.079285	708.500000
786.115540	716.400000
786.151855	715.700000
786.188171	716.600000
786.224487	715.100000
786.260803	712.600000
786.297119	723.700000
786.333435	715.900000
786.369751	705.400000
786.406006	705.400000
786.442322	688.900000
786.478638	685.600000
786.514954	693.900000
786.551270	686.500000
786.587585	700.400000
786.623840	688.700000
786.660156	687.200000
786.696472	681.800000
786.732727	677.300000
786.769043	677.400000
786.805298	671.500000
786.841614	676.700000
786.877930	686.400000
786.914124	673.700000
786.950439	695.800000
786.986755	700.100000
787.023010	709.700000
787.059326	717.500000
787.095642	717.300000
787.131836	726.300000
787.168152	713.700000
787.204468	724.500000
787.240723	738.300000
787.276978	743.100000
787.313293	748.900000
787.349548	744.700000
787.385803	746.500000
787.422058	734.600000
787.458313	729.900000
787.494629	729.500000
787.530823	733.700000
787.567139	723.000000
787.603455	717.000000
787.639648	703.800000
787.675903	706.200000
787.712219	707.500000
787.748413	700.800000
787.784729	717.400000
787.820984	705.800000
787.857178	698.700000
787.893494	695.500000
787.929749	701.800000
787.965942	704.600000
788.002258	716.800000
788.038452	724.100000
788.074707	724.600000
788.110962	731.700000
788.147217	727.300000
788.183472	734.700000
788.219727	747.600000
788.255920	764.800000
788.292175	778.900000
788.328430	777.700000
788.364624	764.500000
788.400879	757.500000
788.437134	761.800000
788.473328	759.500000
788.509583	766.300000
788.545837	762.000000
788.582031	766.000000
788.618286	759.600000
788.654480	749.400000
788.690735	760.300000
788.726990	774.800000
788.763184	768.500000
788.799377	779.000000
788.835632	768.200000
788.871826	782.000000
788.908081	781.900000
788.944336	770.400000
788.980469	787.500000
789.016724	776.700000
789.052979	788.900000
789.089111	776.000000
789.125366	791.200000
789.161621	774.700000
789.197754	780.600000
789.234009	777.300000
789.270142	774.700000
789.306396	774.900000
789.342590	769.700000
789.378784	747.800000
789.414978	739.400000
789.451233	751.700000
789.487366	756.400000
789.523621	761.600000
789.559814	755.500000
789.595947	748.200000
789.632202	755.800000
789.668335	758.700000
789.704529	775.700000
789.740784	789.400000
789.776917	790.700000
789.813110	784.400000
789.849304	799.700000
789.885498	796.200000
789.921692	813.300000
789.957886	814.100000
789.994019	831.600000
790.030212	834.200000
790.066406	832.000000
790.102539	822.100000
790.138733	824.100000
790.174927	819.500000
790.211060	827.600000
790.247253	819.300000
790.283386	807.800000
790.319580	798.300000
790.355774	782.400000
790.391907	787.300000
790.428101	801.100000
790.464294	799.500000
790.500427	805.400000
790.536621	782.200000
790.572754	773.300000
790.608887	768.500000
790.645081	779.900000
790.681274	791.200000
790.717346	796.600000
790.753540	781.500000
790.789734	762.800000
790.825867	752.500000
790.862000	758.400000
790.898132	771.000000
790.934265	764.700000
790.970459	772.400000
791.006592	771.100000
791.042725	769.800000
791.078918	756.100000
791.114990	752.600000
791.151184	758.400000
791.187317	776.900000
791.223389	769.200000
791.259583	760.900000
791.295715	764.000000
791.331848	764.700000
791.367981	773.300000
791.404114	782.000000
791.440247	780.600000
791.476379	786.600000
791.512451	771.400000
791.548584	773.500000
791.584778	757.700000
791.620850	774.100000
791.656982	783.000000
791.693115	784.000000
791.729187	784.600000
791.765381	774.200000
791.801514	773.500000
791.837585	775.000000
791.873718	776.700000
791.909851	786.900000
791.945923	798.700000
791.982056	769.100000
792.018188	764.800000
792.054260	771.600000
792.090393	773.400000
792.126465	767.900000
792.162598	768.400000
792.198669	760.800000
792.234741	754.800000
792.270874	746.500000
792.307007	732.700000
792.343079	737.000000
792.379150	748.300000
792.415283	734.200000
792.451355	740.000000
792.487488	723.100000
792.523560	720.900000
792.559631	707.100000
792.595764	674.900000
792.631836	647.800000
792.667908	639.600000
792.703979	618.400000
792.740051	632.500000
792.776184	652.500000
792.812256	656.100000
792.848328	663.200000
792.884399	672.500000
792.920471	672.500000
792.956543	669.700000
792.992615	670.500000
793.028748	666.700000
793.064758	669.000000
793.100830	681.500000
793.136963	696.200000
793.172974	698.500000
793.209045	687.000000
793.245178	694.200000
793.281189	680.400000
793.317261	683.000000
793.353271	684.200000
793.389404	693.400000
793.425476	691.100000
793.461487	678.300000
793.497559	673.600000
793.533630	678.400000
793.569641	676.700000
793.605713	675.400000
793.641785	680.500000
793.677795	688.500000
793.713867	680.100000
793.749878	686.500000
793.785950	696.900000
793.822021	698.300000
793.858032	683.800000
793.894104	696.500000
793.930176	688.300000
793.966187	691.900000
794.002258	687.200000
794.038269	689.900000
794.074280	686.300000
794.110352	712.100000
794.146423	696.400000
794.182373	694.600000
794.218445	688.900000
794.254517	682.700000
794.290466	665.500000
794.326538	678.500000
794.362549	680.900000
794.398560	687.300000
794.434631	687.800000
794.470581	671.100000
794.506653	667.900000
794.542664	678.100000
794.578674	677.700000
794.614685	679.000000
794.650757	673.500000
794.686707	671.100000
794.722778	663.100000
794.758789	662.800000
794.794739	674.100000
794.830811	696.600000
794.866821	714.000000
794.902771	708.600000
794.938843	701.800000
794.974792	702.100000
795.010803	707.500000
795.046814	705.300000
795.082825	692.100000
795.118835	710.300000
795.154846	698.500000
795.190796	704.300000
795.226807	681.300000
795.262817	686.100000
795.298767	690.500000
795.334778	693.500000
795.370850	685.200000
795.406799	694.400000
795.442810	681.800000
795.478821	681.300000
795.514709	677.400000
795.550720	695.500000
795.586670	676.600000
795.622681	685.500000
795.658691	682.400000
795.694641	684.100000
795.730652	675.700000
795.766663	683.300000
795.802551	682.800000
795.838562	697.200000
795.874573	684.600000
795.910522	685.400000
795.946472	675.000000
795.982483	678.900000
796.018433	678.300000
796.054382	688.900000
796.090393	678.800000
796.126282	676.900000
796.162292	669.200000
796.198242	666.900000
796.234192	667.600000
796.270203	661.800000
796.306091	670.400000
796.342041	680.100000
796.378052	667.900000
796.413940	667.100000
796.449951	673.700000
796.485901	673.200000
796.521790	672.200000
796.557800	681.100000
796.593689	682.800000
796.629639	673.700000
796.665649	667.000000
796.701599	663.600000
796.737488	661.600000
796.773437	666.400000
796.809387	665.800000
796.845337	671.400000
796.881287	665.600000
796.917175	650.600000
796.953125	651.700000
796.989075	662.300000
797.024963	664.400000
797.060913	664.600000
797.096863	664.700000
797.132751	656.800000
797.168701	643.500000
797.204590	650.100000
797.240540	653.400000
797.276489	664.100000
797.312439	666.900000
797.348328	664.100000
797.384277	655.200000
797.420166	650.200000
797.456055	651.200000
797.492004	648.200000
797.527893	654.800000
797.563843	659.200000
797.599731	644.800000
797.635620	633.100000
797.671570	643.400000
797.707520	643.100000
797.743347	641.400000
797.779297	648.100000
797.815125	643.100000
797.851074	636.200000
797.887024	630.300000
797.922913	624.800000
797.958801	638.000000
797.994690	632.200000
798.030579	637.700000
798.066467	648.600000
798.102356	636.200000
798.138245	630.100000
798.174133	625.500000
798.210083	633.000000
798.245911	640.700000
798.281799	636.700000
798.317749	634.900000
798.353577	632.200000
798.389465	633.200000
798.425293	632.000000
798.461243	626.600000
798.497131	631.700000
798.532959	633.600000
798.568848	644.700000
798.604736	630.200000
798.640564	616.600000
798.676453	618.800000
798.712402	616.700000
798.748230	623.400000
798.784119	623.300000
798.820007	620.600000
798.855835	617.600000
798.891724	610.000000
798.927551	605.800000
798.963379	613.300000
798.999268	610.100000
799.035095	608.600000
799.070984	601.700000
799.106873	596.100000
799.142700	597.500000
799.178528	593.200000
799.214417	593.400000
799.250244	605.700000
799.286133	601.400000
799.321960	599.000000
799.357788	595.600000
799.393677	592.800000
799.429504	588.700000
799.465332	587.200000
799.501221	597.100000
799.537048	595.700000
799.572876	585.700000
799.608704	585.900000
799.644531	596.300000
799.680359	594.300000
799.716248	601.000000
799.752014	610.100000
799.787903	602.400000
799.823730	600.300000
799.859558	591.500000
799.895386	592.600000
799.931213	590.500000
799.967041	582.000000
800.002869	586.900000
800.038696	599.800000
800.074463	580.800000
800.110352	586.900000
800.146179	578.000000
800.181946	586.600000
800.217773	590.700000
800.253540	587.100000
800.289429	584.700000
800.325256	574.100000
800.361023	565.300000
800.396851	573.000000
800.432678	576.700000
800.468445	574.800000
800.504272	574.100000
800.540100	562.400000
800.575867	563.200000
800.611694	568.500000
800.647461	562.500000
800.683289	566.900000
800.719116	573.600000
800.754883	564.600000
800.790649	553.600000
800.826477	546.400000
800.862244	573.000000
800.898071	557.000000
800.933838	555.800000
800.969604	558.500000
801.005432	558.400000
801.041199	557.000000
801.076965	555.100000
801.112793	545.000000
801.148560	537.900000
801.184326	542.500000
801.220154	542.600000
801.255859	537.500000
801.291687	538.200000
801.327454	535.400000
801.363281	537.800000
801.398987	532.100000
801.434814	534.000000
801.470520	545.800000
801.506287	535.500000
801.542114	528.900000
801.577820	531.400000
801.613647	530.300000
801.649414	528.000000
801.685120	535.800000
801.720886	539.800000
801.756714	526.900000
801.792419	517.700000
801.828186	516.100000
801.863892	523.200000
801.899719	517.100000
801.935486	512.300000
801.971252	520.000000
802.006958	517.400000
802.042725	511.800000
802.078430	513.900000
802.114197	508.500000
802.149963	525.000000
802.185669	509.000000
802.221436	512.000000
802.257202	514.700000
802.292908	507.600000
802.328674	517.000000
802.364441	518.700000
802.400146	516.600000
802.435913	515.800000
802.471558	512.500000
802.507324	509.300000
802.543091	506.300000
802.578796	513.800000
802.614502	512.400000
802.650269	520.500000
802.685974	504.500000
802.721741	513.600000
802.757446	516.200000
802.793152	514.100000
802.828918	524.400000
802.864624	517.300000
802.900330	513.600000
802.936035	519.300000
802.971802	515.800000
803.007446	513.600000
803.043213	503.900000
803.078857	513.100000
803.114624	498.000000
803.150330	504.700000
803.185974	496.100000
803.221741	496.900000
803.257446	507.000000
803.293152	508.700000
803.328857	502.000000
803.364563	498.800000
803.400208	491.400000
803.435974	503.100000
803.471680	492.900000
803.507324	488.700000
803.543030	499.100000
803.578735	501.900000
803.614441	493.100000
803.650146	503.400000
803.685791	489.200000
803.721497	493.300000
803.757202	481.600000
803.792847	490.800000
803.828552	481.100000
803.864258	481.900000
803.899902	479.300000
803.935608	468.700000
803.971313	472.900000
804.006958	472.300000
804.042664	471.400000
804.078308	477.800000
804.113953	468.000000
804.149658	480.200000
804.185364	465.800000
804.221008	479.400000
804.256714	470.000000
804.292297	464.000000
804.328003	462.400000
804.363708	456.900000
804.399292	459.100000
804.434998	466.500000
804.470703	457.100000
804.506287	467.200000
804.541992	460.200000
804.577637	466.700000
804.613281	456.100000
804.648926	451.400000
804.684570	455.600000
804.720215	448.600000
804.755920	449.400000
804.791565	446.500000
804.827209	458.000000
804.862854	450.700000
804.898437	445.400000
804.934143	447.700000
804.969788	442.000000
805.005371	444.300000
805.041077	445.700000
805.076721	445.700000
805.112305	437.400000
805.147949	434.900000
805.183655	431.000000
805.219238	437.300000
805.254883	437.300000
805.290466	442.900000
805.326111	435.800000
805.361755	424.900000
805.397400	432.500000
805.432983	434.300000
805.468628	431.200000
805.504211	435.700000
805.539856	433.100000
805.575500	436.100000
805.611084	426.000000
805.646729	417.200000
805.682373	422.100000
805.717957	431.100000
805.753601	432.800000
805.789246	417.200000
805.824768	428.600000
805.860413	431.200000
805.895996	419.400000
805.931641	417.400000
805.967224	427.000000
806.002869	418.200000
806.038452	427.900000
806.074036	427.900000
806.109619	415.700000
806.145264	412.200000
806.180847	414.800000
806.216431	413.100000
806.252014	417.400000
806.287659	416.200000
806.323181	429.300000
806.358826	420.500000
806.394409	405.100000
806.429993	409.100000
806.465576	425.000000
806.501160	407.800000
806.536743	401.100000
806.572327	412.300000
806.607910	409.700000
806.643494	406.600000
806.679077	403.700000
806.714661	405.000000
806.750244	406.100000
806.785828	399.000000
806.821350	402.700000
806.856934	405.700000
806.892517	401.800000
806.928101	398.900000
806.963684	398.600000
806.999268	409.900000
807.034790	393.000000
807.070374	400.100000
807.105896	390.900000
807.141479	387.300000
807.177063	395.700000
807.212585	388.400000
807.248169	391.300000
807.283752	396.200000
807.319275	390.200000
807.354858	395.100000
807.390381	387.600000
807.425903	388.200000
807.461487	385.100000
807.497070	380.600000
807.532593	381.100000
807.568115	380.300000
807.603699	376.400000
807.639221	370.400000
807.674744	377.200000
807.710266	384.700000
807.745850	385.400000
807.781372	376.700000
807.816895	375.300000
807.852417	378.500000
807.888000	372.500000
807.923523	372.100000
807.959045	374.000000
807.994629	367.300000
808.030090	365.500000
808.065613	374.100000
808.101135	376.000000
808.136658	372.600000
808.172241	369.600000
808.207764	368.900000
808.243225	362.400000
808.278809	361.900000
808.314270	370.000000
808.349792	357.200000
808.385315	357.500000
808.420837	364.500000
808.456360	368.200000
808.491882	372.200000
808.527344	364.700000
808.562866	374.800000
808.598389	366.800000
808.633850	360.700000
808.669434	355.900000
808.704895	365.900000
808.740417	370.000000
808.775940	363.900000
808.811462	362.000000
808.846924	354.800000
808.882385	351.200000
808.917847	353.200000
808.953369	356.600000
808.988892	351.200000
809.024353	359.000000
809.059875	358.300000
809.095398	351.000000
809.130798	347.400000
809.166321	348.700000
809.201843	348.900000
809.237305	347.400000
809.272766	357.400000
809.308228	344.100000
809.343750	345.700000
809.379211	348.700000
809.414734	345.400000
809.450134	357.300000
809.485657	341.400000
809.521118	346.000000
809.556580	344.900000
809.592102	342.400000
809.627502	341.700000
809.663025	340.600000
809.698486	337.500000
809.733887	333.300000
809.769409	341.500000
809.804871	329.300000
809.840271	332.200000
809.875793	334.800000
809.911194	339.600000
809.946655	331.100000
809.982178	328.300000
810.017639	333.400000
810.053040	331.300000
810.088501	330.700000
810.123901	330.500000
810.159424	325.600000
810.194885	322.300000
810.230286	326.600000
810.265747	321.400000
810.301208	321.300000
810.336609	323.100000
810.372070	316.500000
810.407532	319.900000
810.442932	321.700000
810.478394	326.700000
810.513794	322.200000
810.549255	320.300000
810.584717	315.500000
810.620117	313.600000
810.655518	317.600000
810.690979	317.600000
810.726379	314.000000
810.761841	305.600000
810.797302	307.800000
810.832642	307.000000
810.868103	319.600000
810.903564	308.500000
810.938904	316.100000
810.974365	302.200000
811.009827	306.900000
811.045166	302.700000
811.080627	294.900000
811.115967	302.700000
811.151428	310.200000
811.186829	301.500000
811.222229	302.600000
811.257629	295.300000
811.293091	304.200000
811.328430	312.200000
811.363892	305.600000
811.399292	305.000000
811.434631	299.600000
811.470093	304.600000
811.505493	296.000000
811.540833	297.400000
811.576294	303.600000
811.611694	299.900000
811.647034	294.900000
811.682434	296.300000
811.717773	299.200000
811.753235	305.000000
811.788635	297.300000
811.823975	299.200000
811.859375	305.300000
811.894775	290.700000
811.930115	294.200000
811.965515	293.400000
812.000916	298.300000
812.036255	292.900000
812.071655	297.100000
812.106995	289.400000
812.142395	290.100000
812.177795	298.000000
812.213196	296.800000
812.248474	296.300000
812.283875	288.100000
812.319214	289.800000
812.354614	292.000000
812.390015	287.500000
812.425293	288.600000
812.460693	288.800000
812.496094	287.000000
812.531433	280.800000
812.566772	282.400000
812.602173	285.400000
812.637451	285.600000
812.672852	282.500000
812.708191	284.300000
812.743530	280.900000
812.778931	273.900000
812.814270	276.400000
812.849609	284.800000
812.884949	279.500000
812.920227	272.500000
812.955627	288.300000
812.990967	280.900000
813.026306	276.300000
813.061646	265.800000
813.096985	263.500000
813.132324	261.800000
813.167664	266.900000
813.203003	271.700000
813.238281	260.400000
813.273682	262.500000
813.308960	258.100000
813.344299	260.700000
813.379639	269.900000
813.414978	262.700000
813.450256	261.800000
813.485596	266.900000
813.520874	259.400000
813.556213	263.500000
813.591614	266.500000
813.626831	257.800000
813.662170	262.500000
813.697510	270.800000
813.732788	255.200000
813.768127	261.300000
813.803467	262.600000
813.838745	256.300000
813.874084	262.000000
813.909363	261.900000
813.944641	261.100000
813.979980	249.900000
814.015320	255.500000
814.050598	254.300000
814.085876	257.300000
814.121155	254.300000
814.156494	253.100000
814.191772	252.700000
814.227051	251.500000
814.262390	251.800000
814.297668	252.500000
814.332947	252.900000
814.368225	246.700000
814.403564	249.400000
814.438782	247.400000
814.474121	249.500000
814.509338	246.500000
814.544617	255.600000
814.579956	245.600000
814.615173	255.200000
814.650513	252.400000
814.685791	243.000000
814.721008	247.000000
814.756348	248.900000
814.791626	244.900000
814.826843	245.500000
814.862122	243.900000
814.897400	241.900000
814.932678	244.800000
814.967957	243.500000
815.003235	243.300000
815.038452	237.800000
815.073730	236.400000
815.108948	246.800000
815.144226	244.200000
815.179504	248.200000
815.214722	234.000000
815.250000	232.800000
815.285278	241.600000
815.320496	235.400000
815.355774	237.700000
815.391052	240.900000
815.426270	238.400000
815.461487	236.100000
815.496765	233.900000
815.531982	228.600000
815.567261	237.500000
815.602539	243.800000
815.637695	240.200000
815.672974	240.000000
815.708191	240.800000
815.743408	243.500000
815.778687	234.900000
815.813904	245.500000
815.849121	227.800000
815.884399	228.900000
815.919556	228.600000
815.954834	229.300000
815.990051	234.400000
816.025269	236.900000
816.060486	228.500000
816.095703	228.300000
816.130920	232.400000
816.166199	229.000000
816.201416	232.000000
816.236572	236.000000
816.271851	229.600000
816.307007	236.900000
816.342224	223.400000
816.377441	227.300000
816.412659	220.300000
816.447876	232.000000
816.483093	225.300000
816.518250	227.900000
816.553467	224.000000
816.588745	228.800000
816.623901	221.800000
816.659119	217.400000
816.694275	221.000000
816.729492	218.100000
816.764709	254.000000
816.799927	215.100000
816.835083	222.400000
816.870300	217.600000
816.905457	219.400000
816.940674	222.600000
816.975830	217.000000
817.010986	213.800000
817.046204	215.500000
817.081421	214.500000
817.116577	214.900000
817.151733	222.800000
817.186951	222.000000
817.222107	218.700000
817.257324	222.300000
817.292419	220.200000
817.327637	211.000000
817.362854	216.000000
817.398010	210.500000
817.433167	212.200000
817.468323	213.000000
817.503479	215.200000
817.538635	221.900000
817.573853	216.800000
817.608948	214.900000
817.644165	211.800000
817.679321	210.900000
817.714478	210.000000
817.749634	214.700000
817.784790	224.400000
817.819946	220.000000
817.855103	202.800000
817.890198	212.800000
817.925415	203.000000
817.960571	213.400000
817.995667	210.600000
818.030823	211.800000
818.066040	206.100000
818.101135	211.300000
818.136292	208.000000
818.171448	205.300000
818.206543	208.600000
818.241699	211.900000
818.276855	208.500000
818.311951	207.000000
818.347107	203.700000
818.382263	209.100000
818.417358	213.600000
818.452515	213.600000
818.487610	216.400000
818.522766	203.000000
818.557922	214.500000
818.593018	210.900000
818.628113	209.000000
818.663269	204.100000
818.698364	207.100000
818.733521	204.300000
818.768677	209.000000
818.803711	202.000000
818.838867	203.600000
818.874023	204.100000
818.909058	202.600000
818.944214	200.100000
818.979370	208.500000
819.014404	205.500000
819.049561	202.400000
819.084595	207.300000
819.119751	198.200000
819.154846	206.800000
819.189941	202.000000
819.225037	199.400000
819.260193	195.400000
819.295227	196.900000
819.330322	193.000000
819.365479	192.600000
819.400513	227.300000
819.435608	191.400000
819.470764	190.700000
819.505798	194.700000
819.540894	196.300000
819.575989	193.400000
819.611084	201.900000
819.646179	203.700000
819.681213	200.100000
819.716309	196.000000
819.751404	195.400000
819.786438	200.700000
819.821533	194.000000
819.856628	196.500000
819.891663	200.900000
819.926758	206.700000
819.961853	203.100000
819.996887	193.300000
820.031982	199.300000
820.067017	194.800000
820.102112	224.000000
820.137207	192.200000
820.172302	209.700000
820.207275	191.300000
820.242371	192.600000
820.277405	191.000000
820.312500	194.000000
820.347534	195.400000
820.382568	200.400000
820.417664	191.900000
820.452759	193.800000
820.487732	190.100000
820.522827	192.600000
820.557861	189.300000
820.592896	192.000000
820.627930	192.300000
820.662964	190.000000
820.698059	194.100000
820.733093	192.300000
820.768127	196.200000
820.803162	191.300000
820.838196	191.300000
820.873230	194.100000
820.908264	193.900000
820.943298	189.600000
820.978333	197.400000
821.013367	194.900000
821.048401	197.500000
821.083435	198.800000
821.118469	186.100000
821.153503	198.800000
821.188477	196.100000
821.223511	187.200000
821.258484	193.100000
821.293579	193.400000
821.328613	186.600000
821.363647	191.200000
821.398621	186.200000
821.433655	188.600000
821.468628	205.200000
821.503662	191.400000
821.538696	196.100000
821.573669	186.100000
821.608704	195.100000
821.643677	190.000000
821.678650	195.100000
821.713684	200.300000
821.748718	189.700000
821.783691	191.000000
821.818726	193.900000
821.853638	194.100000
821.888672	190.400000
821.923706	191.100000
821.958618	188.100000
821.993652	188.900000
822.028687	196.200000
822.063599	197.800000
822.098633	192.100000
822.133667	187.300000
822.168579	189.500000
822.203613	191.100000
822.238586	186.800000
822.273560	192.900000
822.308533	186.600000
822.343567	188.300000
822.378479	189.300000
822.413452	189.500000
822.448425	185.300000
822.483398	194.800000
822.518372	195.700000
822.553345	187.800000
822.588318	198.100000
822.623291	188.700000
822.658203	188.900000
822.693237	190.000000
822.728210	186.600000
822.763123	191.900000
822.798096	185.800000
822.833069	191.100000
822.867981	190.000000
822.902954	192.300000
822.937927	193.400000
822.972900	201.800000
823.007874	182.900000
823.042725	195.500000
823.077698	201.500000
823.112671	188.600000
823.147583	188.100000
823.182556	193.200000
823.217529	195.400000
823.252441	189.800000
823.287415	203.000000
823.322388	193.200000
823.357239	190.900000
823.392212	198.100000
823.427185	193.900000
823.462097	186.700000
823.497009	193.100000
823.531982	189.300000
823.566895	189.800000
823.601807	186.600000
823.636719	188.000000
823.671631	192.800000
823.706604	188.500000
823.741455	193.000000
823.776428	184.700000
823.811340	195.200000
823.846252	197.200000
823.881165	198.800000
823.916138	189.400000
823.950989	199.100000
823.985901	187.600000
824.020813	190.000000
824.055725	188.700000
824.090637	184.700000
824.125610	193.100000
824.160461	191.900000
824.195374	192.300000
824.230225	196.900000
824.265198	182.100000
824.300110	186.900000
824.334961	201.900000
824.369873	181.500000
824.404785	193.000000
824.439636	195.700000
824.474548	181.400000
824.509460	180.500000
824.544312	196.700000
824.579224	192.200000
824.614075	193.400000
824.648987	189.000000
824.683899	189.700000
824.718811	187.800000
824.753662	198.100000
824.788574	195.400000
824.823364	192.400000
824.858276	186.900000
824.893188	196.000000
824.928040	196.400000
824.962952	193.500000
824.997803	195.000000
825.032654	191.700000
825.067566	194.500000
825.102417	188.300000
825.137268	187.300000
825.172119	190.200000
825.206970	188.100000
825.241882	188.700000
825.276733	186.900000
825.311646	186.600000
825.346436	183.800000
825.381348	184.800000
825.416138	189.600000
825.450989	185.200000
825.485901	181.300000
825.520691	180.500000
825.555542	184.700000
825.590454	188.700000
825.625244	181.900000
825.660095	195.300000
825.695007	191.900000
825.729797	187.100000
825.764648	184.000000
825.799438	187.700000
825.834290	189.200000
825.869202	181.600000
825.903992	190.100000
825.938843	185.800000
825.973694	182.200000
826.008484	200.500000
826.043335	183.300000
826.078186	179.300000
826.112976	194.700000
826.147827	191.900000
826.182678	196.700000
826.217468	181.700000
826.252319	192.100000
826.287109	184.100000
826.321899	195.300000
826.356750	186.100000
826.391541	183.400000
826.426392	192.300000
826.461182	187.500000
826.495972	182.100000
826.530823	178.800000
826.565613	188.200000
826.600403	183.000000
826.635254	190.800000
826.670044	178.500000
826.704834	178.900000
826.739685	183.200000
826.774475	188.500000
826.809265	187.000000
826.844055	184.100000
826.878906	191.800000
826.913635	188.100000
826.948425	190.600000
826.983215	187.900000
827.018005	191.300000
827.052856	185.300000
827.087585	189.900000
827.122375	179.500000
827.157227	186.900000
827.191956	198.900000
827.226746	181.000000
827.261536	190.500000
827.296265	180.300000
827.331116	184.200000
827.365906	189.800000
827.400635	183.300000
827.435425	178.800000
827.470215	190.900000
827.504944	185.100000
827.539734	190.900000
827.574463	186.400000
827.609253	193.100000
827.644043	185.800000
827.678772	191.900000
827.713562	184.700000
827.748352	185.600000
827.783081	183.900000
827.817871	186.000000
827.852600	182.800000
827.887329	188.100000
827.922119	177.000000
827.956848	189.200000
827.991638	199.500000
828.026367	187.300000
828.061157	186.600000
828.095886	186.500000
828.130615	200.900000
828.165344	177.600000
828.200073	188.000000
828.234863	185.300000
828.269592	186.300000
828.304321	191.500000
828.339111	186.800000
828.373779	183.200000
828.408569	190.600000
828.443298	191.900000
828.477966	183.300000
828.512756	186.000000
828.547424	180.600000
828.582214	185.500000
828.616943	184.500000
828.651672	185.300000
828.686340	189.800000
828.721130	183.500000
828.755798	185.500000
828.790527	186.700000
828.825256	185.800000
828.859924	186.500000
828.894714	192.600000
828.929443	193.800000
828.964111	183.300000
828.998840	188.900000
829.033569	183.200000
829.068237	183.700000
829.102966	183.700000
829.137634	188.300000
829.172363	187.500000
829.207092	185.700000
829.241821	182.500000
829.276489	178.900000
829.311157	186.900000
829.345825	183.000000
829.380554	190.700000
829.415283	182.100000
829.449951	179.600000
829.484619	194.800000
829.519348	194.000000
829.554016	187.000000
829.588745	186.100000
829.623413	179.400000
829.658081	196.800000
829.692749	180.700000
829.727417	191.900000
829.762146	188.800000
829.796814	182.800000
829.831482	184.700000
829.866150	189.000000
829.900879	184.300000
829.935486	190.300000
829.970154	185.200000
830.004883	198.200000
830.039490	187.200000
830.074219	184.300000
830.108887	188.000000
830.143494	187.100000
830.178223	180.500000
830.212891	187.100000
830.247498	185.900000
830.282166	193.200000
830.316772	193.600000
830.351501	185.300000
830.386169	185.600000
830.420776	184.800000
830.455444	186.600000
830.490112	183.900000
830.524719	178.300000
830.559387	188.500000
830.594055	189.000000
830.628662	186.300000
830.663330	184.700000
830.697998	194.200000
830.732605	185.300000
830.767273	188.100000
830.801941	186.200000
830.836487	194.600000
830.871155	187.700000
830.905762	188.600000
830.940430	179.600000
830.975098	183.200000
831.009644	186.800000
831.044312	194.300000
831.078979	189.000000
831.113525	178.400000
831.148193	185.300000
831.182861	184.900000
831.217407	189.800000
831.252075	202.900000
831.286621	182.900000
831.321289	183.200000
831.355896	185.300000
831.390564	192.600000
831.425110	187.800000
831.459778	192.100000
831.494324	199.200000
831.528931	190.800000
831.563599	189.400000
831.598145	180.800000
831.632751	185.900000
831.667419	186.200000
831.701965	188.600000
831.736572	189.200000
831.771179	180.300000
831.805786	183.400000
831.840393	193.700000
831.874939	178.800000
831.909546	191.400000
831.944153	178.100000
831.978760	185.700000
832.013306	181.800000
832.047913	193.300000
832.082458	195.000000
832.117065	183.900000
832.151672	196.400000
832.186218	187.700000
832.220825	189.400000
832.255432	178.500000
832.289978	183.200000
832.324585	188.400000
832.359192	188.900000
832.393677	184.100000
832.428284	187.000000
832.462830	184.800000
832.497437	184.300000
832.531982	189.900000
832.566589	183.800000
832.601135	187.800000
832.635681	178.300000
832.670227	186.200000
832.704773	192.600000
832.739380	188.100000
832.773926	187.500000
832.808472	183.200000
832.843079	186.500000
832.877563	188.700000
832.912170	183.800000
832.946716	178.700000
832.981201	192.800000
833.015808	188.000000
833.050293	185.200000
833.084839	182.200000
833.119446	183.700000
833.153992	190.500000
833.188477	186.200000
833.223022	182.000000
833.257568	187.300000
833.292114	193.100000
833.326660	198.200000
833.361145	185.500000
833.395691	179.600000
833.430237	186.300000
833.464783	189.800000
833.499329	184.100000
833.533875	181.800000
833.568359	188.400000
833.602905	191.600000
833.637390	190.600000
833.671875	183.900000
833.706421	185.900000
833.740906	183.300000
833.775452	176.100000
833.809998	184.600000
833.844482	193.100000
833.879028	185.300000
833.913513	184.100000
833.947998	188.700000
833.982544	182.300000
834.017090	182.000000
834.051514	175.500000
834.086060	188.900000
834.120544	185.200000
834.155029	187.500000
834.189575	184.800000
834.223999	188.600000
834.258545	186.800000
834.293030	186.800000
834.327515	186.400000
834.362000	183.100000
834.396545	189.400000
834.430969	185.600000
834.465454	189.500000
834.500000	177.100000
834.534424	188.400000
834.568970	176.800000
834.603455	177.300000
834.637878	182.100000
834.672363	186.000000
834.706909	187.000000
834.741333	185.400000
834.775818	179.300000
834.810242	181.900000
834.844727	186.700000
834.879211	184.700000
834.913635	187.000000
834.948181	188.000000
834.982666	187.000000
835.017090	184.100000
835.051575	189.000000
835.086060	184.400000
835.120483	189.200000
835.154907	190.500000
835.189331	185.500000
835.223816	189.100000
835.258301	181.400000
835.292786	182.700000
835.327209	191.100000
835.361694	183.100000
835.396057	184.800000
835.430542	188.900000
835.465027	187.200000
835.499390	182.200000
835.533875	206.600000
835.568359	183.300000
835.602722	179.000000
835.637207	187.800000
835.671692	181.400000
835.706055	204.000000
835.740540	188.100000
835.774902	188.400000
835.809387	187.100000
835.843811	180.200000
835.878235	193.300000
835.912659	181.500000
835.947083	183.400000
835.981506	185.500000
836.015930	179.700000
836.050354	191.200000
836.084778	193.500000
836.119202	190.800000
836.153625	199.100000
836.187988	181.600000
836.222473	182.600000
836.256897	187.200000
836.291260	185.500000
836.325684	187.300000
836.360046	183.700000
836.394470	185.000000
836.428894	191.800000
836.463318	183.600000
836.497681	190.700000
836.532104	193.100000
836.566467	188.100000
836.600891	185.400000
836.635315	191.600000
836.669678	188.100000
836.704102	191.600000
836.738525	186.600000
836.772888	178.000000
836.807251	182.500000
836.841675	187.200000
836.876038	181.400000
836.910461	182.000000
836.944763	189.100000
836.979187	182.700000
837.013611	191.900000
837.047974	180.600000
837.082336	197.800000
837.116699	189.400000
837.151062	186.600000
837.185486	181.000000
837.219849	185.600000
837.254211	190.000000
837.288574	186.400000
837.322937	182.000000
837.357300	174.800000
837.391663	199.500000
837.426086	192.400000
837.460388	188.300000
837.494751	191.400000
837.529114	184.100000
837.563477	191.700000
837.597839	188.000000
837.632141	185.600000
837.666565	183.200000
837.700928	188.700000
837.735229	189.000000
837.769592	188.700000
837.803955	191.100000
837.838257	184.800000
837.872620	183.200000
837.906982	193.000000
837.941284	185.300000
837.975647	187.900000
838.010010	193.100000
838.044312	183.600000
838.078674	183.300000
838.112976	186.500000
838.147339	190.700000
838.181702	185.500000
838.216003	197.000000
838.250366	187.600000
838.284668	188.500000
838.318970	179.200000
838.353333	186.800000
838.387634	185.200000
838.421936	187.100000
838.456299	188.200000
838.490601	193.800000
838.524902	189.900000
838.559265	191.700000
838.593567	189.700000
838.627869	182.100000
838.662170	189.200000
838.696472	179.500000
838.730774	183.500000
838.765137	191.800000
838.799377	173.400000
838.833740	188.200000
838.868042	192.600000
838.902283	178.300000
838.936646	193.700000
838.970947	189.100000
839.005188	193.200000
839.039551	180.000000
839.073792	194.500000
839.108093	184.000000
839.142395	197.100000
839.176697	180.300000
839.210937	187.700000
839.245300	196.400000
839.279541	180.600000
839.313843	184.500000
839.348145	190.200000
839.382385	191.100000
839.416687	191.200000
839.450989	189.100000
839.485229	187.000000
839.519531	182.000000
839.553833	191.500000
839.588013	185.200000
839.622314	186.900000
839.656555	188.600000
839.690857	186.500000
839.725159	180.100000
839.759460	184.700000
839.793640	185.200000
839.827942	185.400000
839.862183	181.700000
839.896423	187.400000
839.930725	196.000000
839.964966	195.000000
839.999207	192.900000
840.033508	194.000000
840.067688	184.000000
840.101990	194.900000
840.136230	186.600000
840.170471	195.200000
840.204712	183.000000
840.238953	182.600000
840.273193	188.300000
840.307434	190.900000
840.341736	182.400000
840.375916	180.600000
840.410217	184.200000
840.444397	191.900000
840.478638	190.900000
840.512878	193.800000
840.547119	188.900000
840.581360	190.200000
840.615601	196.400000
840.649780	196.500000
840.684021	187.400000
840.718262	194.600000
840.752441	192.900000
840.786682	188.900000
840.820862	189.100000
840.855103	194.400000
840.889343	186.800000
840.923584	192.700000
840.957764	189.000000
840.992004	188.900000
841.026184	200.600000
841.060425	187.000000
841.094666	184.000000
841.128845	190.100000
841.163025	189.700000
841.197266	190.300000
841.231445	188.100000
841.265686	188.000000
841.299866	184.300000
841.334045	195.100000
841.368286	185.900000
841.402405	194.600000
841.436646	190.800000
841.470825	185.100000
841.505005	186.900000
841.539185	182.200000
841.573425	183.500000
841.607544	186.400000
841.641785	186.500000
841.675964	181.900000
841.710144	187.800000
841.744324	184.200000
841.778503	185.400000
841.812683	182.800000
841.846863	195.800000
841.881042	193.300000
841.915222	183.100000
841.949402	201.400000
841.983521	178.500000
842.017700	186.800000
842.051880	189.400000
842.086060	188.800000
842.120239	187.700000
842.154419	184.000000
842.188538	187.700000
842.222717	184.400000
842.256897	197.000000
842.291016	185.700000
842.325195	189.500000
842.359375	198.700000
842.393494	194.600000
842.427673	188.900000
842.461853	190.600000
842.495911	196.600000
842.530090	189.500000
842.564209	186.200000
842.598389	189.400000
842.632568	189.500000
842.666626	192.200000
842.700806	184.300000
842.734985	183.900000
842.769043	191.000000
842.803223	187.200000
842.837402	186.100000
842.871460	183.900000
842.905640	197.700000
842.939697	183.000000
842.973877	189.000000
843.007996	192.700000
843.042175	195.600000
843.076233	184.200000
843.110413	187.800000
843.144470	196.100000
843.178589	190.900000
843.212769	183.100000
843.246826	192.000000
843.280945	184.400000
843.315125	184.400000
843.349182	183.700000
843.383301	194.300000
843.417419	199.100000
843.451538	188.800000
843.485657	185.800000
843.519714	186.700000
843.553833	187.700000
843.587952	184.800000
843.622070	183.300000
843.656128	191.700000
843.690247	186.300000
843.724304	186.200000
843.758423	189.900000
843.792542	187.400000
843.826599	187.900000
843.860718	186.400000
843.894836	180.700000
843.928894	187.100000
843.963013	189.800000
843.997070	185.600000
844.031128	181.600000
844.065247	192.900000
844.099304	191.900000
844.133362	188.200000
844.167480	191.700000
844.201599	193.400000
844.235596	190.900000
844.269714	189.700000
844.303711	189.600000
844.337830	180.100000
844.371948	191.900000
844.405945	188.700000
844.440063	182.800000
844.474121	202.600000
844.508118	186.500000
844.542236	186.100000
844.576294	187.900000
844.610352	182.800000
844.644409	187.100000
844.678406	177.900000
844.712524	193.300000
844.746582	193.700000
844.780640	187.400000
844.814636	187.300000
844.848755	199.500000
844.882751	184.600000
844.916809	191.600000
844.950867	188.800000
844.984863	195.200000
845.018921	187.300000
845.052979	183.600000
845.086975	187.700000
845.121033	181.200000
845.155090	182.700000
845.189087	194.800000
845.223145	184.900000
845.257141	188.600000
845.291199	190.300000
845.325256	195.300000
845.359253	188.800000
845.393250	198.600000
845.427307	187.600000
845.461304	188.900000
845.495361	187.000000
845.529358	198.000000
845.563354	185.100000
845.597412	183.800000
845.631409	196.300000
845.665405	194.200000
845.699463	193.800000
845.733459	185.800000
845.767456	195.700000
845.801453	186.700000
845.835449	194.900000
845.869446	191.900000
845.903503	193.100000
845.937439	183.900000
845.971497	195.600000
846.005493	180.700000
846.039429	193.100000
846.073486	197.000000
846.107483	186.700000
846.141418	187.200000
846.175476	189.100000
846.209473	194.400000
846.243408	185.400000
846.277405	188.600000
846.311401	183.800000
846.345337	187.600000
846.379395	192.800000
846.413330	185.200000
846.447327	195.600000
846.481323	183.600000
846.515259	186.100000
846.549255	187.500000
846.583252	190.300000
846.617187	181.300000
846.651184	190.000000
846.685120	186.800000
846.719055	197.000000
846.753052	192.100000
846.786987	190.700000
846.820984	181.500000
846.854980	196.000000
846.888916	183.900000
846.922852	190.300000
846.956848	195.700000
846.990723	183.200000
847.024719	189.100000
847.058716	186.100000
847.092590	194.000000
847.126587	188.100000
847.160522	184.600000
847.194458	192.300000
847.228455	184.200000
847.262390	182.700000
847.296265	185.100000
847.330261	194.900000
847.364136	185.700000
847.398132	185.700000
847.432068	188.800000
847.466003	187.500000
847.499939	186.900000
847.533875	189.900000
847.567749	188.100000
847.601746	186.800000
847.635681	191.800000
847.669556	180.200000
847.703491	194.500000
847.737427	202.400000
847.771301	184.300000
847.805237	189.700000
847.839233	189.500000
847.873108	187.900000
847.907043	186.400000
847.940918	195.400000
847.974854	189.100000
848.008789	191.800000
848.042664	187.900000
848.076538	191.400000
848.110474	188.200000
848.144348	189.500000
848.178284	181.900000
848.212219	189.000000
848.246094	185.000000
848.279968	188.700000
848.313904	190.200000
848.347778	187.800000
848.381653	186.100000
848.415588	184.600000
848.449463	186.400000
848.483337	190.400000
848.517212	193.200000
848.551086	188.200000
848.585022	182.700000
848.618835	195.800000
848.652771	184.900000
848.686646	184.100000
848.720520	196.300000
848.754395	187.500000
848.788330	193.000000
848.822144	191.100000
848.856018	186.400000
848.889954	198.600000
848.923767	183.900000
848.957642	186.300000
848.991577	191.300000
849.025391	186.500000
849.059265	187.200000
849.093079	185.900000
849.126953	183.800000
849.160828	194.200000
849.194641	190.200000
849.228577	186.700000
849.262451	188.800000
849.296265	188.900000
849.330139	184.300000
849.364014	189.700000
849.397827	191.300000
849.431702	189.900000
849.465515	192.900000
849.499329	179.800000
849.533203	183.900000
849.567078	178.300000
849.600891	192.200000
849.634766	187.800000
849.668518	192.300000
849.702393	187.600000
849.736267	180.500000
849.770020	200.300000
849.803894	192.100000
849.837769	188.500000
849.871521	188.400000
849.905396	193.100000
849.939270	183.200000
849.973022	186.300000
850.006897	191.600000
850.040710	190.600000
850.074524	192.000000
850.108337	186.700000
850.142151	192.100000
850.175964	194.200000
850.209778	187.900000
850.243530	176.000000
850.277405	192.700000
850.311218	189.000000
850.344971	184.900000
850.378845	196.700000
850.412659	185.100000
850.446411	189.300000
850.480225	188.100000
850.514038	195.000000
850.547791	191.500000
850.581665	188.100000
850.615417	186.000000
850.649231	189.000000
850.683044	189.300000
850.716858	187.700000
850.750610	189.200000
850.784424	191.900000
850.818176	185.700000
850.851929	186.400000
850.885742	184.900000
850.919495	188.000000
850.953308	196.200000
850.987122	194.400000
851.020874	183.000000
851.054626	180.700000
851.088440	193.100000
851.122192	192.100000
851.156006	190.400000
851.189697	187.400000
851.223511	183.300000
851.257263	192.500000
851.291077	192.600000
851.324829	187.600000
851.358582	185.600000
851.392334	187.400000
851.426086	185.500000
851.459900	196.700000
851.493591	188.600000
851.527344	188.300000
851.561157	187.500000
851.594849	190.800000
851.628662	188.500000
851.662415	195.200000
851.696106	190.400000
851.729858	192.300000
851.763611	182.000000
851.797363	190.000000
851.831116	183.700000
851.864868	189.900000
851.898560	192.100000
851.932312	186.400000
851.966064	189.200000
851.999817	187.300000
852.033569	187.300000
852.067261	191.100000
852.101013	184.400000
852.134766	188.200000
852.168457	178.600000
852.202209	193.200000
852.235901	184.600000
852.269592	191.100000
852.303345	197.600000
852.337036	193.000000
852.370789	188.400000
852.404541	193.600000
852.438171	185.100000
852.471924	188.000000
852.505676	181.000000
852.539307	191.300000
852.573059	185.000000
852.606812	186.800000
852.640442	186.300000
852.674194	195.100000
852.707886	198.500000
852.741577	196.000000
852.775269	183.900000
852.809021	189.700000
852.842651	191.200000
852.876404	193.600000
852.910034	189.400000
852.943787	194.000000
852.977478	191.500000
853.011108	184.900000
853.044861	185.900000
853.078552	195.200000
853.112183	191.200000
853.145874	190.700000
853.179626	180.500000
853.213257	189.000000
853.246948	184.200000
853.280640	196.900000
853.314270	187.500000
853.347961	196.200000
853.381653	191.800000
853.415283	193.400000
853.448975	184.700000
853.482605	188.800000
853.516296	187.300000
853.549988	183.600000
853.583618	189.900000
853.617310	189.300000
853.651001	190.300000
853.684631	184.300000
853.718323	185.700000
853.751953	196.500000
853.785583	179.300000
853.819275	193.100000
853.852966	190.300000
853.886536	180.400000
853.920227	183.300000
853.953918	193.200000
853.987488	187.700000
854.021179	191.900000
854.054749	197.100000
854.088440	191.600000
854.122131	185.000000
854.155701	191.400000
854.189331	185.500000
854.223022	191.600000
854.256592	194.000000
854.290283	186.300000
854.323914	194.100000
854.357483	189.600000
854.391174	191.300000
854.424744	198.000000
854.458374	190.300000
854.492065	199.700000
854.525696	192.700000
854.559265	195.700000
854.592896	200.700000
854.626465	190.200000
854.660095	189.700000
854.693787	190.400000
854.727356	187.700000
854.760986	192.700000
854.794617	191.200000
854.828186	187.400000
854.861816	191.400000
854.895447	188.700000
854.929016	191.000000
854.962585	191.300000
854.996155	196.600000
855.029785	191.000000
855.063416	191.000000
855.097046	193.700000
855.130615	184.300000
855.164185	194.800000
855.197754	189.300000
855.231384	190.700000
855.264954	187.900000
855.298523	192.500000
855.332153	189.100000
855.365723	195.900000
855.399292	185.300000
855.432922	186.800000
855.466492	191.400000
855.500061	184.500000
855.533630	185.400000
855.567200	192.200000
855.600769	194.300000
855.634338	194.100000
855.667969	191.300000
855.701477	184.400000
855.735046	185.500000
855.768616	181.300000
855.802185	191.000000
855.835754	203.500000
855.869324	181.700000
855.902893	189.000000
855.936401	194.700000
855.969971	191.000000
856.003540	181.900000
856.037109	192.400000
856.070618	188.400000
856.104187	183.400000
856.137695	186.900000
856.171265	179.100000
856.204834	188.500000
856.238403	193.900000
856.271912	184.300000
856.305481	190.700000
856.338989	183.100000
856.372559	192.100000
856.406128	190.600000
856.439636	194.400000
856.473145	186.700000
856.506653	195.600000
856.540222	189.000000
856.573792	194.400000
856.607300	191.700000
856.640808	183.100000
856.674377	189.200000
856.707825	218.300000
856.741394	193.200000
856.774902	184.900000
856.808472	179.600000
856.841980	192.700000
856.875488	196.200000
856.908936	182.300000
856.942505	187.200000
856.976013	188.300000
857.009521	183.200000
857.043030	188.700000
857.076477	187.200000
857.110046	193.000000
857.143555	189.900000
857.177063	193.000000
857.210571	186.100000
857.244080	181.800000
857.277527	193.200000
857.311035	188.000000
857.344543	193.100000
857.378052	187.400000
857.411499	193.800000
857.445068	196.900000
857.478516	188.800000
857.512024	183.000000
857.545532	188.100000
857.578979	190.800000
857.612427	190.000000
857.645874	185.500000
857.679382	191.200000
857.712891	192.800000
857.746399	188.700000
857.779846	194.100000
857.813354	194.600000
857.846741	188.300000
857.880249	185.600000
857.913757	191.100000
857.947266	190.500000
857.980652	192.400000
858.014160	187.300000
858.047546	186.400000
858.081055	187.500000
858.114563	198.900000
858.147949	183.800000
858.181458	192.600000
858.214844	187.400000
858.248352	182.000000
858.281799	193.100000
858.315308	200.800000
858.348694	192.400000
858.382141	197.700000
858.415588	191.700000
858.449036	192.900000
858.482483	191.000000
858.515930	185.800000
858.549377	189.900000
858.582825	195.800000
858.616211	191.000000
858.649658	191.600000
858.683105	183.800000
858.716553	186.300000
858.750000	183.800000
858.783386	187.000000
858.816833	180.800000
858.850281	190.900000
858.883728	192.700000
858.917114	188.000000
858.950562	197.700000
858.983948	197.000000
859.017395	194.900000
859.050781	187.400000
859.084167	184.500000
859.117615	182.300000
859.151062	193.300000
859.184448	186.100000
859.217834	187.500000
859.251282	186.700000
859.284668	184.700000
859.318054	179.900000
859.351440	187.400000
859.384888	198.100000
859.418274	180.400000
859.451721	181.100000
859.485046	192.600000
859.518494	191.600000
859.551819	185.900000
859.585266	192.100000
859.618652	192.500000
859.652039	183.700000
859.685425	183.400000
859.718811	183.200000
859.752197	179.200000
859.785583	195.500000
859.819031	195.500000
859.852356	193.400000
859.885742	187.200000
859.919067	188.100000
859.952454	186.100000
859.985901	193.700000
860.019287	186.200000
860.052612	0.000000
860.085999	0.000000
860.119324	0.000000
860.152710	0.000000
860.186096	0.000000
860.219421	0.000000
860.252808	0.000000
860.286133	0.000000
860.319519	0.000000
860.352905	0.000000
860.386292	0.000000
860.419617	0.000000
860.452942	0.000000
860.486267	0.000000
860.519653	0.000000
860.553040	0.000000
860.586365	0.000000
860.619690	0.000000
860.653076	0.000000
860.686340	0.000000
860.719727	0.000000
860.753113	0.000000
860.786377	0.000000
860.819763	0.000000
860.853027	0.000000
860.886414	0.000000
860.919739	0.000000
860.953125	0.000000
860.986389	0.000000
861.019714	0.000000
861.053040	0.000000
861.086365	0.000000
861.119690	0.000000
861.153076	0.000000
861.186340	0.000000
861.219666	0.000000
861.252930	0.000000
861.286316	0.000000
861.319641	0.000000
861.352905	0.000000
861.386230	0.000000
861.419495	0.000000
861.452820	0.000000
861.486145	0.000000
861.519470	0.000000
861.552734	0.000000
861.586060	0.000000
861.619324	0.000000
861.652649	0.000000
861.685974	0.000000
861.719238	0.000000
861.752563	0.000000
861.785828	0.000000
861.819092	0.000000
861.852417	0.000000
861.885742	0.000000
861.918945	0.000000
861.952271	0.000000
861.985535	0.000000
862.018799	0.000000
862.052124	0.000000
862.085449	0.000000
862.118652	0.000000
862.151978	0.000000
862.185181	0.000000
862.218506	0.000000
862.251770	0.000000
862.285034	0.000000
862.318298	0.000000
862.351562	0.000000
862.384827	0.000000
862.418091	0.000000
862.451355	0.000000
862.484619	0.000000
862.517883	0.000000
862.551086	0.000000
862.584351	0.000000
862.617676	0.000000
862.650940	0.000000
862.684143	0.000000
862.717407	0.000000
862.750610	0.000000
862.783875	0.000000
862.817139	0.000000
862.850342	0.000000
862.883606	0.000000
862.916870	0.000000
862.950073	0.000000
862.983337	0.000000
863.016602	0.000000
863.049805	0.000000
863.083069	0.000000
863.116211	0.000000
863.149475	0.000000
863.182739	0.000000
863.216003	0.000000
863.249146	0.000000
863.282410	0.000000
863.315613	0.000000
863.348816	0.000000
863.382080	0.000000
863.415222	0.000000
863.448486	0.000000
863.481689	0.000000
863.514893	0.000000
863.548157	0.000000
863.581360	0.000000
863.614502	0.000000
863.647766	0.000000
863.680908	0.000000
863.714172	0.000000
863.747375	0.000000
863.780579	0.000000
863.813721	0.000000
863.846985	0.000000
863.880127	0.000000
863.913330	0.000000
863.946533	0.000000
863.979675	0.000000
864.012939	0.000000
