Model Number: SPM-001-M   
Serial Number: 10090201
Firmware Version: 004.17.6
Exposure Time: 500000.000000us
Data Taken on: 03-03-2021 10:42:48.649
Wavelength	Amplitude
733.770752	0.000000
733.808716	0.000000
733.846619	0.000000
733.884583	0.000000
733.922546	0.000000
733.960449	0.000000
733.998413	0.000000
734.036377	0.000000
734.074219	0.000000
734.112183	0.000000
734.150085	0.000000
734.188049	0.000000
734.226013	0.000000
734.263916	0.000000
734.301819	0.000000
734.339783	0.000000
734.377686	0.000000
734.415588	0.000000
734.453552	0.000000
734.491455	0.000000
734.529419	0.000000
734.567322	0.000000
734.605225	0.000000
734.643127	0.000000
734.681091	0.000000
734.718994	0.000000
734.756897	0.000000
734.794800	0.000000
734.832703	0.000000
734.870667	0.000000
734.908508	0.000000
734.946472	0.000000
734.984375	0.000000
735.022278	0.000000
735.060181	0.000000
735.098083	0.000000
735.135986	0.000000
735.173889	0.000000
735.211792	0.000000
735.249695	0.000000
735.287598	0.000000
735.325439	0.000000
735.363403	0.000000
735.401306	0.000000
735.439148	0.000000
735.477051	0.000000
735.515015	0.000000
735.552856	0.000000
735.590759	0.000000
735.628662	0.000000
735.666504	0.000000
735.704407	0.000000
735.742310	0.000000
735.780212	0.000000
735.818115	0.000000
735.856018	0.000000
735.893860	0.000000
735.931763	0.000000
735.969604	0.000000
736.007507	0.000000
736.045410	0.000000
736.083252	0.000000
736.121094	0.000000
736.158997	0.000000
736.196838	0.000000
736.234741	0.000000
736.272644	0.000000
736.310486	0.000000
736.348389	0.000000
736.386230	0.000000
736.424072	0.000000
736.461975	0.000000
736.499878	0.000000
736.537720	0.000000
736.575562	0.000000
736.613403	0.000000
736.651306	0.000000
736.689148	0.000000
736.726990	0.000000
736.764893	0.000000
736.802734	0.000000
736.840576	0.000000
736.878418	0.000000
736.916321	0.000000
736.954102	0.000000
736.992004	0.000000
737.029846	0.000000
737.067688	0.000000
737.105530	0.000000
737.143372	0.000000
737.181213	0.000000
737.219116	0.000000
737.256897	0.000000
737.294739	0.000000
737.332642	0.000000
737.370422	0.000000
737.408325	0.000000
737.446167	0.000000
737.483948	0.000000
737.521790	0.000000
737.559692	0.000000
737.597473	0.000000
737.635315	0.000000
737.673157	0.000000
737.710999	0.000000
737.748840	0.000000
737.786621	0.000000
737.824463	0.000000
737.862305	0.000000
737.900085	0.000000
737.937927	0.000000
737.975769	0.000000
738.013550	0.000000
738.051392	0.000000
738.089233	0.000000
738.127014	0.000000
738.164856	0.000000
738.202698	0.000000
738.240479	0.000000
738.278320	0.000000
738.316162	0.000000
738.353943	0.000000
738.391785	0.000000
738.429565	0.000000
738.467407	0.000000
738.505188	0.000000
738.542969	0.000000
738.580811	0.000000
738.618652	0.000000
738.656372	0.000000
738.694214	0.000000
738.732056	0.000000
738.769836	0.000000
738.807617	0.000000
738.845459	0.000000
738.883240	0.000000
738.921021	0.000000
738.958862	0.000000
738.996582	0.000000
739.034424	0.000000
739.072205	0.000000
739.109985	0.000000
739.147827	0.000000
739.185547	0.000000
739.223389	0.000000
739.261169	0.000000
739.298889	0.000000
739.336731	0.000000
739.374512	0.000000
739.412292	0.000000
739.450073	0.000000
739.487854	0.000000
739.525635	0.000000
739.563416	0.000000
739.601135	0.000000
739.638977	0.000000
739.676758	0.000000
739.714478	0.000000
739.752258	0.000000
739.790100	0.000000
739.827820	0.000000
739.865601	0.000000
739.903381	0.000000
739.941101	0.000000
739.978882	191.000000
740.016724	186.100000
740.054443	191.500000
740.092224	184.700000
740.130005	184.200000
740.167725	186.400000
740.205505	183.000000
740.243225	193.600000
740.281006	188.300000
740.318787	179.800000
740.356506	193.600000
740.394287	191.600000
740.432068	182.400000
740.469727	181.000000
740.507507	191.600000
740.545288	186.400000
740.583008	188.300000
740.620789	187.700000
740.658569	177.900000
740.696228	186.800000
740.734009	191.600000
740.771790	176.600000
740.809509	191.700000
740.847229	183.300000
740.884949	184.600000
740.922729	180.500000
740.960449	185.600000
740.998169	182.700000
741.035950	182.600000
741.073669	188.300000
741.111389	187.000000
741.149170	196.800000
741.186890	196.700000
741.224609	191.400000
741.262329	188.000000
741.300110	197.300000
741.337769	182.300000
741.375549	181.700000
741.413208	188.200000
741.450989	183.500000
741.488708	184.500000
741.526367	185.500000
741.564148	190.200000
741.601868	191.600000
741.639526	186.100000
741.677307	189.500000
741.715027	188.800000
741.752686	182.200000
741.790466	194.400000
741.828186	191.400000
741.865845	182.400000
741.903564	178.800000
741.941345	187.400000
741.979004	182.600000
742.016724	191.100000
742.054382	185.600000
742.092102	191.700000
742.129822	180.000000
742.167480	183.900000
742.205200	184.900000
742.242920	189.500000
742.280640	192.500000
742.318359	183.900000
742.356079	184.400000
742.393738	191.100000
742.431396	185.800000
742.469116	190.400000
742.506775	178.100000
742.544495	190.200000
742.582214	190.200000
742.619873	188.100000
742.657593	194.000000
742.695251	191.000000
742.732971	185.900000
742.770630	189.300000
742.808289	185.900000
742.846008	188.800000
742.883728	189.400000
742.921326	189.000000
742.959045	184.900000
742.996765	187.200000
743.034424	186.700000
743.072083	186.100000
743.109802	186.700000
743.147400	180.900000
743.185120	187.100000
743.222839	188.100000
743.260437	192.700000
743.298157	189.400000
743.335754	179.000000
743.373474	186.900000
743.411133	179.600000
743.448792	187.800000
743.486450	187.500000
743.524170	180.100000
743.561768	185.800000
743.599487	192.500000
743.637146	198.800000
743.674744	185.900000
743.712463	184.500000
743.750122	188.000000
743.787720	188.900000
743.825439	181.900000
743.863037	185.600000
743.900696	187.100000
743.938416	213.100000
743.976013	184.900000
744.013672	197.000000
744.051331	191.800000
744.088928	198.000000
744.126587	191.900000
744.164307	187.300000
744.201904	185.500000
744.239563	191.200000
744.277222	189.200000
744.314819	188.100000
744.352478	194.900000
744.390137	189.100000
744.427734	189.800000
744.465393	186.600000
744.502991	183.000000
744.540649	191.800000
744.578308	188.200000
744.615906	182.800000
744.653564	178.300000
744.691223	191.300000
744.728821	180.200000
744.766418	188.200000
744.804077	188.800000
744.841675	184.800000
744.879333	181.700000
744.916992	186.800000
744.954529	185.000000
744.992187	193.100000
745.029785	187.000000
745.067444	185.200000
745.105042	187.900000
745.142639	190.300000
745.180298	195.300000
745.217896	186.200000
745.255493	185.800000
745.293152	192.100000
745.330750	191.000000
745.368347	195.500000
745.405945	190.200000
745.443604	187.900000
745.481140	191.400000
745.518799	185.800000
745.556396	190.600000
745.593994	190.400000
745.631592	184.500000
745.669189	182.300000
745.706787	188.700000
745.744385	182.900000
745.781982	189.800000
745.819580	184.500000
745.857178	185.900000
745.894775	187.600000
745.932373	188.800000
745.969971	187.300000
746.007568	179.100000
746.045166	197.300000
746.082764	192.900000
746.120300	189.400000
746.157898	191.500000
746.195557	186.700000
746.233093	182.100000
746.270691	190.400000
746.308228	188.600000
746.345825	193.000000
746.383423	192.000000
746.420959	182.700000
746.458557	184.600000
746.496155	185.800000
746.533691	188.100000
746.571289	182.400000
746.608887	187.900000
746.646423	189.400000
746.684021	189.700000
746.721619	184.200000
746.759155	190.300000
746.796753	179.900000
746.834351	181.700000
746.871826	183.800000
746.909424	194.200000
746.946960	189.400000
746.984558	186.800000
747.022156	184.100000
747.059631	195.600000
747.097229	188.500000
747.134827	186.600000
747.172363	194.100000
747.209900	191.100000
747.247498	181.400000
747.285034	193.600000
747.322571	193.700000
747.360168	185.800000
747.397644	178.600000
747.435242	191.200000
747.472778	193.500000
747.510315	185.200000
747.547913	185.300000
747.585388	193.500000
747.622925	185.000000
747.660522	179.300000
747.697998	184.100000
747.735596	186.300000
747.773132	183.100000
747.810669	186.600000
747.848206	190.700000
747.885742	182.200000
747.923279	182.000000
747.960815	188.600000
747.998352	187.700000
748.035889	191.200000
748.073425	191.600000
748.110901	184.600000
748.148437	182.900000
748.185974	187.700000
748.223511	196.400000
748.261047	189.800000
748.298584	189.300000
748.336060	186.000000
748.373596	190.900000
748.411133	207.900000
748.448608	183.400000
748.486145	190.800000
748.523682	196.700000
748.561218	192.900000
748.598755	189.700000
748.636292	191.400000
748.673706	186.000000
748.711243	193.600000
748.748718	191.600000
748.786255	186.800000
748.823792	189.100000
748.861267	182.000000
748.898804	191.200000
748.936340	190.000000
748.973816	187.000000
749.011292	192.600000
749.048828	190.700000
749.086304	190.000000
749.123840	200.000000
749.161316	183.400000
749.198792	196.700000
749.236328	192.900000
749.273743	187.400000
749.311279	185.800000
749.348816	189.600000
749.386230	188.900000
749.423767	176.600000
749.461304	189.300000
749.498718	187.300000
749.536255	194.200000
749.573730	199.500000
749.611206	192.800000
749.648682	186.500000
749.686218	186.900000
749.723633	190.600000
749.761169	185.300000
749.798645	182.400000
749.836060	186.700000
749.873596	183.900000
749.911011	187.100000
749.948547	193.300000
749.986023	188.500000
750.023437	185.600000
750.060913	182.300000
750.098450	181.000000
750.135864	187.600000
750.173340	188.100000
750.210815	192.500000
750.248291	181.700000
750.285767	187.300000
750.323242	192.700000
750.360657	191.400000
750.398132	182.400000
750.435608	191.800000
750.473022	183.800000
750.510498	183.900000
750.547974	183.600000
750.585449	186.300000
750.622925	176.900000
750.660339	197.600000
750.697815	187.600000
750.735291	188.600000
750.772644	187.400000
750.810120	190.200000
750.847595	191.100000
750.885010	183.500000
750.922485	196.200000
750.959961	186.200000
750.997375	194.400000
751.034851	191.400000
751.072266	193.400000
751.109680	179.200000
751.147156	193.200000
751.184570	188.900000
751.221985	188.500000
751.259460	180.000000
751.296875	186.900000
751.334290	186.500000
751.371765	192.400000
751.409180	190.900000
751.446594	193.600000
751.484070	189.800000
751.521423	189.500000
751.558899	187.800000
751.596375	195.800000
751.633728	193.200000
751.671204	199.700000
751.708618	182.800000
751.746033	189.300000
751.783447	182.000000
751.820801	183.400000
751.858276	190.200000
751.895691	187.200000
751.933105	184.900000
751.970520	183.200000
752.007935	185.200000
752.045349	192.200000
752.082764	187.700000
752.120178	186.100000
752.157532	183.800000
752.195007	185.600000
752.232422	190.800000
752.269775	191.800000
752.307190	189.300000
752.344543	184.000000
752.382019	187.600000
752.419434	187.900000
752.456787	189.900000
752.494202	192.700000
752.531616	190.000000
752.568970	193.100000
752.606384	188.600000
752.643799	190.100000
752.681152	195.900000
752.718567	192.300000
752.755981	179.800000
752.793335	190.800000
752.830750	179.400000
752.868164	194.000000
752.905518	182.500000
752.942932	191.500000
752.980225	182.900000
753.017639	192.500000
753.055054	186.400000
753.092407	190.000000
753.129822	193.100000
753.167175	197.500000
753.204529	186.800000
753.241943	184.600000
753.279358	182.500000
753.316650	190.700000
753.354065	190.000000
753.391479	193.400000
753.428772	196.500000
753.466187	190.600000
753.503479	182.600000
753.540894	186.300000
753.578308	183.000000
753.615601	181.900000
753.653015	188.400000
753.690369	185.800000
753.727722	183.100000
753.765076	181.200000
753.802490	183.000000
753.839783	178.400000
753.877136	185.300000
753.914551	201.000000
753.951843	183.300000
753.989258	190.500000
754.026611	190.300000
754.063904	189.100000
754.101257	184.600000
754.138611	181.300000
754.175964	189.000000
754.213318	199.200000
754.250610	181.400000
754.288025	185.700000
754.325378	182.500000
754.362671	193.600000
754.400024	186.800000
754.437378	196.400000
754.474670	197.200000
754.512085	184.000000
754.549438	188.500000
754.586731	185.100000
754.624084	187.300000
754.661438	183.700000
754.698730	195.700000
754.736084	185.300000
754.773376	186.600000
754.810730	188.300000
754.848083	186.100000
754.885315	192.000000
754.922668	178.600000
754.960022	181.900000
754.997314	191.700000
755.034668	186.200000
755.072021	185.600000
755.109253	184.400000
755.146606	192.900000
755.183960	184.600000
755.221252	193.100000
755.258545	191.200000
755.295898	192.000000
755.333191	193.000000
755.370544	188.500000
755.407776	186.000000
755.445129	187.100000
755.482422	191.600000
755.519714	182.900000
755.557068	178.900000
755.594360	176.600000
755.631653	189.900000
755.668945	194.000000
755.706299	188.200000
755.743530	197.100000
755.780884	194.000000
755.818176	190.900000
755.855408	192.600000
755.892761	188.800000
755.930054	188.100000
755.967346	188.500000
756.004639	190.900000
756.041870	187.800000
756.079224	191.800000
756.116516	183.500000
756.153748	192.100000
756.191040	195.900000
756.228394	190.000000
756.265625	183.800000
756.302917	189.100000
756.340210	184.800000
756.377441	193.100000
756.414795	194.500000
756.452087	188.700000
756.489319	182.200000
756.526611	191.400000
756.563843	188.300000
756.601135	197.800000
756.638428	195.600000
756.675659	186.300000
756.712952	190.700000
756.750244	192.000000
756.787476	188.800000
756.824768	193.900000
756.862061	186.000000
756.899292	236.000000
756.936584	191.800000
756.973816	199.700000
757.011047	200.100000
757.048340	190.200000
757.085632	189.900000
757.122864	204.100000
757.160156	186.100000
757.197327	191.100000
757.234619	194.000000
757.271912	188.000000
757.309082	193.700000
757.346375	186.900000
757.383667	195.800000
757.420837	191.000000
757.458130	191.200000
757.495422	189.600000
757.532593	191.800000
757.569885	183.900000
757.607117	185.400000
757.644348	190.500000
757.681580	203.800000
757.718811	179.200000
757.756042	191.000000
757.793335	186.900000
757.830505	193.400000
757.867798	186.200000
757.905029	187.400000
757.942200	192.700000
757.979492	188.300000
758.016724	189.200000
758.053894	189.700000
758.091187	208.000000
758.128418	191.300000
758.165588	189.700000
758.202820	203.100000
758.240112	187.800000
758.277283	201.200000
758.314514	191.600000
758.351685	188.200000
758.388916	200.900000
758.426147	200.200000
758.463379	198.700000
758.500610	195.200000
758.537842	192.200000
758.575012	197.800000
758.612244	187.800000
758.649475	205.000000
758.686646	184.700000
758.723877	198.000000
758.761108	200.500000
758.798279	192.600000
758.835510	195.400000
758.872742	200.300000
758.909851	195.200000
758.947083	197.000000
758.984253	194.900000
759.021484	196.900000
759.058716	197.400000
759.095886	197.900000
759.133057	194.000000
759.170288	195.700000
759.207458	191.000000
759.244690	205.100000
759.281860	202.800000
759.319031	193.800000
759.356262	193.100000
759.393433	192.100000
759.430603	192.600000
759.467773	193.500000
759.505005	200.800000
759.542175	199.500000
759.579346	194.300000
759.616516	195.400000
759.653687	199.800000
759.690918	193.000000
759.728027	198.100000
759.765259	197.500000
759.802429	200.600000
759.839539	197.900000
759.876770	203.500000
759.913940	206.600000
759.951111	198.900000
759.988281	198.400000
760.025452	196.100000
760.062561	192.400000
760.099792	208.100000
760.136963	200.700000
760.174072	199.100000
760.211243	191.900000
760.248413	194.800000
760.285583	193.300000
760.322754	209.100000
760.359863	204.800000
760.397034	206.000000
760.434204	198.300000
760.471375	200.800000
760.508545	197.200000
760.545715	198.700000
760.582825	194.900000
760.619995	203.200000
760.657166	192.300000
760.694275	205.300000
760.731445	200.000000
760.768555	202.100000
760.805664	202.700000
760.842834	201.500000
760.879944	204.900000
760.917114	200.600000
760.954285	197.800000
760.991394	192.700000
761.028564	205.700000
761.065674	202.900000
761.102783	196.200000
761.139954	205.500000
761.177124	204.900000
761.214172	206.900000
761.251343	198.800000
761.288452	200.800000
761.325562	203.600000
761.362732	198.300000
761.399841	201.200000
761.436951	203.100000
761.474121	198.400000
761.511169	201.400000
761.548340	206.600000
761.585449	204.100000
761.622559	205.400000
761.659668	201.400000
761.696838	208.800000
761.733887	204.000000
761.771057	201.400000
761.808167	202.100000
761.845276	206.900000
761.882385	215.100000
761.919434	204.300000
761.956604	222.700000
761.993713	200.000000
762.030762	209.200000
762.067871	205.300000
762.105042	203.300000
762.142090	213.000000
762.179199	206.100000
762.216309	209.900000
762.253418	221.000000
762.290527	214.700000
762.327637	211.100000
762.364685	202.000000
762.401794	211.100000
762.438904	210.500000
762.475952	204.300000
762.513062	202.700000
762.550110	202.000000
762.587219	216.800000
762.624329	215.600000
762.661377	210.100000
762.698486	209.900000
762.735596	208.800000
762.772644	203.700000
762.809753	200.800000
762.846863	207.300000
762.883911	213.300000
762.921021	212.000000
762.958069	208.100000
762.995117	215.900000
763.032227	216.700000
763.069336	207.600000
763.106323	204.000000
763.143433	203.000000
763.180481	213.000000
763.217590	212.400000
763.254639	207.000000
763.291687	210.400000
763.328735	218.100000
763.365845	210.700000
763.402893	208.200000
763.439941	211.800000
763.477051	214.500000
763.514038	216.300000
763.551147	210.400000
763.588196	213.600000
763.625244	211.200000
763.662292	219.700000
763.699402	221.700000
763.736389	217.700000
763.773499	224.600000
763.810486	217.400000
763.847534	213.900000
763.884644	218.000000
763.921631	212.000000
763.958679	226.400000
763.995728	216.400000
764.032776	222.600000
764.069824	210.800000
764.106873	221.400000
764.143860	225.500000
764.180969	216.100000
764.218018	223.300000
764.255005	214.700000
764.292053	216.500000
764.329102	227.200000
764.366089	226.500000
764.403137	224.000000
764.440125	214.300000
764.477173	220.000000
764.514221	223.900000
764.551208	221.000000
764.588257	216.100000
764.625305	223.300000
764.662292	230.600000
764.699341	231.200000
764.736389	222.900000
764.773376	237.800000
764.810425	227.600000
764.847473	234.100000
764.884399	228.600000
764.921448	235.600000
764.958435	233.100000
764.995483	224.200000
765.032532	241.300000
765.069458	227.000000
765.106506	227.600000
765.143555	224.800000
765.180481	230.200000
765.217529	237.000000
765.254578	223.300000
765.291504	231.800000
765.328552	230.600000
765.365540	226.800000
765.402527	242.400000
765.439575	229.000000
765.476501	225.500000
765.513550	228.600000
765.550537	231.500000
765.587463	240.200000
765.624512	231.300000
765.661499	222.500000
765.698486	238.400000
765.735474	228.300000
765.772461	232.000000
765.809448	240.300000
765.846436	239.000000
765.883423	242.100000
765.920410	236.900000
765.957397	232.700000
765.994385	236.800000
766.031311	246.600000
766.068359	238.200000
766.105286	237.900000
766.142273	245.800000
766.179260	238.400000
766.216187	233.500000
766.253174	230.800000
766.290161	239.000000
766.327148	240.500000
766.364136	242.500000
766.401123	257.400000
766.438049	235.800000
766.475037	248.900000
766.512024	245.000000
766.548950	257.900000
766.585937	251.000000
766.622864	247.800000
766.659790	244.600000
766.696777	234.500000
766.733704	250.400000
766.770691	239.900000
766.807678	255.100000
766.844604	247.700000
766.881531	247.600000
766.918518	253.200000
766.955444	254.000000
766.992432	246.900000
767.029358	249.200000
767.066284	254.100000
767.103271	250.500000
767.140198	281.700000
767.177124	267.800000
767.214050	256.800000
767.251038	257.700000
767.287964	253.300000
767.324890	247.800000
767.361816	253.900000
767.398743	259.800000
767.435730	252.100000
767.472595	256.300000
767.509583	263.800000
767.546509	249.800000
767.583374	257.700000
767.620361	248.500000
767.657288	256.800000
767.694214	256.400000
767.731140	256.300000
767.768066	255.200000
767.804993	260.300000
767.841919	251.400000
767.878845	259.100000
767.915710	265.900000
767.952698	257.200000
767.989563	260.800000
768.026489	263.500000
768.063416	256.200000
768.100281	255.100000
768.137207	268.600000
768.174133	263.200000
768.211060	264.500000
768.247986	263.700000
768.284912	262.600000
768.321777	263.000000
768.358704	259.100000
768.395630	263.800000
768.432495	258.300000
768.469421	266.900000
768.506348	270.700000
768.543152	274.400000
768.580078	268.900000
768.616943	271.400000
768.653870	271.300000
768.690796	269.900000
768.727661	268.100000
768.764587	269.200000
768.801453	262.800000
768.838318	273.700000
768.875244	272.100000
768.912109	277.300000
768.948975	269.800000
768.985901	271.100000
769.022766	271.600000
769.059631	275.500000
769.096558	268.700000
769.133362	268.900000
769.170288	271.700000
769.207214	271.500000
769.244019	278.200000
769.280945	275.400000
769.317810	283.100000
769.354675	278.200000
769.391541	287.400000
769.428406	281.800000
769.465271	291.300000
769.502136	279.100000
769.539062	284.400000
769.575867	281.100000
769.612732	286.000000
769.649597	287.900000
769.686462	290.300000
769.723328	283.900000
769.760193	284.400000
769.797058	283.800000
769.833923	294.600000
769.870728	288.500000
769.907593	288.700000
769.944519	287.800000
769.981323	294.300000
770.018188	292.200000
770.055054	289.700000
770.091858	288.200000
770.128723	300.500000
770.165588	305.200000
770.202393	290.300000
770.239258	302.800000
770.276062	302.300000
770.312927	298.400000
770.349792	306.800000
770.386597	303.400000
770.423462	309.700000
770.460327	316.900000
770.497131	302.000000
770.533997	297.100000
770.570862	312.400000
770.607605	314.200000
770.644470	309.600000
770.681335	312.600000
770.718140	311.100000
770.754944	303.400000
770.791809	304.900000
770.828613	308.200000
770.865479	309.400000
770.902222	321.300000
770.939087	315.400000
770.975952	305.800000
771.012695	310.400000
771.049561	328.600000
771.086365	316.300000
771.123169	312.500000
771.159973	317.800000
771.196838	315.800000
771.233582	319.000000
771.270447	322.200000
771.307251	323.800000
771.344055	320.400000
771.380859	325.000000
771.417664	322.200000
771.454468	332.200000
771.491272	331.100000
771.528076	330.200000
771.564880	326.300000
771.601685	331.900000
771.638428	324.200000
771.675293	329.200000
771.712097	320.800000
771.748840	338.100000
771.785645	327.900000
771.822449	332.600000
771.859253	334.600000
771.896057	331.000000
771.932861	343.000000
771.969604	330.700000
772.006409	324.000000
772.043213	339.200000
772.079956	335.100000
772.116760	328.600000
772.153503	332.400000
772.190308	344.600000
772.227112	335.000000
772.263855	332.100000
772.300659	333.800000
772.337463	341.600000
772.374207	332.400000
772.411011	330.400000
772.447754	333.200000
772.484497	351.000000
772.521301	341.600000
772.558105	338.400000
772.594849	340.100000
772.631592	346.600000
772.668396	342.800000
772.705139	345.700000
772.741882	344.200000
772.778625	353.500000
772.815430	354.900000
772.852173	351.400000
772.888916	356.600000
772.925720	360.200000
772.962463	361.700000
772.999207	357.400000
773.035950	363.700000
773.072754	360.800000
773.109436	355.100000
773.146240	359.200000
773.182922	356.900000
773.219727	365.800000
773.256470	358.900000
773.293152	349.200000
773.329956	354.600000
773.366699	362.300000
773.403381	349.700000
773.440186	360.100000
773.476929	362.500000
773.513611	357.000000
773.550354	356.900000
773.587158	356.600000
773.623840	350.000000
773.660583	359.400000
773.697327	371.700000
773.734009	361.900000
773.770813	360.400000
773.807495	355.400000
773.844238	360.300000
773.880981	375.200000
773.917664	370.600000
773.954407	376.500000
773.991150	367.300000
774.027832	371.900000
774.064575	366.300000
774.101318	370.700000
774.138000	374.100000
774.174744	370.600000
774.211487	375.400000
774.248108	364.500000
774.284851	364.900000
774.321594	375.300000
774.358276	376.500000
774.395020	383.700000
774.431702	380.500000
774.468384	373.000000
774.505127	369.900000
774.541809	381.700000
774.578491	391.300000
774.615234	390.600000
774.651917	380.900000
774.688599	386.000000
774.725342	392.600000
774.762024	387.000000
774.798706	390.600000
774.835449	393.100000
774.872070	398.400000
774.908813	394.000000
774.945496	390.100000
774.982178	388.500000
775.018860	394.700000
775.055542	393.300000
775.092224	397.000000
775.128967	403.200000
775.165588	403.100000
775.202271	394.100000
775.239014	407.600000
775.275635	407.900000
775.312317	404.700000
775.349060	407.200000
775.385681	410.400000
775.422363	401.600000
775.459045	408.400000
775.495667	408.000000
775.532410	411.600000
775.569092	412.600000
775.605713	413.700000
775.642395	411.600000
775.679016	413.600000
775.715698	416.600000
775.752380	417.200000
775.789001	414.500000
775.825684	419.200000
775.862366	421.800000
775.898987	432.800000
775.935669	422.700000
775.972351	441.600000
776.008972	436.300000
776.045654	434.300000
776.082336	430.700000
776.118958	429.900000
776.155640	430.300000
776.192322	437.800000
776.228882	442.500000
776.265564	441.200000
776.302185	437.600000
776.338867	444.600000
776.375488	435.500000
776.412109	447.000000
776.448792	446.300000
776.485413	457.000000
776.522034	445.500000
776.558716	438.400000
776.595337	442.300000
776.631958	447.000000
776.668579	446.900000
776.705261	456.500000
776.741882	450.200000
776.778503	449.100000
776.815186	444.100000
776.851746	450.500000
776.888367	450.500000
776.924988	461.600000
776.961609	456.100000
776.998291	456.800000
777.034851	449.500000
777.071472	463.900000
777.108154	462.300000
777.144714	470.700000
777.181335	466.300000
777.218018	458.100000
777.254578	468.700000
777.291199	467.800000
777.327759	472.500000
777.364380	475.200000
777.401062	482.000000
777.437622	493.400000
777.474243	482.000000
777.510864	490.500000
777.547424	483.100000
777.584045	488.700000
777.620667	487.300000
777.657227	488.100000
777.693848	494.400000
777.730469	508.500000
777.767029	499.800000
777.803650	505.100000
777.840271	495.900000
777.876831	493.100000
777.913452	501.900000
777.950012	485.200000
777.986633	485.100000
778.023193	487.300000
778.059753	486.700000
778.096375	488.400000
778.132996	503.500000
778.169556	493.800000
778.206116	491.100000
778.242737	484.800000
778.279297	493.300000
778.315857	484.800000
778.352478	494.200000
778.389038	501.500000
778.425598	498.300000
778.462219	507.300000
778.498718	502.600000
778.535339	511.000000
778.571838	515.700000
778.608459	519.400000
778.645020	507.500000
778.681580	514.300000
778.718140	517.500000
778.754761	513.300000
778.791260	518.100000
778.827881	524.900000
778.864441	522.800000
778.900940	528.000000
778.937561	527.700000
778.974121	524.800000
779.010620	510.600000
779.047241	513.100000
779.083801	525.700000
779.120300	521.100000
779.156860	524.100000
779.193359	516.000000
779.229980	515.100000
779.266541	521.900000
779.303040	525.600000
779.339600	521.200000
779.376160	518.800000
779.412659	521.700000
779.449219	517.900000
779.485779	524.700000
779.522278	521.200000
779.558838	523.600000
779.595398	523.400000
779.631897	524.900000
779.668457	516.100000
779.705017	527.900000
779.741516	520.800000
779.778076	517.500000
779.814575	521.900000
779.851074	522.200000
779.887634	521.900000
779.924133	529.200000
779.960693	520.000000
779.997253	532.300000
780.033691	535.900000
780.070251	533.400000
780.106812	544.100000
780.143250	541.700000
780.179810	533.900000
780.216370	531.600000
780.252808	539.100000
780.289368	544.600000
780.325867	544.500000
780.362366	543.900000
780.398865	556.000000
780.435364	546.200000
780.471863	558.200000
780.508423	555.700000
780.544861	557.200000
780.581421	555.700000
780.617920	547.300000
780.654419	540.600000
780.690918	547.300000
780.727417	556.100000
780.763916	552.000000
780.800415	563.100000
780.836914	552.400000
780.873352	560.300000
780.909912	552.000000
780.946411	557.300000
780.982849	570.200000
781.019348	579.000000
781.055786	570.700000
781.092346	571.100000
781.128845	577.100000
781.165283	579.100000
781.201782	585.900000
781.238281	584.600000
781.274719	588.100000
781.311218	582.200000
781.347717	593.300000
781.384155	579.000000
781.420654	583.300000
781.457092	593.500000
781.493591	592.700000
781.530090	583.000000
781.566528	589.100000
781.602966	589.400000
781.639465	582.200000
781.675903	579.900000
781.712402	587.500000
781.748901	594.800000
781.785278	587.900000
781.821777	590.800000
781.858276	590.100000
781.894714	602.800000
781.931152	594.400000
781.967651	608.500000
782.004089	598.400000
782.040527	611.000000
782.076965	609.800000
782.113403	611.000000
782.149902	615.500000
782.186340	607.600000
782.222778	625.200000
782.259277	616.700000
782.295654	610.400000
782.332092	623.400000
782.368591	615.500000
782.404968	614.900000
782.441467	623.200000
782.477905	624.600000
782.514282	619.000000
782.550781	634.200000
782.587219	633.800000
782.623596	645.100000
782.660095	646.900000
782.696472	650.800000
782.732910	652.700000
782.769348	655.000000
782.805786	674.800000
782.842224	673.100000
782.878662	664.500000
782.915039	667.100000
782.951477	666.700000
782.987915	664.800000
783.024292	672.400000
783.060730	675.100000
783.097168	660.400000
783.133545	662.100000
783.169983	655.600000
783.206421	646.500000
783.242798	646.600000
783.279236	640.400000
783.315613	638.400000
783.352051	633.800000
783.388489	630.300000
783.424866	620.800000
783.461304	629.300000
783.497681	635.400000
783.534058	633.300000
783.570496	632.100000
783.606934	625.600000
783.643250	634.700000
783.679687	643.400000
783.716125	635.400000
783.752441	645.400000
783.788879	664.600000
783.825317	673.000000
783.861633	676.100000
783.898071	676.000000
783.934448	690.200000
783.970825	703.200000
784.007263	699.100000
784.043579	695.700000
784.080017	701.200000
784.116394	692.600000
784.152710	693.200000
784.189148	699.200000
784.225525	700.800000
784.261902	695.500000
784.298279	686.000000
784.334656	689.100000
784.371033	676.900000
784.407410	681.700000
784.443787	666.700000
784.480164	652.400000
784.516541	634.900000
784.552856	642.700000
784.589233	635.100000
784.625610	631.600000
784.661987	659.300000
784.698364	648.400000
784.734741	631.300000
784.771057	621.400000
784.807434	604.600000
784.843811	596.700000
784.880127	568.900000
784.916504	570.300000
784.952881	545.100000
784.989197	516.400000
785.025574	499.800000
785.061951	480.700000
785.098267	475.900000
785.134644	456.200000
785.170959	449.400000
785.207275	457.000000
785.243652	471.900000
785.279968	463.200000
785.316345	481.600000
785.352722	499.400000
785.388977	517.300000
785.425354	526.300000
785.461731	537.300000
785.498047	553.400000
785.534363	564.000000
785.570679	587.800000
785.606995	604.000000
785.643372	621.800000
785.679687	627.800000
785.716003	628.800000
785.752380	632.500000
785.788635	640.400000
785.825012	665.000000
785.861328	675.000000
785.897644	669.800000
785.933960	680.700000
785.970337	685.600000
786.006592	693.900000
786.042908	698.000000
786.079285	704.700000
786.115540	713.400000
786.151855	713.900000
786.188171	714.300000
786.224487	712.000000
786.260803	709.900000
786.297119	720.500000
786.333435	715.100000
786.369751	705.100000
786.406006	707.700000
786.442322	690.400000
786.478638	684.300000
786.514954	696.500000
786.551270	686.600000
786.587585	698.100000
786.623840	682.000000
786.660156	681.600000
786.696472	671.100000
786.732727	670.700000
786.769043	675.900000
786.805298	664.300000
786.841614	673.100000
786.877930	680.600000
786.914124	674.400000
786.950439	694.200000
786.986755	703.900000
787.023010	712.700000
787.059326	723.600000
787.095642	726.500000
787.131836	736.100000
787.168152	722.300000
787.204468	730.900000
787.240723	744.000000
787.276978	749.100000
787.313293	744.700000
787.349548	747.000000
787.385803	750.400000
787.422058	738.300000
787.458313	735.700000
787.494629	733.300000
787.530823	731.400000
787.567139	720.900000
787.603455	720.000000
787.639648	703.100000
787.675903	708.200000
787.712219	707.100000
787.748413	707.600000
787.784729	715.100000
787.820984	705.900000
787.857178	701.200000
787.893494	698.500000
787.929749	697.500000
787.965942	702.800000
788.002258	713.200000
788.038452	727.400000
788.074707	720.700000
788.110962	725.000000
788.147217	719.700000
788.183472	730.500000
788.219727	743.100000
788.255920	763.400000
788.292175	771.400000
788.328430	768.500000
788.364624	751.900000
788.400879	745.000000
788.437134	747.800000
788.473328	744.700000
788.509583	744.800000
788.545837	748.900000
788.582031	748.800000
788.618286	741.000000
788.654480	738.900000
788.690735	750.000000
788.726990	767.200000
788.763184	766.200000
788.799377	776.400000
788.835632	764.300000
788.871826	774.700000
788.908081	777.100000
788.944336	771.700000
788.980469	786.700000
789.016724	781.600000
789.052979	788.300000
789.089111	774.800000
789.125366	781.400000
789.161621	760.000000
789.197754	769.300000
789.234009	763.100000
789.270142	758.900000
789.306396	759.000000
789.342590	757.800000
789.378784	735.300000
789.414978	728.600000
789.451233	743.800000
789.487366	743.200000
789.523621	752.200000
789.559814	747.000000
789.595947	738.300000
789.632202	741.600000
789.668335	750.500000
789.704529	769.900000
789.740784	786.400000
789.776917	788.400000
789.813110	780.600000
789.849304	791.700000
789.885498	788.100000
789.921692	799.300000
789.957886	809.000000
789.994019	813.400000
790.030212	812.500000
790.066406	815.400000
790.102539	808.600000
790.138733	812.000000
790.174927	801.000000
790.211060	822.600000
790.247253	815.100000
790.283386	807.800000
790.319580	794.800000
790.355774	778.600000
790.391907	779.500000
790.428101	797.500000
790.464294	796.100000
790.500427	797.900000
790.536621	782.500000
790.572754	766.800000
790.608887	767.900000
790.645081	775.200000
790.681274	790.000000
790.717346	794.200000
790.753540	779.800000
790.789734	755.200000
790.825867	745.900000
790.862000	755.600000
790.898132	768.900000
790.934265	767.300000
790.970459	770.900000
791.006592	774.400000
791.042725	765.900000
791.078918	761.500000
791.114990	753.900000
791.151184	751.400000
791.187317	767.400000
791.223389	760.400000
791.259583	746.800000
791.295715	755.600000
791.331848	760.300000
791.367981	764.500000
791.404114	768.500000
791.440247	771.400000
791.476379	774.100000
791.512451	756.000000
791.548584	760.500000
791.584778	750.500000
791.620850	764.400000
791.656982	772.100000
791.693115	775.600000
791.729187	772.100000
791.765381	765.500000
791.801514	769.000000
791.837585	771.100000
791.873718	777.900000
791.909851	784.500000
791.945923	797.800000
791.982056	768.600000
792.018188	762.500000
792.054260	768.400000
792.090393	766.000000
792.126465	755.300000
792.162598	764.300000
792.198669	750.200000
792.234741	749.100000
792.270874	745.000000
792.307007	730.400000
792.343079	730.100000
792.379150	740.400000
792.415283	731.300000
792.451355	739.600000
792.487488	719.800000
792.523560	719.200000
792.559631	710.400000
792.595764	678.100000
792.631836	649.700000
792.667908	636.400000
792.703979	615.900000
792.740051	625.300000
792.776184	648.300000
792.812256	650.100000
792.848328	656.800000
792.884399	660.800000
792.920471	666.000000
792.956543	663.100000
792.992615	663.100000
793.028748	659.900000
793.064758	664.100000
793.100830	679.100000
793.136963	691.400000
793.172974	697.300000
793.209045	686.400000
793.245178	696.200000
793.281189	679.300000
793.317261	685.300000
793.353271	677.300000
793.389404	691.100000
793.425476	693.100000
793.461487	676.500000
793.497559	676.300000
793.533630	679.700000
793.569641	677.500000
793.605713	679.800000
793.641785	681.800000
793.677795	683.800000
793.713867	677.600000
793.749878	679.200000
793.785950	690.300000
793.822021	695.600000
793.858032	679.800000
793.894104	700.100000
793.930176	687.600000
793.966187	692.000000
794.002258	682.200000
794.038269	689.300000
794.074280	686.800000
794.110352	711.300000
794.146423	690.100000
794.182373	688.500000
794.218445	689.100000
794.254517	681.100000
794.290466	667.200000
794.326538	671.500000
794.362549	673.400000
794.398560	682.400000
794.434631	684.400000
794.470581	668.000000
794.506653	668.600000
794.542664	672.600000
794.578674	674.600000
794.614685	673.500000
794.650757	671.700000
794.686707	671.300000
794.722778	665.400000
794.758789	669.800000
794.794739	675.900000
794.830811	694.500000
794.866821	713.400000
794.902771	708.300000
794.938843	698.300000
794.974792	702.400000
795.010803	700.600000
795.046814	703.800000
795.082825	688.200000
795.118835	703.300000
795.154846	684.200000
795.190796	694.700000
795.226807	673.400000
795.262817	682.100000
795.298767	687.800000
795.334778	692.600000
795.370850	684.300000
795.406799	692.100000
795.442810	677.700000
795.478821	676.400000
795.514709	676.400000
795.550720	696.200000
795.586670	675.200000
795.622681	692.100000
795.658691	693.400000
795.694641	692.000000
795.730652	678.200000
795.766663	685.600000
795.802551	688.100000
795.838562	702.900000
795.874573	689.300000
795.910522	689.800000
795.946472	679.600000
795.982483	682.600000
796.018433	682.800000
796.054382	693.700000
796.090393	684.700000
796.126282	677.400000
796.162292	671.000000
796.198242	672.400000
796.234192	671.500000
796.270203	666.700000
796.306091	670.700000
796.342041	682.300000
796.378052	674.600000
796.413940	672.400000
796.449951	675.300000
796.485901	677.600000
796.521790	672.800000
796.557800	684.400000
796.593689	687.900000
796.629639	675.600000
796.665649	673.700000
796.701599	671.900000
796.737488	668.000000
796.773437	670.100000
796.809387	671.200000
796.845337	673.500000
796.881287	666.900000
796.917175	650.400000
796.953125	654.700000
796.989075	661.700000
797.024963	662.900000
797.060913	656.900000
797.096863	659.600000
797.132751	653.000000
797.168701	638.000000
797.204590	642.300000
797.240540	648.500000
797.276489	658.000000
797.312439	659.900000
797.348328	654.300000
797.384277	646.500000
797.420166	639.500000
797.456055	645.900000
797.492004	641.300000
797.527893	647.900000
797.563843	654.800000
797.599731	645.300000
797.635620	634.100000
797.671570	642.800000
797.707520	645.300000
797.743347	639.100000
797.779297	647.200000
797.815125	642.700000
797.851074	636.900000
797.887024	632.200000
797.922913	624.500000
797.958801	635.000000
797.994690	629.800000
798.030579	633.100000
798.066467	637.800000
798.102356	627.100000
798.138245	621.400000
798.174133	615.800000
798.210083	623.700000
798.245911	631.800000
798.281799	634.800000
798.317749	625.500000
798.353577	624.400000
798.389465	620.800000
798.425293	620.200000
798.461243	617.400000
798.497131	625.800000
798.532959	628.600000
798.568848	641.200000
798.604736	626.400000
798.640564	615.500000
798.676453	618.000000
798.712402	617.700000
798.748230	621.300000
798.784119	617.800000
798.820007	619.700000
798.855835	615.300000
798.891724	604.400000
798.927551	600.300000
798.963379	608.700000
798.999268	605.800000
799.035095	602.500000
799.070984	604.000000
799.106873	594.600000
799.142700	603.100000
799.178528	588.000000
799.214417	588.100000
799.250244	602.900000
799.286133	596.400000
799.321960	598.200000
799.357788	593.000000
799.393677	588.400000
799.429504	582.400000
799.465332	581.200000
799.501221	591.100000
799.537048	592.100000
799.572876	587.900000
799.608704	586.800000
799.644531	596.300000
799.680359	594.900000
799.716248	600.800000
799.752014	608.600000
799.787903	604.100000
799.823730	600.500000
799.859558	588.000000
799.895386	592.400000
799.931213	590.500000
799.967041	581.400000
800.002869	585.000000
800.038696	598.600000
800.074463	583.900000
800.110352	584.200000
800.146179	575.700000
800.181946	584.500000
800.217773	589.800000
800.253540	586.500000
800.289429	583.500000
800.325256	575.700000
800.361023	567.500000
800.396851	571.500000
800.432678	573.900000
800.468445	573.000000
800.504272	574.200000
800.540100	559.700000
800.575867	559.700000
800.611694	565.700000
800.647461	561.500000
800.683289	568.300000
800.719116	569.700000
800.754883	569.600000
800.790649	557.000000
800.826477	551.100000
800.862244	570.900000
800.898071	555.700000
800.933838	556.600000
800.969604	556.000000
801.005432	557.300000
801.041199	563.300000
801.076965	552.600000
801.112793	544.400000
801.148560	537.500000
801.184326	538.300000
801.220154	542.900000
801.255859	536.900000
801.291687	535.600000
801.327454	528.700000
801.363281	532.300000
801.398987	528.400000
801.434814	531.600000
801.470520	542.800000
801.506287	532.800000
801.542114	528.300000
801.577820	530.400000
801.613647	528.500000
801.649414	526.500000
801.685120	530.700000
801.720886	540.500000
801.756714	527.100000
801.792419	519.900000
801.828186	514.300000
801.863892	524.300000
801.899719	514.100000
801.935486	512.400000
801.971252	521.100000
802.006958	515.700000
802.042725	507.900000
802.078430	511.100000
802.114197	505.200000
802.149963	522.800000
802.185669	509.100000
802.221436	513.100000
802.257202	517.000000
802.292908	511.700000
802.328674	516.900000
802.364441	520.700000
802.400146	517.700000
802.435913	518.300000
802.471558	513.800000
802.507324	514.500000
802.543091	502.900000
802.578796	517.200000
802.614502	516.500000
802.650269	525.000000
802.685974	505.800000
802.721741	510.500000
802.757446	513.700000
802.793152	511.700000
802.828918	518.100000
802.864624	513.200000
802.900330	513.100000
802.936035	512.300000
802.971802	509.600000
803.007446	506.000000
803.043213	493.100000
803.078857	504.300000
803.114624	489.500000
803.150330	498.600000
803.185974	495.000000
803.221741	498.600000
803.257446	506.100000
803.293152	506.500000
803.328857	499.000000
803.364563	492.000000
803.400208	483.600000
803.435974	491.700000
803.471680	487.500000
803.507324	484.500000
803.543030	492.400000
803.578735	495.300000
803.614441	486.400000
803.650146	498.700000
803.685791	486.600000
803.721497	492.200000
803.757202	480.400000
803.792847	491.100000
803.828552	479.400000
803.864258	481.200000
803.899902	479.600000
803.935608	464.600000
803.971313	473.200000
804.006958	472.000000
804.042664	470.200000
804.078308	476.700000
804.113953	470.700000
804.149658	479.200000
804.185364	470.000000
804.221008	479.100000
804.256714	467.600000
804.292297	465.300000
804.328003	463.800000
804.363708	459.200000
804.399292	462.100000
804.434998	464.300000
804.470703	457.400000
804.506287	468.800000
804.541992	464.000000
804.577637	466.400000
804.613281	452.400000
804.648926	450.600000
804.684570	455.100000
804.720215	448.500000
804.755920	449.600000
804.791565	447.500000
804.827209	455.700000
804.862854	447.800000
804.898437	444.800000
804.934143	442.300000
804.969788	440.800000
805.005371	446.500000
805.041077	444.600000
805.076721	444.300000
805.112305	434.600000
805.147949	434.000000
805.183655	428.900000
805.219238	438.400000
805.254883	433.900000
805.290466	441.800000
805.326111	435.300000
805.361755	426.900000
805.397400	431.000000
805.432983	433.600000
805.468628	431.300000
805.504211	436.700000
805.539856	434.700000
805.575500	438.100000
805.611084	430.800000
805.646729	416.300000
805.682373	421.300000
805.717957	432.000000
805.753601	434.500000
805.789246	417.000000
805.824768	425.300000
805.860413	430.600000
805.895996	418.600000
805.931641	417.900000
805.967224	426.300000
806.002869	420.000000
806.038452	428.800000
806.074036	427.300000
806.109619	415.600000
806.145264	414.400000
806.180847	416.400000
806.216431	412.800000
806.252014	419.600000
806.287659	419.500000
806.323181	427.400000
806.358826	420.000000
806.394409	400.900000
806.429993	408.600000
806.465576	423.500000
806.501160	412.400000
806.536743	400.100000
806.572327	411.900000
806.607910	408.400000
806.643494	412.200000
806.679077	405.900000
806.714661	406.100000
806.750244	404.900000
806.785828	399.000000
806.821350	401.200000
806.856934	409.100000
806.892517	404.000000
806.928101	400.100000
806.963684	401.500000
806.999268	409.600000
807.034790	392.700000
807.070374	398.900000
807.105896	390.600000
807.141479	386.700000
807.177063	394.400000
807.212585	386.800000
807.248169	387.100000
807.283752	393.600000
807.319275	391.400000
807.354858	392.100000
807.390381	389.200000
807.425903	387.200000
807.461487	383.900000
807.497070	379.300000
807.532593	384.600000
807.568115	378.700000
807.603699	377.200000
807.639221	372.600000
807.674744	378.900000
807.710266	384.000000
807.745850	383.500000
807.781372	377.500000
807.816895	375.900000
807.852417	378.200000
807.888000	374.800000
807.923523	370.900000
807.959045	375.300000
807.994629	365.000000
808.030090	364.700000
808.065613	369.800000
808.101135	373.900000
808.136658	371.000000
808.172241	370.600000
808.207764	369.500000
808.243225	364.700000
808.278809	359.500000
808.314270	367.400000
808.349792	355.200000
808.385315	357.200000
808.420837	360.700000
808.456360	368.800000
808.491882	369.700000
808.527344	363.700000
808.562866	372.200000
808.598389	363.300000
808.633850	359.800000
808.669434	356.500000
808.704895	364.000000
808.740417	369.300000
808.775940	361.800000
808.811462	358.400000
808.846924	356.100000
808.882385	351.000000
808.917847	352.700000
808.953369	354.200000
808.988892	349.500000
809.024353	356.400000
809.059875	357.900000
809.095398	353.000000
809.130798	344.800000
809.166321	347.500000
809.201843	346.500000
809.237305	348.300000
809.272766	355.700000
809.308228	340.700000
809.343750	344.100000
809.379211	345.700000
809.414734	346.100000
809.450134	354.700000
809.485657	337.600000
809.521118	347.300000
809.556580	343.200000
809.592102	340.600000
809.627502	339.400000
809.663025	337.600000
809.698486	335.600000
809.733887	331.500000
809.769409	339.800000
809.804871	327.100000
809.840271	332.800000
809.875793	335.000000
809.911194	339.100000
809.946655	328.800000
809.982178	329.900000
810.017639	335.000000
810.053040	332.800000
810.088501	328.800000
810.123901	328.000000
810.159424	324.700000
810.194885	320.700000
810.230286	328.400000
810.265747	322.800000
810.301208	316.600000
810.336609	322.900000
810.372070	313.400000
810.407532	317.200000
810.442932	321.900000
810.478394	322.400000
810.513794	319.600000
810.549255	318.200000
810.584717	316.000000
810.620117	310.800000
810.655518	316.700000
810.690979	318.800000
810.726379	316.600000
810.761841	308.500000
810.797302	311.200000
810.832642	308.900000
810.868103	319.400000
810.903564	307.900000
810.938904	314.200000
810.974365	303.700000
811.009827	307.400000
811.045166	302.900000
811.080627	295.700000
811.115967	301.700000
811.151428	309.000000
811.186829	301.900000
811.222229	303.600000
811.257629	295.900000
811.293091	302.600000
811.328430	310.500000
811.363892	305.400000
811.399292	307.200000
811.434631	302.100000
811.470093	306.200000
811.505493	298.000000
811.540833	299.100000
811.576294	304.300000
811.611694	297.600000
811.647034	296.300000
811.682434	298.600000
811.717773	299.100000
811.753235	302.200000
811.788635	296.100000
811.823975	295.700000
811.859375	303.700000
811.894775	290.400000
811.930115	292.500000
811.965515	293.100000
812.000916	296.200000
812.036255	290.300000
812.071655	296.700000
812.106995	289.700000
812.142395	289.800000
812.177795	296.100000
812.213196	293.600000
812.248474	296.000000
812.283875	287.200000
812.319214	290.800000
812.354614	292.100000
812.390015	287.700000
812.425293	287.900000
812.460693	286.700000
812.496094	284.500000
812.531433	278.400000
812.566772	281.500000
812.602173	284.600000
812.637451	284.900000
812.672852	280.800000
812.708191	285.100000
812.743530	281.200000
812.778931	270.900000
812.814270	276.700000
812.849609	283.300000
812.884949	278.500000
812.920227	273.900000
812.955627	287.700000
812.990967	280.200000
813.026306	276.200000
813.061646	265.000000
813.096985	263.200000
813.132324	260.900000
813.167664	267.900000
813.203003	271.700000
813.238281	261.000000
813.273682	262.300000
813.308960	260.600000
813.344299	261.800000
813.379639	271.900000
813.414978	262.900000
813.450256	262.700000
813.485596	265.200000
813.520874	259.700000
813.556213	261.300000
813.591614	265.300000
813.626831	257.100000
813.662170	260.400000
813.697510	271.600000
813.732788	255.800000
813.768127	259.600000
813.803467	263.400000
813.838745	257.300000
813.874084	260.300000
813.909363	259.500000
813.944641	260.900000
813.979980	249.100000
814.015320	255.700000
814.050598	253.400000
814.085876	257.800000
814.121155	254.600000
814.156494	251.300000
814.191772	252.600000
814.227051	249.000000
814.262390	252.000000
814.297668	251.500000
814.332947	253.600000
814.368225	246.600000
814.403564	248.600000
814.438782	244.500000
814.474121	247.300000
814.509338	245.700000
814.544617	254.200000
814.579956	245.500000
814.615173	255.000000
814.650513	251.000000
814.685791	242.800000
814.721008	247.000000
814.756348	247.600000
814.791626	242.400000
814.826843	244.400000
814.862122	243.300000
814.897400	241.800000
814.932678	242.400000
814.967957	244.200000
815.003235	244.400000
815.038452	239.800000
815.073730	235.300000
815.108948	249.000000
815.144226	245.200000
815.179504	250.300000
815.214722	234.200000
815.250000	235.600000
815.285278	242.900000
815.320496	236.900000
815.355774	238.000000
815.391052	241.100000
815.426270	236.400000
815.461487	237.500000
815.496765	233.800000
815.531982	229.000000
815.567261	235.000000
815.602539	242.700000
815.637695	237.200000
815.672974	238.700000
815.708191	238.900000
815.743408	240.600000
815.778687	232.700000
815.813904	243.300000
815.849121	225.900000
815.884399	228.000000
815.919556	227.100000
815.954834	228.000000
815.990051	233.400000
816.025269	237.000000
816.060486	228.200000
816.095703	226.500000
816.130920	230.000000
816.166199	227.000000
816.201416	231.400000
816.236572	235.700000
816.271851	227.000000
816.307007	231.600000
816.342224	222.600000
816.377441	227.600000
816.412659	217.800000
816.447876	230.600000
816.483093	225.600000
816.518250	225.700000
816.553467	223.700000
816.588745	227.900000
816.623901	222.300000
816.659119	215.800000
816.694275	223.300000
816.729492	218.100000
816.764709	256.100000
816.799927	215.700000
816.835083	221.100000
816.870300	216.000000
816.905457	220.100000
816.940674	222.600000
816.975830	217.000000
817.010986	213.900000
817.046204	216.500000
817.081421	213.300000
817.116577	213.200000
817.151733	222.500000
817.186951	224.300000
817.222107	217.300000
817.257324	221.200000
817.292419	218.900000
817.327637	210.600000
817.362854	215.400000
817.398010	209.000000
817.433167	213.800000
817.468323	212.800000
817.503479	213.100000
817.538635	224.300000
817.573853	215.500000
817.608948	214.700000
817.644165	210.200000
817.679321	209.900000
817.714478	208.200000
817.749634	214.400000
817.784790	223.200000
817.819946	220.700000
817.855103	201.100000
817.890198	210.600000
817.925415	203.300000
817.960571	212.600000
817.995667	211.600000
818.030823	213.400000
818.066040	206.100000
818.101135	209.200000
818.136292	209.300000
818.171448	203.000000
818.206543	208.500000
818.241699	212.500000
818.276855	207.800000
818.311951	206.400000
818.347107	202.700000
818.382263	211.200000
818.417358	215.800000
818.452515	215.300000
818.487610	215.000000
818.522766	203.900000
818.557922	215.000000
818.593018	210.000000
818.628113	208.300000
818.663269	203.400000
818.698364	208.200000
818.733521	201.700000
818.768677	209.200000
818.803711	202.000000
818.838867	203.800000
818.874023	203.400000
818.909058	201.600000
818.944214	199.600000
818.979370	208.100000
819.014404	205.300000
819.049561	202.200000
819.084595	207.700000
819.119751	198.600000
819.154846	205.500000
819.189941	202.300000
819.225037	197.900000
819.260193	194.700000
819.295227	196.400000
819.330322	192.000000
819.365479	191.900000
819.400513	225.100000
819.435608	190.400000
819.470764	189.500000
819.505798	193.700000
819.540894	195.600000
819.575989	193.800000
819.611084	202.100000
819.646179	203.900000
819.681213	200.000000
819.716309	195.400000
819.751404	194.800000
819.786438	200.500000
819.821533	193.300000
819.856628	197.100000
819.891663	200.300000
819.926758	207.000000
819.961853	201.500000
819.996887	192.300000
820.031982	199.800000
820.067017	195.300000
820.102112	224.700000
820.137207	192.600000
820.172302	209.400000
820.207275	192.300000
820.242371	191.700000
820.277405	191.500000
820.312500	193.000000
820.347534	198.100000
820.382568	200.500000
820.417664	192.500000
820.452759	193.300000
820.487732	191.100000
820.522827	192.300000
820.557861	190.600000
820.592896	192.600000
820.627930	191.600000
820.662964	190.200000
820.698059	196.300000
820.733093	192.200000
820.768127	198.000000
820.803162	191.500000
820.838196	190.700000
820.873230	193.400000
820.908264	193.600000
820.943298	188.300000
820.978333	198.500000
821.013367	192.400000
821.048401	196.100000
821.083435	197.600000
821.118469	185.300000
821.153503	196.900000
821.188477	193.300000
821.223511	185.500000
821.258484	192.300000
821.293579	191.500000
821.328613	185.500000
821.363647	190.700000
821.398621	186.100000
821.433655	187.300000
821.468628	203.300000
821.503662	190.100000
821.538696	195.600000
821.573669	185.900000
821.608704	193.900000
821.643677	188.200000
821.678650	194.700000
821.713684	199.200000
821.748718	188.300000
821.783691	191.400000
821.818726	193.500000
821.853638	193.500000
821.888672	189.700000
821.923706	190.800000
821.958618	189.300000
821.993652	189.700000
822.028687	195.800000
822.063599	197.400000
822.098633	193.100000
822.133667	188.100000
822.168579	189.500000
822.203613	193.000000
822.238586	187.500000
822.273560	193.700000
822.308533	187.300000
822.343567	187.200000
822.378479	189.500000
822.413452	190.300000
822.448425	186.800000
822.483398	194.400000
822.518372	195.600000
822.553345	188.700000
822.588318	197.800000
822.623291	190.100000
822.658203	189.100000
822.693237	191.800000
822.728210	186.100000
822.763123	192.200000
822.798096	184.800000
822.833069	191.000000
822.867981	189.800000
822.902954	192.100000
822.937927	193.100000
822.972900	199.500000
823.007874	182.900000
823.042725	195.800000
823.077698	201.300000
823.112671	187.000000
823.147583	187.600000
823.182556	193.400000
823.217529	193.200000
823.252441	189.100000
823.287415	203.500000
823.322388	193.500000
823.357239	188.700000
823.392212	197.700000
823.427185	195.200000
823.462097	186.800000
823.497009	192.800000
823.531982	188.500000
823.566895	189.600000
823.601807	187.100000
823.636719	189.100000
823.671631	193.800000
823.706604	188.700000
823.741455	192.800000
823.776428	184.100000
823.811340	193.700000
823.846252	196.600000
823.881165	196.700000
823.916138	192.600000
823.950989	199.500000
823.985901	188.400000
824.020813	191.300000
824.055725	189.500000
824.090637	183.200000
824.125610	193.100000
824.160461	191.100000
824.195374	192.400000
824.230225	195.900000
824.265198	184.200000
824.300110	187.200000
824.334961	201.500000
824.369873	180.500000
824.404785	193.400000
824.439636	194.500000
824.474548	183.100000
824.509460	180.700000
824.544312	196.600000
824.579224	191.200000
824.614075	193.300000
824.648987	187.600000
824.683899	191.100000
824.718811	185.500000
824.753662	195.800000
824.788574	195.000000
824.823364	191.200000
824.858276	186.700000
824.893188	194.700000
824.928040	195.000000
824.962952	191.800000
824.997803	194.500000
825.032654	191.200000
825.067566	192.600000
825.102417	186.800000
825.137268	187.100000
825.172119	189.000000
825.206970	185.200000
825.241882	187.700000
825.276733	186.600000
825.311646	187.500000
825.346436	183.400000
825.381348	184.600000
825.416138	190.500000
825.450989	184.100000
825.485901	180.200000
825.520691	179.900000
825.555542	182.600000
825.590454	187.400000
825.625244	182.000000
825.660095	194.200000
825.695007	192.500000
825.729797	187.500000
825.764648	184.100000
825.799438	188.000000
825.834290	189.400000
825.869202	182.000000
825.903992	190.300000
825.938843	184.900000
825.973694	183.400000
826.008484	198.800000
826.043335	182.800000
826.078186	180.000000
826.112976	194.800000
826.147827	193.700000
826.182678	196.300000
826.217468	180.900000
826.252319	193.000000
826.287109	183.900000
826.321899	193.500000
826.356750	186.100000
826.391541	182.900000
826.426392	192.000000
826.461182	186.800000
826.495972	181.200000
826.530823	176.600000
826.565613	187.200000
826.600403	181.700000
826.635254	188.900000
826.670044	178.600000
826.704834	178.200000
826.739685	182.500000
826.774475	189.100000
826.809265	185.900000
826.844055	184.200000
826.878906	191.500000
826.913635	187.300000
826.948425	189.900000
826.983215	186.100000
827.018005	190.300000
827.052856	183.800000
827.087585	189.900000
827.122375	178.800000
827.157227	186.200000
827.191956	198.700000
827.226746	182.100000
827.261536	190.400000
827.296265	180.800000
827.331116	186.500000
827.365906	190.900000
827.400635	183.300000
827.435425	178.300000
827.470215	194.400000
827.504944	185.200000
827.539734	192.300000
827.574463	185.400000
827.609253	193.000000
827.644043	186.300000
827.678772	192.300000
827.713562	183.600000
827.748352	185.800000
827.783081	182.800000
827.817871	187.300000
827.852600	181.900000
827.887329	188.800000
827.922119	176.700000
827.956848	190.400000
827.991638	200.600000
828.026367	189.200000
828.061157	187.600000
828.095886	186.800000
828.130615	200.300000
828.165344	178.100000
828.200073	185.900000
828.234863	182.800000
828.269592	185.200000
828.304321	191.000000
828.339111	186.600000
828.373779	182.200000
828.408569	191.500000
828.443298	190.900000
828.477966	182.800000
828.512756	186.700000
828.547424	180.400000
828.582214	185.500000
828.616943	184.900000
828.651672	183.900000
828.686340	190.700000
828.721130	182.600000
828.755798	186.000000
828.790527	187.000000
828.825256	188.400000
828.859924	187.000000
828.894714	192.300000
828.929443	194.000000
828.964111	184.400000
828.998840	189.500000
829.033569	185.300000
829.068237	185.600000
829.102966	183.700000
829.137634	186.700000
829.172363	188.000000
829.207092	186.000000
829.241821	183.200000
829.276489	178.800000
829.311157	187.500000
829.345825	184.600000
829.380554	192.000000
829.415283	183.100000
829.449951	179.300000
829.484619	193.600000
829.519348	194.000000
829.554016	186.900000
829.588745	186.700000
829.623413	181.200000
829.658081	198.400000
829.692749	180.600000
829.727417	191.700000
829.762146	187.200000
829.796814	182.500000
829.831482	184.600000
829.866150	187.800000
829.900879	183.800000
829.935486	189.600000
829.970154	184.800000
830.004883	198.000000
830.039490	187.500000
830.074219	182.200000
830.108887	187.600000
830.143494	186.300000
830.178223	181.600000
830.212891	185.900000
830.247498	186.700000
830.282166	194.000000
830.316772	191.000000
830.351501	183.400000
830.386169	186.200000
830.420776	184.400000
830.455444	185.600000
830.490112	182.900000
830.524719	176.900000
830.559387	187.600000
830.594055	188.200000
830.628662	184.700000
830.663330	186.300000
830.697998	193.700000
830.732605	186.600000
830.767273	188.700000
830.801941	186.200000
830.836487	195.500000
830.871155	189.300000
830.905762	187.500000
830.940430	179.000000
830.975098	183.500000
831.009644	187.400000
831.044312	195.100000
831.078979	189.400000
831.113525	177.100000
831.148193	187.000000
831.182861	184.200000
831.217407	190.400000
831.252075	203.100000
831.286621	183.600000
831.321289	182.400000
831.355896	187.100000
831.390564	193.100000
831.425110	186.800000
831.459778	193.000000
831.494324	199.700000
831.528931	190.000000
831.563599	192.000000
831.598145	179.200000
831.632751	186.700000
831.667419	184.500000
831.701965	189.400000
831.736572	190.700000
831.771179	180.800000
831.805786	182.800000
831.840393	192.500000
831.874939	179.700000
831.909546	189.800000
831.944153	178.100000
831.978760	185.900000
832.013306	182.100000
832.047913	192.200000
832.082458	194.200000
832.117065	183.600000
832.151672	196.800000
832.186218	186.500000
832.220825	189.300000
832.255432	179.100000
832.289978	182.100000
832.324585	188.000000
832.359192	189.400000
832.393677	185.400000
832.428284	187.700000
832.462830	185.000000
832.497437	185.600000
832.531982	190.300000
832.566589	184.700000
832.601135	188.200000
832.635681	178.400000
832.670227	186.400000
832.704773	193.500000
832.739380	188.600000
832.773926	188.200000
832.808472	181.700000
832.843079	188.300000
832.877563	190.000000
832.912170	183.300000
832.946716	179.200000
832.981201	194.600000
833.015808	188.600000
833.050293	186.400000
833.084839	182.100000
833.119446	184.800000
833.153992	190.800000
833.188477	185.800000
833.223022	181.100000
833.257568	188.100000
833.292114	192.300000
833.326660	199.500000
833.361145	184.400000
833.395691	180.200000
833.430237	186.100000
833.464783	190.700000
833.499329	183.400000
833.533875	182.100000
833.568359	189.500000
833.602905	192.600000
833.637390	192.200000
833.671875	183.100000
833.706421	185.500000
833.740906	182.600000
833.775452	176.600000
833.809998	184.500000
833.844482	192.600000
833.879028	187.300000
833.913513	184.100000
833.947998	188.700000
833.982544	182.600000
834.017090	181.800000
834.051514	175.300000
834.086060	190.300000
834.120544	186.300000
834.155029	189.300000
834.189575	184.500000
834.223999	190.100000
834.258545	186.700000
834.293030	187.800000
834.327515	186.900000
834.362000	182.900000
834.396545	190.300000
834.430969	185.400000
834.465454	191.400000
834.500000	179.500000
834.534424	188.800000
834.568970	177.500000
834.603455	179.400000
834.637878	182.100000
834.672363	189.800000
834.706909	186.400000
834.741333	187.500000
834.775818	178.700000
834.810242	184.100000
834.844727	186.700000
834.879211	184.300000
834.913635	187.500000
834.948181	188.400000
834.982666	187.200000
835.017090	184.800000
835.051575	188.200000
835.086060	185.400000
835.120483	190.500000
835.154907	191.300000
835.189331	186.700000
835.223816	188.800000
835.258301	180.900000
835.292786	181.800000
835.327209	190.600000
835.361694	181.900000
835.396057	184.400000
835.430542	189.600000
835.465027	187.500000
835.499390	182.000000
835.533875	206.800000
835.568359	183.600000
835.602722	178.100000
835.637207	187.900000
835.671692	180.900000
835.706055	203.700000
835.740540	188.000000
835.774902	189.200000
835.809387	186.800000
835.843811	180.400000
835.878235	193.400000
835.912659	180.100000
835.947083	183.600000
835.981506	185.800000
836.015930	179.000000
836.050354	190.700000
836.084778	195.500000
836.119202	190.300000
836.153625	200.500000
836.187988	183.900000
836.222473	183.400000
836.256897	187.000000
836.291260	185.400000
836.325684	187.100000
836.360046	185.600000
836.394470	186.000000
836.428894	193.700000
836.463318	183.100000
836.497681	190.000000
836.532104	193.500000
836.566467	188.400000
836.600891	184.100000
836.635315	190.900000
836.669678	188.000000
836.704102	191.400000
836.738525	188.300000
836.772888	179.200000
836.807251	183.000000
836.841675	189.400000
836.876038	180.700000
836.910461	182.500000
836.944763	189.600000
836.979187	182.800000
837.013611	191.900000
837.047974	180.700000
837.082336	197.900000
837.116699	190.100000
837.151062	185.500000
837.185486	180.400000
837.219849	184.200000
837.254211	190.000000
837.288574	185.900000
837.322937	182.800000
837.357300	174.600000
837.391663	198.600000
837.426086	190.900000
837.460388	186.600000
837.494751	190.600000
837.529114	182.900000
837.563477	191.600000
837.597839	188.300000
837.632141	186.600000
837.666565	183.700000
837.700928	189.600000
837.735229	189.700000
837.769592	188.400000
837.803955	189.400000
837.838257	184.400000
837.872620	181.800000
837.906982	194.200000
837.941284	186.300000
837.975647	187.200000
838.010010	193.000000
838.044312	185.300000
838.078674	183.400000
838.112976	189.100000
838.147339	189.100000
838.181702	186.300000
838.216003	195.700000
838.250366	188.500000
838.284668	189.600000
838.318970	180.100000
838.353333	186.700000
838.387634	185.500000
838.421936	187.000000
838.456299	188.100000
838.490601	195.000000
838.524902	190.600000
838.559265	191.800000
838.593567	190.600000
838.627869	180.400000
838.662170	189.300000
838.696472	179.900000
838.730774	182.100000
838.765137	191.400000
838.799377	174.300000
838.833740	187.700000
838.868042	193.300000
838.902283	178.500000
838.936646	192.300000
838.970947	187.800000
839.005188	192.100000
839.039551	180.200000
839.073792	193.500000
839.108093	184.800000
839.142395	197.200000
839.176697	181.200000
839.210937	187.100000
839.245300	197.900000
839.279541	180.200000
839.313843	184.400000
839.348145	189.600000
839.382385	191.300000
839.416687	192.400000
839.450989	189.700000
839.485229	185.700000
839.519531	181.600000
839.553833	192.300000
839.588013	186.200000
839.622314	187.600000
839.656555	189.700000
839.690857	187.500000
839.725159	180.500000
839.759460	184.800000
839.793640	184.200000
839.827942	185.500000
839.862183	182.800000
839.896423	188.200000
839.930725	199.100000
839.964966	194.100000
839.999207	194.800000
840.033508	194.500000
840.067688	185.200000
840.101990	196.100000
840.136230	186.900000
840.170471	195.000000
840.204712	183.300000
840.238953	184.000000
840.273193	188.000000
840.307434	190.700000
840.341736	183.800000
840.375916	180.400000
840.410217	183.900000
840.444397	192.200000
840.478638	190.400000
840.512878	192.500000
840.547119	189.100000
840.581360	189.700000
840.615601	195.800000
840.649780	197.900000
840.684021	186.800000
840.718262	194.500000
840.752441	194.800000
840.786682	187.800000
840.820862	189.900000
840.855103	196.000000
840.889343	187.100000
840.923584	191.900000
840.957764	189.700000
840.992004	188.900000
841.026184	200.300000
841.060425	185.800000
841.094666	183.600000
841.128845	190.600000
841.163025	188.500000
841.197266	189.300000
841.231445	187.700000
841.265686	188.000000
841.299866	182.700000
841.334045	196.200000
841.368286	186.100000
841.402405	195.200000
841.436646	189.200000
841.470825	185.700000
841.505005	186.400000
841.539185	183.300000
841.573425	184.200000
841.607544	187.600000
841.641785	187.500000
841.675964	182.600000
841.710144	187.200000
841.744324	185.200000
841.778503	185.700000
841.812683	184.300000
841.846863	195.600000
841.881042	193.900000
841.915222	184.300000
841.949402	202.900000
841.983521	178.900000
842.017700	185.500000
842.051880	188.800000
842.086060	189.500000
842.120239	187.200000
842.154419	184.400000
842.188538	187.400000
842.222717	184.800000
842.256897	197.200000
842.291016	186.500000
842.325195	189.100000
842.359375	197.100000
842.393494	193.700000
842.427673	187.700000
842.461853	189.100000
842.495911	194.700000
842.530090	189.000000
842.564209	186.400000
842.598389	189.600000
842.632568	189.100000
842.666626	192.000000
842.700806	184.100000
842.734985	184.300000
842.769043	190.500000
842.803223	186.900000
842.837402	185.100000
842.871460	184.500000
842.905640	195.300000
842.939697	181.700000
842.973877	188.600000
843.007996	193.300000
843.042175	198.500000
843.076233	185.900000
843.110413	189.800000
843.144470	197.300000
843.178589	191.300000
843.212769	185.100000
843.246826	190.700000
843.280945	186.500000
843.315125	185.300000
843.349182	184.700000
843.383301	194.800000
843.417419	201.600000
843.451538	186.400000
843.485657	187.100000
843.519714	185.900000
843.553833	190.300000
843.587952	185.600000
843.622070	183.800000
843.656128	191.300000
843.690247	185.700000
843.724304	185.500000
843.758423	190.300000
843.792542	186.500000
843.826599	188.500000
843.860718	185.500000
843.894836	180.200000
843.928894	188.300000
843.963013	189.000000
843.997070	183.100000
844.031128	183.300000
844.065247	193.100000
844.099304	193.000000
844.133362	188.500000
844.167480	190.900000
844.201599	195.500000
844.235596	189.400000
844.269714	190.000000
844.303711	188.800000
844.337830	179.100000
844.371948	191.000000
844.405945	187.200000
844.440063	183.000000
844.474121	201.700000
844.508118	186.200000
844.542236	187.600000
844.576294	186.300000
844.610352	182.000000
844.644409	187.400000
844.678406	180.000000
844.712524	192.500000
844.746582	194.100000
844.780640	186.800000
844.814636	188.500000
844.848755	199.400000
844.882751	186.300000
844.916809	192.700000
844.950867	191.000000
844.984863	196.600000
845.018921	186.700000
845.052979	185.200000
845.086975	190.000000
845.121033	181.500000
845.155090	185.400000
845.189087	194.500000
845.223145	185.900000
845.257141	188.300000
845.291199	191.600000
845.325256	194.900000
845.359253	190.700000
845.393250	198.000000
845.427307	187.100000
845.461304	189.300000
845.495361	189.800000
845.529358	198.700000
845.563354	186.700000
845.597412	183.400000
845.631409	196.200000
845.665405	195.400000
845.699463	194.400000
845.733459	185.400000
845.767456	195.700000
845.801453	186.400000
845.835449	194.300000
845.869446	192.900000
845.903503	192.700000
845.937439	183.700000
845.971497	194.400000
846.005493	182.500000
846.039429	193.000000
846.073486	197.600000
846.107483	186.900000
846.141418	187.200000
846.175476	188.200000
846.209473	195.300000
846.243408	184.100000
846.277405	190.600000
846.311401	184.600000
846.345337	188.600000
846.379395	192.600000
846.413330	186.000000
846.447327	195.300000
846.481323	184.500000
846.515259	185.000000
846.549255	189.600000
846.583252	190.300000
846.617187	185.000000
846.651184	190.900000
846.685120	187.000000
846.719055	194.400000
846.753052	194.500000
846.786987	191.900000
846.820984	183.100000
846.854980	194.500000
846.888916	184.400000
846.922852	190.600000
846.956848	197.300000
846.990723	183.400000
847.024719	189.100000
847.058716	186.900000
847.092590	195.800000
847.126587	188.800000
847.160522	186.700000
847.194458	193.100000
847.228455	184.400000
847.262390	182.400000
847.296265	187.400000
847.330261	194.900000
847.364136	185.700000
847.398132	185.300000
847.432068	189.500000
847.466003	185.500000
847.499939	187.100000
847.533875	190.400000
847.567749	186.700000
847.601746	186.800000
847.635681	191.800000
847.669556	179.800000
847.703491	194.200000
847.737427	202.700000
847.771301	183.200000
847.805237	190.500000
847.839233	189.100000
847.873108	186.600000
847.907043	187.100000
847.940918	193.900000
847.974854	190.100000
848.008789	194.000000
848.042664	188.600000
848.076538	191.900000
848.110474	188.800000
848.144348	190.300000
848.178284	181.600000
848.212219	189.600000
848.246094	185.900000
848.279968	190.800000
848.313904	190.300000
848.347778	188.500000
848.381653	187.900000
848.415588	185.200000
848.449463	185.600000
848.483337	191.800000
848.517212	193.700000
848.551086	190.200000
848.585022	183.900000
848.618835	199.000000
848.652771	186.100000
848.686646	184.700000
848.720520	195.800000
848.754395	189.200000
848.788330	192.300000
848.822144	193.400000
848.856018	186.600000
848.889954	199.500000
848.923767	184.900000
848.957642	186.700000
848.991577	192.700000
849.025391	186.600000
849.059265	187.200000
849.093079	185.800000
849.126953	182.500000
849.160828	194.700000
849.194641	188.900000
849.228577	188.100000
849.262451	186.300000
849.296265	186.900000
849.330139	183.500000
849.364014	190.100000
849.397827	191.100000
849.431702	188.500000
849.465515	192.000000
849.499329	180.700000
849.533203	184.300000
849.567078	178.800000
849.600891	191.100000
849.634766	187.900000
849.668518	192.500000
849.702393	189.100000
849.736267	180.500000
849.770020	199.600000
849.803894	192.300000
849.837769	188.300000
849.871521	188.900000
849.905396	194.600000
849.939270	184.000000
849.973022	187.000000
850.006897	192.100000
850.040710	191.000000
850.074524	193.000000
850.108337	186.400000
850.142151	192.900000
850.175964	194.500000
850.209778	189.500000
850.243530	175.800000
850.277405	195.800000
850.311218	189.800000
850.344971	186.400000
850.378845	195.700000
850.412659	185.600000
850.446411	189.400000
850.480225	188.600000
850.514038	193.600000
850.547791	191.600000
850.581665	187.900000
850.615417	186.600000
850.649231	190.800000
850.683044	188.700000
850.716858	187.000000
850.750610	190.000000
850.784424	192.100000
850.818176	185.800000
850.851929	186.500000
850.885742	186.200000
850.919495	187.000000
850.953308	195.200000
850.987122	194.000000
851.020874	182.900000
851.054626	181.400000
851.088440	192.200000
851.122192	190.600000
851.156006	188.800000
851.189697	186.200000
851.223511	184.200000
851.257263	191.800000
851.291077	190.600000
851.324829	187.900000
851.358582	186.100000
851.392334	185.800000
851.426086	186.600000
851.459900	195.300000
851.493591	188.600000
851.527344	189.300000
851.561157	187.200000
851.594849	190.700000
851.628662	189.700000
851.662415	196.200000
851.696106	191.500000
851.729858	194.900000
851.763611	182.000000
851.797363	189.100000
851.831116	185.100000
851.864868	192.900000
851.898560	193.200000
851.932312	187.300000
851.966064	189.800000
851.999817	188.300000
852.033569	187.200000
852.067261	193.200000
852.101013	186.100000
852.134766	188.700000
852.168457	177.400000
852.202209	193.900000
852.235901	184.900000
852.269592	192.700000
852.303345	196.900000
852.337036	192.400000
852.370789	188.000000
852.404541	193.000000
852.438171	184.400000
852.471924	188.100000
852.505676	181.400000
852.539307	191.400000
852.573059	185.200000
852.606812	187.200000
852.640442	187.300000
852.674194	194.800000
852.707886	198.000000
852.741577	195.100000
852.775269	184.000000
852.809021	188.900000
852.842651	191.600000
852.876404	194.600000
852.910034	189.300000
852.943787	194.300000
852.977478	191.500000
853.011108	185.000000
853.044861	186.100000
853.078552	194.700000
853.112183	191.100000
853.145874	190.200000
853.179626	180.100000
853.213257	189.900000
853.246948	186.800000
853.280640	197.100000
853.314270	188.400000
853.347961	195.800000
853.381653	191.200000
853.415283	193.300000
853.448975	186.300000
853.482605	190.000000
853.516296	188.000000
853.549988	183.200000
853.583618	189.900000
853.617310	190.100000
853.651001	191.400000
853.684631	184.600000
853.718323	187.200000
853.751953	195.200000
853.785583	180.000000
853.819275	194.000000
853.852966	190.900000
853.886536	179.300000
853.920227	184.600000
853.953918	194.500000
853.987488	187.200000
854.021179	192.300000
854.054749	196.800000
854.088440	191.600000
854.122131	184.400000
854.155701	192.300000
854.189331	185.500000
854.223022	191.500000
854.256592	191.000000
854.290283	185.600000
854.323914	193.100000
854.357483	190.000000
854.391174	190.700000
854.424744	197.400000
854.458374	190.600000
854.492065	198.500000
854.525696	187.800000
854.559265	195.000000
854.592896	199.300000
854.626465	190.000000
854.660095	189.300000
854.693787	190.600000
854.727356	186.200000
854.760986	192.200000
854.794617	189.400000
854.828186	187.400000
854.861816	192.100000
854.895447	188.400000
854.929016	189.300000
854.962585	190.500000
854.996155	196.600000
855.029785	191.800000
855.063416	190.400000
855.097046	192.300000
855.130615	185.100000
855.164185	195.500000
855.197754	188.100000
855.231384	192.100000
855.264954	186.700000
855.298523	193.400000
855.332153	188.700000
855.365723	198.000000
855.399292	184.800000
855.432922	187.700000
855.466492	191.000000
855.500061	186.100000
855.533630	186.100000
855.567200	193.100000
855.600769	193.100000
855.634338	194.800000
855.667969	190.100000
855.701477	185.900000
855.735046	184.800000
855.768616	181.400000
855.802185	191.100000
855.835754	204.600000
855.869324	181.500000
855.902893	189.500000
855.936401	194.200000
855.969971	189.000000
856.003540	183.400000
856.037109	193.900000
856.070618	188.200000
856.104187	183.500000
856.137695	186.900000
856.171265	179.000000
856.204834	188.500000
856.238403	193.600000
856.271912	184.600000
856.305481	191.400000
856.338989	181.900000
856.372559	191.900000
856.406128	190.300000
856.439636	194.200000
856.473145	184.700000
856.506653	195.800000
856.540222	188.500000
856.573792	196.800000
856.607300	193.700000
856.640808	183.300000
856.674377	190.000000
856.707825	218.100000
856.741394	194.500000
856.774902	185.200000
856.808472	180.000000
856.841980	191.600000
856.875488	197.600000
856.908936	180.900000
856.942505	187.400000
856.976013	187.900000
857.009521	184.500000
857.043030	189.000000
857.076477	189.000000
857.110046	192.600000
857.143555	189.700000
857.177063	194.400000
857.210571	187.600000
857.244080	182.800000
857.277527	192.800000
857.311035	188.500000
857.344543	194.100000
857.378052	188.900000
857.411499	194.800000
857.445068	198.700000
857.478516	190.300000
857.512024	183.000000
857.545532	188.000000
857.578979	191.200000
857.612427	188.900000
857.645874	185.600000
857.679382	191.100000
857.712891	192.500000
857.746399	189.700000
857.779846	193.600000
857.813354	194.900000
857.846741	188.000000
857.880249	187.200000
857.913757	191.600000
857.947266	189.900000
857.980652	192.100000
858.014160	186.900000
858.047546	187.400000
858.081055	188.100000
858.114563	197.500000
858.147949	182.700000
858.181458	192.300000
858.214844	188.600000
858.248352	181.000000
858.281799	192.200000
858.315308	200.300000
858.348694	191.700000
858.382141	197.700000
858.415588	192.800000
858.449036	194.100000
858.482483	191.300000
858.515930	186.100000
858.549377	190.100000
858.582825	196.800000
858.616211	191.800000
858.649658	190.700000
858.683105	184.900000
858.716553	186.300000
858.750000	183.500000
858.783386	186.800000
858.816833	181.300000
858.850281	189.800000
858.883728	191.900000
858.917114	189.200000
858.950562	197.100000
858.983948	199.000000
859.017395	193.100000
859.050781	187.600000
859.084167	185.000000
859.117615	183.900000
859.151062	193.300000
859.184448	185.900000
859.217834	187.400000
859.251282	188.400000
859.284668	185.100000
859.318054	181.400000
859.351440	186.800000
859.384888	196.500000
859.418274	180.500000
859.451721	180.400000
859.485046	192.500000
859.518494	191.700000
859.551819	183.400000
859.585266	191.100000
859.618652	191.500000
859.652039	184.000000
859.685425	184.500000
859.718811	182.700000
859.752197	177.100000
859.785583	196.300000
859.819031	196.100000
859.852356	191.600000
859.885742	185.900000
859.919067	188.300000
859.952454	186.400000
859.985901	192.800000
860.019287	187.400000
860.052612	0.000000
860.085999	0.000000
860.119324	0.000000
860.152710	0.000000
860.186096	0.000000
860.219421	0.000000
860.252808	0.000000
860.286133	0.000000
860.319519	0.000000
860.352905	0.000000
860.386292	0.000000
860.419617	0.000000
860.452942	0.000000
860.486267	0.000000
860.519653	0.000000
860.553040	0.000000
860.586365	0.000000
860.619690	0.000000
860.653076	0.000000
860.686340	0.000000
860.719727	0.000000
860.753113	0.000000
860.786377	0.000000
860.819763	0.000000
860.853027	0.000000
860.886414	0.000000
860.919739	0.000000
860.953125	0.000000
860.986389	0.000000
861.019714	0.000000
861.053040	0.000000
861.086365	0.000000
861.119690	0.000000
861.153076	0.000000
861.186340	0.000000
861.219666	0.000000
861.252930	0.000000
861.286316	0.000000
861.319641	0.000000
861.352905	0.000000
861.386230	0.000000
861.419495	0.000000
861.452820	0.000000
861.486145	0.000000
861.519470	0.000000
861.552734	0.000000
861.586060	0.000000
861.619324	0.000000
861.652649	0.000000
861.685974	0.000000
861.719238	0.000000
861.752563	0.000000
861.785828	0.000000
861.819092	0.000000
861.852417	0.000000
861.885742	0.000000
861.918945	0.000000
861.952271	0.000000
861.985535	0.000000
862.018799	0.000000
862.052124	0.000000
862.085449	0.000000
862.118652	0.000000
862.151978	0.000000
862.185181	0.000000
862.218506	0.000000
862.251770	0.000000
862.285034	0.000000
862.318298	0.000000
862.351562	0.000000
862.384827	0.000000
862.418091	0.000000
862.451355	0.000000
862.484619	0.000000
862.517883	0.000000
862.551086	0.000000
862.584351	0.000000
862.617676	0.000000
862.650940	0.000000
862.684143	0.000000
862.717407	0.000000
862.750610	0.000000
862.783875	0.000000
862.817139	0.000000
862.850342	0.000000
862.883606	0.000000
862.916870	0.000000
862.950073	0.000000
862.983337	0.000000
863.016602	0.000000
863.049805	0.000000
863.083069	0.000000
863.116211	0.000000
863.149475	0.000000
863.182739	0.000000
863.216003	0.000000
863.249146	0.000000
863.282410	0.000000
863.315613	0.000000
863.348816	0.000000
863.382080	0.000000
863.415222	0.000000
863.448486	0.000000
863.481689	0.000000
863.514893	0.000000
863.548157	0.000000
863.581360	0.000000
863.614502	0.000000
863.647766	0.000000
863.680908	0.000000
863.714172	0.000000
863.747375	0.000000
863.780579	0.000000
863.813721	0.000000
863.846985	0.000000
863.880127	0.000000
863.913330	0.000000
863.946533	0.000000
863.979675	0.000000
864.012939	0.000000
