Model Number: SPM-001-M   
Serial Number: 10090201
Firmware Version: 004.17.6
Exposure Time: 500000.000000us
Data Taken on: 03-03-2021 10:44:44.148
Wavelength	Amplitude
733.770752	0.000000
733.808716	0.000000
733.846619	0.000000
733.884583	0.000000
733.922546	0.000000
733.960449	0.000000
733.998413	0.000000
734.036377	0.000000
734.074219	0.000000
734.112183	0.000000
734.150085	0.000000
734.188049	0.000000
734.226013	0.000000
734.263916	0.000000
734.301819	0.000000
734.339783	0.000000
734.377686	0.000000
734.415588	0.000000
734.453552	0.000000
734.491455	0.000000
734.529419	0.000000
734.567322	0.000000
734.605225	0.000000
734.643127	0.000000
734.681091	0.000000
734.718994	0.000000
734.756897	0.000000
734.794800	0.000000
734.832703	0.000000
734.870667	0.000000
734.908508	0.000000
734.946472	0.000000
734.984375	0.000000
735.022278	0.000000
735.060181	0.000000
735.098083	0.000000
735.135986	0.000000
735.173889	0.000000
735.211792	0.000000
735.249695	0.000000
735.287598	0.000000
735.325439	0.000000
735.363403	0.000000
735.401306	0.000000
735.439148	0.000000
735.477051	0.000000
735.515015	0.000000
735.552856	0.000000
735.590759	0.000000
735.628662	0.000000
735.666504	0.000000
735.704407	0.000000
735.742310	0.000000
735.780212	0.000000
735.818115	0.000000
735.856018	0.000000
735.893860	0.000000
735.931763	0.000000
735.969604	0.000000
736.007507	0.000000
736.045410	0.000000
736.083252	0.000000
736.121094	0.000000
736.158997	0.000000
736.196838	0.000000
736.234741	0.000000
736.272644	0.000000
736.310486	0.000000
736.348389	0.000000
736.386230	0.000000
736.424072	0.000000
736.461975	0.000000
736.499878	0.000000
736.537720	0.000000
736.575562	0.000000
736.613403	0.000000
736.651306	0.000000
736.689148	0.000000
736.726990	0.000000
736.764893	0.000000
736.802734	0.000000
736.840576	0.000000
736.878418	0.000000
736.916321	0.000000
736.954102	0.000000
736.992004	0.000000
737.029846	0.000000
737.067688	0.000000
737.105530	0.000000
737.143372	0.000000
737.181213	0.000000
737.219116	0.000000
737.256897	0.000000
737.294739	0.000000
737.332642	0.000000
737.370422	0.000000
737.408325	0.000000
737.446167	0.000000
737.483948	0.000000
737.521790	0.000000
737.559692	0.000000
737.597473	0.000000
737.635315	0.000000
737.673157	0.000000
737.710999	0.000000
737.748840	0.000000
737.786621	0.000000
737.824463	0.000000
737.862305	0.000000
737.900085	0.000000
737.937927	0.000000
737.975769	0.000000
738.013550	0.000000
738.051392	0.000000
738.089233	0.000000
738.127014	0.000000
738.164856	0.000000
738.202698	0.000000
738.240479	0.000000
738.278320	0.000000
738.316162	0.000000
738.353943	0.000000
738.391785	0.000000
738.429565	0.000000
738.467407	0.000000
738.505188	0.000000
738.542969	0.000000
738.580811	0.000000
738.618652	0.000000
738.656372	0.000000
738.694214	0.000000
738.732056	0.000000
738.769836	0.000000
738.807617	0.000000
738.845459	0.000000
738.883240	0.000000
738.921021	0.000000
738.958862	0.000000
738.996582	0.000000
739.034424	0.000000
739.072205	0.000000
739.109985	0.000000
739.147827	0.000000
739.185547	0.000000
739.223389	0.000000
739.261169	0.000000
739.298889	0.000000
739.336731	0.000000
739.374512	0.000000
739.412292	0.000000
739.450073	0.000000
739.487854	0.000000
739.525635	0.000000
739.563416	0.000000
739.601135	0.000000
739.638977	0.000000
739.676758	0.000000
739.714478	0.000000
739.752258	0.000000
739.790100	0.000000
739.827820	0.000000
739.865601	0.000000
739.903381	0.000000
739.941101	0.000000
739.978882	191.000000
740.016724	185.300000
740.054443	191.400000
740.092224	184.400000
740.130005	184.200000
740.167725	185.800000
740.205505	183.600000
740.243225	193.700000
740.281006	188.400000
740.318787	181.000000
740.356506	194.900000
740.394287	192.600000
740.432068	183.400000
740.469727	181.000000
740.507507	191.600000
740.545288	187.500000
740.583008	190.500000
740.620789	187.300000
740.658569	180.800000
740.696228	188.500000
740.734009	192.500000
740.771790	177.100000
740.809509	191.100000
740.847229	183.200000
740.884949	185.300000
740.922729	180.700000
740.960449	185.200000
740.998169	182.000000
741.035950	183.700000
741.073669	188.800000
741.111389	188.300000
741.149170	197.000000
741.186890	196.900000
741.224609	192.400000
741.262329	188.000000
741.300110	197.200000
741.337769	182.300000
741.375549	180.600000
741.413208	187.800000
741.450989	183.500000
741.488708	185.000000
741.526367	185.600000
741.564148	190.500000
741.601868	191.200000
741.639526	186.700000
741.677307	188.900000
741.715027	189.100000
741.752686	182.700000
741.790466	194.800000
741.828186	190.500000
741.865845	183.700000
741.903564	178.400000
741.941345	187.900000
741.979004	184.800000
742.016724	190.600000
742.054382	187.700000
742.092102	193.400000
742.129822	180.100000
742.167480	186.700000
742.205200	186.700000
742.242920	188.900000
742.280640	191.700000
742.318359	183.600000
742.356079	185.800000
742.393738	192.300000
742.431396	187.000000
742.469116	191.200000
742.506775	178.100000
742.544495	191.900000
742.582214	191.600000
742.619873	187.900000
742.657593	196.200000
742.695251	192.000000
742.732971	186.300000
742.770630	189.100000
742.808289	187.100000
742.846008	188.600000
742.883728	189.500000
742.921326	188.100000
742.959045	184.400000
742.996765	187.400000
743.034424	186.500000
743.072083	184.300000
743.109802	187.100000
743.147400	182.200000
743.185120	186.400000
743.222839	187.500000
743.260437	192.200000
743.298157	189.200000
743.335754	179.100000
743.373474	185.500000
743.411133	179.700000
743.448792	187.700000
743.486450	187.700000
743.524170	179.400000
743.561768	187.500000
743.599487	193.500000
743.637146	197.500000
743.674744	186.400000
743.712463	184.400000
743.750122	188.100000
743.787720	188.200000
743.825439	184.100000
743.863037	185.600000
743.900696	188.300000
743.938416	212.100000
743.976013	186.600000
744.013672	195.300000
744.051331	190.900000
744.088928	195.600000
744.126587	194.500000
744.164307	187.800000
744.201904	184.800000
744.239563	191.400000
744.277222	190.300000
744.314819	187.100000
744.352478	194.500000
744.390137	189.500000
744.427734	191.000000
744.465393	186.200000
744.502991	183.400000
744.540649	191.400000
744.578308	189.500000
744.615906	181.600000
744.653564	178.500000
744.691223	191.600000
744.728821	181.700000
744.766418	188.200000
744.804077	189.700000
744.841675	185.400000
744.879333	181.500000
744.916992	186.300000
744.954529	184.700000
744.992187	192.800000
745.029785	186.600000
745.067444	184.100000
745.105042	188.700000
745.142639	188.700000
745.180298	196.300000
745.217896	186.000000
745.255493	185.700000
745.293152	191.400000
745.330750	191.600000
745.368347	196.200000
745.405945	190.000000
745.443604	187.700000
745.481140	192.200000
745.518799	186.000000
745.556396	191.000000
745.593994	192.500000
745.631592	188.100000
745.669189	181.800000
745.706787	188.400000
745.744385	183.900000
745.781982	191.000000
745.819580	186.000000
745.857178	185.700000
745.894775	188.200000
745.932373	189.400000
745.969971	188.900000
746.007568	179.900000
746.045166	195.100000
746.082764	193.400000
746.120300	190.500000
746.157898	191.800000
746.195557	187.100000
746.233093	182.100000
746.270691	190.300000
746.308228	189.200000
746.345825	193.700000
746.383423	191.900000
746.420959	183.900000
746.458557	183.900000
746.496155	185.400000
746.533691	187.200000
746.571289	183.200000
746.608887	188.800000
746.646423	188.700000
746.684021	188.800000
746.721619	185.500000
746.759155	188.900000
746.796753	180.900000
746.834351	181.900000
746.871826	184.100000
746.909424	194.000000
746.946960	190.400000
746.984558	187.100000
747.022156	184.900000
747.059631	194.400000
747.097229	189.200000
747.134827	185.700000
747.172363	194.200000
747.209900	190.200000
747.247498	181.800000
747.285034	193.300000
747.322571	192.700000
747.360168	185.500000
747.397644	180.000000
747.435242	190.800000
747.472778	194.900000
747.510315	185.000000
747.547913	185.300000
747.585388	194.300000
747.622925	187.400000
747.660522	178.400000
747.697998	184.400000
747.735596	185.800000
747.773132	185.000000
747.810669	187.600000
747.848206	190.700000
747.885742	182.600000
747.923279	182.400000
747.960815	190.200000
747.998352	188.700000
748.035889	192.700000
748.073425	193.400000
748.110901	185.800000
748.148437	182.900000
748.185974	188.100000
748.223511	197.500000
748.261047	190.300000
748.298584	189.800000
748.336060	187.700000
748.373596	190.900000
748.411133	206.600000
748.448608	183.400000
748.486145	193.400000
748.523682	195.700000
748.561218	194.500000
748.598755	187.700000
748.636292	191.000000
748.673706	186.700000
748.711243	194.900000
748.748718	190.400000
748.786255	187.800000
748.823792	188.000000
748.861267	183.400000
748.898804	190.700000
748.936340	189.300000
748.973816	186.300000
749.011292	193.400000
749.048828	190.000000
749.086304	191.100000
749.123840	199.500000
749.161316	182.100000
749.198792	197.800000
749.236328	193.400000
749.273743	187.500000
749.311279	187.000000
749.348816	190.100000
749.386230	188.900000
749.423767	177.400000
749.461304	190.900000
749.498718	188.600000
749.536255	195.500000
749.573730	199.600000
749.611206	193.600000
749.648682	188.300000
749.686218	187.200000
749.723633	192.000000
749.761169	185.400000
749.798645	183.800000
749.836060	187.100000
749.873596	185.000000
749.911011	188.900000
749.948547	195.200000
749.986023	188.500000
750.023437	187.700000
750.060913	183.600000
750.098450	183.000000
750.135864	188.000000
750.173340	188.200000
750.210815	193.500000
750.248291	184.200000
750.285767	187.600000
750.323242	195.100000
750.360657	190.800000
750.398132	184.000000
750.435608	191.500000
750.473022	184.000000
750.510498	184.400000
750.547974	184.200000
750.585449	186.600000
750.622925	177.100000
750.660339	196.900000
750.697815	188.300000
750.735291	186.100000
750.772644	188.100000
750.810120	190.400000
750.847595	190.300000
750.885010	182.900000
750.922485	196.000000
750.959961	187.400000
750.997375	194.300000
751.034851	192.200000
751.072266	193.100000
751.109680	179.100000
751.147156	194.000000
751.184570	190.400000
751.221985	189.100000
751.259460	178.500000
751.296875	187.300000
751.334290	188.400000
751.371765	192.100000
751.409180	191.600000
751.446594	193.900000
751.484070	190.200000
751.521423	189.400000
751.558899	189.900000
751.596375	194.800000
751.633728	194.900000
751.671204	201.600000
751.708618	184.800000
751.746033	189.600000
751.783447	183.100000
751.820801	185.000000
751.858276	191.500000
751.895691	189.400000
751.933105	186.800000
751.970520	183.500000
752.007935	186.700000
752.045349	193.000000
752.082764	188.200000
752.120178	188.300000
752.157532	184.800000
752.195007	185.800000
752.232422	190.500000
752.269775	192.400000
752.307190	191.300000
752.344543	183.500000
752.382019	187.200000
752.419434	186.400000
752.456787	191.300000
752.494202	192.500000
752.531616	190.400000
752.568970	193.100000
752.606384	190.100000
752.643799	190.300000
752.681152	196.600000
752.718567	191.000000
752.755981	179.800000
752.793335	190.700000
752.830750	180.100000
752.868164	193.200000
752.905518	183.500000
752.942932	193.600000
752.980225	182.800000
753.017639	191.000000
753.055054	186.300000
753.092407	189.300000
753.129822	192.800000
753.167175	198.200000
753.204529	187.200000
753.241943	185.200000
753.279358	182.400000
753.316650	191.400000
753.354065	190.100000
753.391479	192.100000
753.428772	196.500000
753.466187	190.800000
753.503479	182.000000
753.540894	188.100000
753.578308	182.900000
753.615601	182.600000
753.653015	187.900000
753.690369	186.200000
753.727722	182.900000
753.765076	182.600000
753.802490	182.600000
753.839783	180.300000
753.877136	187.600000
753.914551	202.500000
753.951843	182.900000
753.989258	193.500000
754.026611	190.000000
754.063904	188.900000
754.101257	183.200000
754.138611	180.300000
754.175964	189.500000
754.213318	199.800000
754.250610	182.400000
754.288025	185.900000
754.325378	182.600000
754.362671	193.600000
754.400024	187.300000
754.437378	197.300000
754.474670	198.800000
754.512085	184.700000
754.549438	187.800000
754.586731	185.200000
754.624084	188.300000
754.661438	183.700000
754.698730	196.400000
754.736084	186.200000
754.773376	185.900000
754.810730	189.700000
754.848083	187.200000
754.885315	193.500000
754.922668	181.000000
754.960022	181.800000
754.997314	192.900000
755.034668	188.900000
755.072021	188.600000
755.109253	185.100000
755.146606	196.200000
755.183960	185.900000
755.221252	195.900000
755.258545	193.500000
755.295898	193.700000
755.333191	195.800000
755.370544	192.200000
755.407776	188.500000
755.445129	190.100000
755.482422	195.200000
755.519714	185.900000
755.557068	182.200000
755.594360	181.300000
755.631653	193.300000
755.668945	197.600000
755.706299	192.600000
755.743530	202.200000
755.780884	198.500000
755.818176	196.400000
755.855408	195.500000
755.892761	191.300000
755.930054	192.100000
755.967346	191.700000
756.004639	196.300000
756.041870	190.600000
756.079224	196.800000
756.116516	187.200000
756.153748	195.400000
756.191040	199.300000
756.228394	194.700000
756.265625	185.600000
756.302917	192.200000
756.340210	189.500000
756.377441	196.000000
756.414795	197.800000
756.452087	190.400000
756.489319	183.600000
756.526611	194.700000
756.563843	190.700000
756.601135	203.400000
756.638428	200.400000
756.675659	190.500000
756.712952	196.300000
756.750244	195.400000
756.787476	192.800000
756.824768	198.600000
756.862061	189.900000
756.899292	238.700000
756.936584	195.300000
756.973816	203.100000
757.011047	204.000000
757.048340	194.000000
757.085632	192.600000
757.122864	209.800000
757.160156	192.100000
757.197327	197.100000
757.234619	198.400000
757.271912	192.500000
757.309082	197.600000
757.346375	192.300000
757.383667	201.500000
757.420837	195.400000
757.458130	196.200000
757.495422	194.100000
757.532593	197.200000
757.569885	188.900000
757.607117	190.300000
757.644348	196.900000
757.681580	208.300000
757.718811	184.300000
757.756042	194.300000
757.793335	193.600000
757.830505	200.200000
757.867798	193.400000
757.905029	192.500000
757.942200	197.200000
757.979492	192.900000
758.016724	195.300000
758.053894	194.700000
758.091187	213.700000
758.128418	196.100000
758.165588	195.600000
758.202820	207.800000
758.240112	194.800000
758.277283	208.300000
758.314514	199.100000
758.351685	195.400000
758.388916	205.100000
758.426147	206.800000
758.463379	206.300000
758.500610	201.200000
758.537842	198.800000
758.575012	205.500000
758.612244	194.100000
758.649475	212.200000
758.686646	192.500000
758.723877	207.500000
758.761108	207.300000
758.798279	199.000000
758.835510	202.200000
758.872742	206.200000
758.909851	201.800000
758.947083	203.600000
758.984253	201.700000
759.021484	205.800000
759.058716	205.200000
759.095886	205.500000
759.133057	200.900000
759.170288	207.200000
759.207458	199.300000
759.244690	212.800000
759.281860	212.400000
759.319031	202.500000
759.356262	200.900000
759.393433	201.900000
759.430603	202.600000
759.467773	202.500000
759.505005	209.900000
759.542175	210.700000
759.579346	204.900000
759.616516	205.900000
759.653687	209.400000
759.690918	202.300000
759.728027	206.400000
759.765259	206.900000
759.802429	210.200000
759.839539	208.400000
759.876770	213.500000
759.913940	218.300000
759.951111	208.800000
759.988281	208.200000
760.025452	205.600000
760.062561	201.900000
760.099792	217.400000
760.136963	211.500000
760.174072	209.000000
760.211243	202.300000
760.248413	204.200000
760.285583	204.700000
760.322754	220.600000
760.359863	214.000000
760.397034	216.000000
760.434204	208.400000
760.471375	209.100000
760.508545	207.000000
760.545715	209.400000
760.582825	205.800000
760.619995	214.800000
760.657166	202.700000
760.694275	214.600000
760.731445	211.800000
760.768555	212.700000
760.805664	214.300000
760.842834	212.600000
760.879944	214.300000
760.917114	212.200000
760.954285	210.000000
760.991394	205.800000
761.028564	217.700000
761.065674	217.200000
761.102783	208.000000
761.139954	217.900000
761.177124	218.900000
761.214172	219.600000
761.251343	213.000000
761.288452	214.900000
761.325562	217.700000
761.362732	210.700000
761.399841	213.500000
761.436951	218.900000
761.474121	211.100000
761.511169	216.100000
761.548340	219.600000
761.585449	220.000000
761.622559	219.200000
761.659668	217.400000
761.696838	223.200000
761.733887	219.800000
761.771057	216.700000
761.808167	217.700000
761.845276	221.800000
761.882385	230.600000
761.919434	219.600000
761.956604	238.700000
761.993713	217.200000
762.030762	227.000000
762.067871	218.700000
762.105042	220.200000
762.142090	228.100000
762.179199	221.200000
762.216309	226.800000
762.253418	236.500000
762.290527	231.100000
762.327637	227.600000
762.364685	216.600000
762.401794	227.000000
762.438904	224.700000
762.475952	220.100000
762.513062	219.000000
762.550110	218.900000
762.587219	233.200000
762.624329	234.300000
762.661377	227.300000
762.698486	228.000000
762.735596	227.000000
762.772644	220.700000
762.809753	218.300000
762.846863	225.400000
762.883911	229.200000
762.921021	230.200000
762.958069	226.000000
762.995117	234.800000
763.032227	236.800000
763.069336	227.400000
763.106323	223.000000
763.143433	223.200000
763.180481	232.100000
763.217590	230.600000
763.254639	228.900000
763.291687	228.000000
763.328735	237.800000
763.365845	230.300000
763.402893	229.300000
763.439941	232.400000
763.477051	236.600000
763.514038	236.900000
763.551147	230.500000
763.588196	233.300000
763.625244	232.700000
763.662292	238.900000
763.699402	243.800000
763.736389	239.200000
763.773499	248.200000
763.810486	243.100000
763.847534	236.900000
763.884644	242.000000
763.921631	236.400000
763.958679	248.800000
763.995728	238.100000
764.032776	246.900000
764.069824	234.400000
764.106873	245.100000
764.143860	249.900000
764.180969	239.800000
764.218018	250.100000
764.255005	242.200000
764.292053	242.700000
764.329102	253.800000
764.366089	253.200000
764.403137	250.300000
764.440125	242.700000
764.477173	246.400000
764.514221	249.800000
764.551208	247.700000
764.588257	241.900000
764.625305	253.400000
764.662292	258.000000
764.699341	261.000000
764.736389	253.900000
764.773376	269.300000
764.810425	256.600000
764.847473	265.400000
764.884399	261.300000
764.921448	267.500000
764.958435	266.400000
764.995483	256.600000
765.032532	275.100000
765.069458	259.900000
765.106506	260.800000
765.143555	259.400000
765.180481	265.200000
765.217529	272.100000
765.254578	257.300000
765.291504	268.200000
765.328552	266.500000
765.365540	263.400000
765.402527	277.400000
765.439575	264.400000
765.476501	261.200000
765.513550	262.800000
765.550537	266.100000
765.587463	274.600000
765.624512	265.500000
765.661499	259.500000
765.698486	274.200000
765.735474	265.100000
765.772461	269.800000
765.809448	277.500000
765.846436	274.100000
765.883423	279.400000
765.920410	275.300000
765.957397	270.900000
765.994385	276.400000
766.031311	285.700000
766.068359	276.800000
766.105286	277.400000
766.142273	284.100000
766.179260	279.200000
766.216187	272.300000
766.253174	270.100000
766.290161	278.400000
766.327148	281.500000
766.364136	282.800000
766.401123	297.100000
766.438049	274.800000
766.475037	291.800000
766.512024	285.600000
766.548950	299.300000
766.585937	294.500000
766.622864	290.900000
766.659790	289.300000
766.696777	279.900000
766.733704	296.100000
766.770691	285.400000
766.807678	299.000000
766.844604	293.500000
766.881531	295.400000
766.918518	301.900000
766.955444	301.300000
766.992432	296.100000
767.029358	295.600000
767.066284	301.900000
767.103271	297.200000
767.140198	328.200000
767.177124	314.400000
767.214050	304.900000
767.251038	304.700000
767.287964	300.800000
767.324890	299.100000
767.361816	306.500000
767.398743	309.700000
767.435730	303.500000
767.472595	308.100000
767.509583	313.800000
767.546509	302.300000
767.583374	311.000000
767.620361	301.100000
767.657288	308.700000
767.694214	310.500000
767.731140	308.600000
767.768066	307.200000
767.804993	312.400000
767.841919	302.100000
767.878845	312.300000
767.915710	318.500000
767.952698	309.900000
767.989563	313.400000
768.026489	316.200000
768.063416	305.500000
768.100281	310.300000
768.137207	322.900000
768.174133	319.800000
768.211060	320.500000
768.247986	317.100000
768.284912	316.200000
768.321777	319.600000
768.358704	315.100000
768.395630	321.000000
768.432495	313.200000
768.469421	323.600000
768.506348	326.200000
768.543152	332.400000
768.580078	328.100000
768.616943	330.500000
768.653870	331.500000
768.690796	329.000000
768.727661	327.000000
768.764587	330.600000
768.801453	325.200000
768.838318	337.600000
768.875244	335.800000
768.912109	342.000000
768.948975	334.800000
768.985901	335.500000
769.022766	334.400000
769.059631	339.800000
769.096558	334.500000
769.133362	336.800000
769.170288	336.900000
769.207214	336.200000
769.244019	345.200000
769.280945	341.300000
769.317810	347.300000
769.354675	344.600000
769.391541	353.200000
769.428406	351.800000
769.465271	362.800000
769.502136	350.100000
769.539062	354.800000
769.575867	353.700000
769.612732	353.900000
769.649597	359.300000
769.686462	364.200000
769.723328	358.300000
769.760193	357.200000
769.797058	360.600000
769.833923	366.500000
769.870728	362.200000
769.907593	367.400000
769.944519	366.800000
769.981323	370.600000
770.018188	370.300000
770.055054	371.600000
770.091858	371.100000
770.128723	383.200000
770.165588	388.200000
770.202393	371.700000
770.239258	382.200000
770.276062	380.400000
770.312927	380.500000
770.349792	390.400000
770.386597	389.100000
770.423462	397.300000
770.460327	406.100000
770.497131	392.100000
770.533997	382.700000
770.570862	401.400000
770.607605	401.700000
770.644470	397.300000
770.681335	402.400000
770.718140	402.500000
770.754944	395.500000
770.791809	395.700000
770.828613	400.600000
770.865479	399.900000
770.902222	412.600000
770.939087	406.900000
770.975952	398.100000
771.012695	403.900000
771.049561	421.700000
771.086365	411.100000
771.123169	410.600000
771.159973	413.200000
771.196838	413.500000
771.233582	412.100000
771.270447	417.000000
771.307251	420.500000
771.344055	417.600000
771.380859	422.500000
771.417664	418.700000
771.454468	425.500000
771.491272	426.300000
771.528076	429.200000
771.564880	427.300000
771.601685	437.500000
771.638428	427.700000
771.675293	430.600000
771.712097	418.400000
771.748840	440.800000
771.785645	433.400000
771.822449	436.200000
771.859253	442.300000
771.896057	438.600000
771.932861	450.300000
771.969604	442.400000
772.006409	433.500000
772.043213	447.800000
772.079956	442.500000
772.116760	437.100000
772.153503	439.800000
772.190308	451.100000
772.227112	442.600000
772.263855	440.600000
772.300659	445.600000
772.337463	453.500000
772.374207	441.600000
772.411011	439.800000
772.447754	445.300000
772.484497	464.300000
772.521301	457.600000
772.558105	454.300000
772.594849	457.700000
772.631592	459.800000
772.668396	457.400000
772.705139	463.800000
772.741882	461.800000
772.778625	476.300000
772.815430	480.000000
772.852173	470.400000
772.888916	478.500000
772.925720	482.900000
772.962463	487.800000
772.999207	483.300000
773.035950	485.200000
773.072754	485.100000
773.109436	481.700000
773.146240	482.800000
773.182922	480.100000
773.219727	491.400000
773.256470	487.600000
773.293152	478.300000
773.329956	482.900000
773.366699	488.400000
773.403381	481.400000
773.440186	488.300000
773.476929	492.200000
773.513611	482.800000
773.550354	486.500000
773.587158	483.000000
773.623840	480.800000
773.660583	490.400000
773.697327	503.400000
773.734009	493.400000
773.770813	490.100000
773.807495	489.200000
773.844238	493.400000
773.880981	506.400000
773.917664	500.600000
773.954407	510.500000
773.991150	500.400000
774.027832	507.300000
774.064575	498.200000
774.101318	506.300000
774.138000	515.400000
774.174744	506.700000
774.211487	509.300000
774.248108	496.900000
774.284851	494.900000
774.321594	506.700000
774.358276	509.900000
774.395020	522.700000
774.431702	515.900000
774.468384	508.300000
774.505127	505.300000
774.541809	518.900000
774.578491	525.700000
774.615234	528.700000
774.651917	522.000000
774.688599	521.300000
774.725342	530.600000
774.762024	529.800000
774.798706	539.900000
774.835449	539.400000
774.872070	545.100000
774.908813	545.500000
774.945496	540.400000
774.982178	540.800000
775.018860	542.600000
775.055542	550.500000
775.092224	549.900000
775.128967	553.500000
775.165588	552.400000
775.202271	544.600000
775.239014	560.500000
775.275635	559.100000
775.312317	557.900000
775.349060	564.800000
775.385681	561.900000
775.422363	556.400000
775.459045	565.300000
775.495667	568.300000
775.532410	574.600000
775.569092	576.500000
775.605713	576.000000
775.642395	573.600000
775.679016	576.100000
775.715698	579.100000
775.752380	581.400000
775.789001	576.900000
775.825684	583.300000
775.862366	583.300000
775.898987	596.500000
775.935669	583.400000
775.972351	610.200000
776.008972	605.600000
776.045654	606.100000
776.082336	601.200000
776.118958	603.900000
776.155640	611.100000
776.192322	616.100000
776.228882	624.500000
776.265564	624.400000
776.302185	619.300000
776.338867	628.800000
776.375488	615.200000
776.412109	632.000000
776.448792	637.400000
776.485413	645.600000
776.522034	635.500000
776.558716	631.200000
776.595337	629.800000
776.631958	636.800000
776.668579	641.200000
776.705261	650.700000
776.741882	646.800000
776.778503	648.900000
776.815186	639.600000
776.851746	645.600000
776.888367	647.400000
776.924988	661.500000
776.961609	650.400000
776.998291	657.500000
777.034851	648.500000
777.071472	660.200000
777.108154	659.300000
777.144714	670.000000
777.181335	670.000000
777.218018	663.100000
777.254578	673.400000
777.291199	668.800000
777.327759	673.500000
777.364380	686.100000
777.401062	697.900000
777.437622	705.600000
777.474243	693.300000
777.510864	697.100000
777.547424	691.800000
777.584045	699.700000
777.620667	703.800000
777.657227	709.000000
777.693848	710.100000
777.730469	724.100000
777.767029	716.500000
777.803650	721.500000
777.840271	715.100000
777.876831	718.300000
777.913452	727.300000
777.950012	705.600000
777.986633	707.400000
778.023193	702.700000
778.059753	698.200000
778.096375	705.700000
778.132996	720.900000
778.169556	711.800000
778.206116	712.300000
778.242737	710.500000
778.279297	718.900000
778.315857	712.300000
778.352478	714.600000
778.389038	725.500000
778.425598	727.600000
778.462219	733.200000
778.498718	734.000000
778.535339	736.300000
778.571838	740.300000
778.608459	748.500000
778.645020	739.000000
778.681580	745.300000
778.718140	745.000000
778.754761	744.700000
778.791260	746.300000
778.827881	758.200000
778.864441	759.100000
778.900940	767.100000
778.937561	763.600000
778.974121	763.400000
779.010620	752.800000
779.047241	760.800000
779.083801	764.200000
779.120300	767.200000
779.156860	769.900000
779.193359	761.500000
779.229980	764.200000
779.266541	768.900000
779.303040	773.600000
779.339600	761.900000
779.376160	754.700000
779.412659	760.200000
779.449219	754.600000
779.485779	758.800000
779.522278	759.300000
779.558838	762.400000
779.595398	768.900000
779.631897	771.200000
779.668457	758.400000
779.705017	767.600000
779.741516	763.100000
779.778076	755.100000
779.814575	761.700000
779.851074	766.800000
779.887634	766.500000
779.924133	769.500000
779.960693	763.000000
779.997253	775.500000
780.033691	779.000000
780.070251	787.400000
780.106812	797.500000
780.143250	791.600000
780.179810	786.000000
780.216370	786.500000
780.252808	796.000000
780.289368	805.300000
780.325867	800.100000
780.362366	799.700000
780.398865	813.000000
780.435364	804.600000
780.471863	818.500000
780.508423	821.100000
780.544861	826.000000
780.581421	827.400000
780.617920	815.100000
780.654419	803.200000
780.690918	813.300000
780.727417	824.500000
780.763916	821.000000
780.800415	832.500000
780.836914	821.500000
780.873352	827.500000
780.909912	820.600000
780.946411	828.600000
780.982849	840.200000
781.019348	855.500000
781.055786	845.800000
781.092346	843.200000
781.128845	850.900000
781.165283	860.300000
781.201782	872.500000
781.238281	874.500000
781.274719	881.300000
781.311218	869.400000
781.347717	880.200000
781.384155	870.800000
781.420654	873.000000
781.457092	881.400000
781.493591	881.500000
781.530090	874.800000
781.566528	880.300000
781.602966	879.200000
781.639465	878.800000
781.675903	875.300000
781.712402	882.400000
781.748901	888.700000
781.785278	880.000000
781.821777	886.400000
781.858276	886.700000
781.894714	911.100000
781.931152	902.600000
781.967651	913.000000
782.004089	912.000000
782.040527	916.300000
782.076965	916.300000
782.113403	922.100000
782.149902	931.100000
782.186340	925.600000
782.222778	944.100000
782.259277	926.100000
782.295654	930.400000
782.332092	940.600000
782.368591	934.700000
782.404968	932.100000
782.441467	941.800000
782.477905	939.800000
782.514282	939.600000
782.550781	959.500000
782.587219	958.200000
782.623596	971.700000
782.660095	974.000000
782.696472	981.000000
782.732910	980.400000
782.769348	991.200000
782.805786	1013.000000
782.842224	1008.400000
782.878662	1001.700000
782.915039	1003.600000
782.951477	1000.200000
782.987915	995.900000
783.024292	1009.300000
783.060730	1012.300000
783.097168	1003.800000
783.133545	998.400000
783.169983	993.900000
783.206421	986.500000
783.242798	984.400000
783.279236	971.500000
783.315613	968.000000
783.352051	959.300000
783.388489	948.200000
783.424866	937.700000
783.461304	946.500000
783.497681	953.600000
783.534058	955.000000
783.570496	953.200000
783.606934	947.200000
783.643250	952.900000
783.679687	961.900000
783.716125	964.100000
783.752441	980.800000
783.788879	1006.700000
783.825317	1014.300000
783.861633	1025.000000
783.898071	1033.900000
783.934448	1049.500000
783.970825	1063.500000
784.007263	1066.000000
784.043579	1069.200000
784.080017	1081.900000
784.116394	1072.000000
784.152710	1073.500000
784.189148	1078.900000
784.225525	1078.800000
784.261902	1059.400000
784.298279	1049.400000
784.334656	1052.600000
784.371033	1040.700000
784.407410	1038.700000
784.443787	1011.900000
784.480164	995.700000
784.516541	974.700000
784.552856	978.900000
784.589233	972.100000
784.625610	961.400000
784.661987	994.300000
784.698364	977.800000
784.734741	969.900000
784.771057	960.200000
784.807434	949.800000
784.843811	943.000000
784.880127	909.100000
784.916504	898.600000
784.952881	858.600000
784.989197	809.500000
785.025574	761.900000
785.061951	717.200000
785.098267	697.900000
785.134644	655.300000
785.170959	631.200000
785.207275	627.700000
785.243652	633.700000
785.279968	633.700000
785.316345	657.000000
785.352722	684.100000
785.388977	711.000000
785.425354	727.200000
785.461731	752.900000
785.498047	786.700000
785.534363	816.900000
785.570679	848.600000
785.606995	878.600000
785.643372	916.100000
785.679687	926.600000
785.716003	934.100000
785.752380	947.100000
785.788635	964.900000
785.825012	998.700000
785.861328	1019.600000
785.897644	1011.200000
785.933960	1031.200000
785.970337	1036.900000
786.006592	1058.100000
786.042908	1072.100000
786.079285	1086.600000
786.115540	1098.000000
786.151855	1094.000000
786.188171	1086.900000
786.224487	1092.000000
786.260803	1086.900000
786.297119	1097.600000
786.333435	1097.400000
786.369751	1083.700000
786.406006	1085.200000
786.442322	1058.600000
786.478638	1046.300000
786.514954	1061.500000
786.551270	1064.100000
786.587585	1079.800000
786.623840	1063.800000
786.660156	1051.900000
786.696472	1031.700000
786.732727	1024.800000
786.769043	1034.000000
786.805298	1028.700000
786.841614	1036.500000
786.877930	1047.500000
786.914124	1034.900000
786.950439	1056.800000
786.986755	1066.700000
787.023010	1089.200000
787.059326	1107.300000
787.095642	1103.500000
787.131836	1121.400000
787.168152	1110.300000
787.204468	1114.100000
787.240723	1132.300000
787.276978	1151.200000
787.313293	1156.200000
787.349548	1155.800000
787.385803	1147.300000
787.422058	1134.800000
787.458313	1127.900000
787.494629	1129.500000
787.530823	1128.500000
787.567139	1114.200000
787.603455	1106.200000
787.639648	1094.800000
787.675903	1085.200000
787.712219	1081.200000
787.748413	1082.000000
787.784729	1093.500000
787.820984	1084.800000
787.857178	1070.500000
787.893494	1066.100000
787.929749	1066.200000
787.965942	1083.000000
788.002258	1104.600000
788.038452	1116.400000
788.074707	1108.200000
788.110962	1119.400000
788.147217	1122.300000
788.183472	1137.600000
788.219727	1159.700000
788.255920	1180.400000
788.292175	1192.100000
788.328430	1195.300000
788.364624	1170.100000
788.400879	1160.500000
788.437134	1165.400000
788.473328	1172.100000
788.509583	1172.700000
788.545837	1166.200000
788.582031	1166.400000
788.618286	1157.300000
788.654480	1145.000000
788.690735	1159.700000
788.726990	1177.400000
788.763184	1178.800000
788.799377	1191.500000
788.835632	1183.600000
788.871826	1202.900000
788.908081	1193.200000
788.944336	1189.900000
788.980469	1212.800000
789.016724	1210.200000
789.052979	1211.000000
789.089111	1198.600000
789.125366	1200.700000
789.161621	1178.500000
789.197754	1198.400000
789.234009	1196.000000
789.270142	1177.100000
789.306396	1174.800000
789.342590	1161.700000
789.378784	1134.300000
789.414978	1130.800000
789.451233	1150.500000
789.487366	1154.500000
789.523621	1160.600000
789.559814	1157.800000
789.595947	1143.900000
789.632202	1155.700000
789.668335	1171.200000
789.704529	1194.400000
789.740784	1220.800000
789.776917	1229.100000
789.813110	1216.900000
789.849304	1230.300000
789.885498	1230.200000
789.921692	1253.100000
789.957886	1267.400000
789.994019	1274.300000
790.030212	1277.500000
790.066406	1283.900000
790.102539	1276.500000
790.138733	1286.900000
790.174927	1289.100000
790.211060	1300.700000
790.247253	1288.100000
790.283386	1272.100000
790.319580	1252.900000
790.355774	1224.300000
790.391907	1221.100000
790.428101	1247.000000
790.464294	1247.500000
790.500427	1247.200000
790.536621	1232.100000
790.572754	1202.600000
790.608887	1200.600000
790.645081	1212.500000
790.681274	1226.400000
790.717346	1240.700000
790.753540	1219.700000
790.789734	1192.700000
790.825867	1170.800000
790.862000	1168.000000
790.898132	1183.000000
790.934265	1193.900000
790.970459	1196.900000
791.006592	1188.800000
791.042725	1186.500000
791.078918	1165.900000
791.114990	1163.700000
791.151184	1171.400000
791.187317	1191.900000
791.223389	1186.300000
791.259583	1177.100000
791.295715	1168.500000
791.331848	1171.100000
791.367981	1181.000000
791.404114	1195.600000
791.440247	1205.700000
791.476379	1212.400000
791.512451	1197.500000
791.548584	1184.500000
791.584778	1178.900000
791.620850	1197.400000
791.656982	1217.800000
791.693115	1216.700000
791.729187	1207.500000
791.765381	1201.600000
791.801514	1197.000000
791.837585	1198.400000
791.873718	1210.500000
791.909851	1219.600000
791.945923	1234.800000
791.982056	1196.400000
792.018188	1192.000000
792.054260	1189.200000
792.090393	1187.200000
792.126465	1182.300000
792.162598	1196.900000
792.198669	1180.800000
792.234741	1169.600000
792.270874	1155.100000
792.307007	1142.400000
792.343079	1146.200000
792.379150	1161.700000
792.415283	1146.800000
792.451355	1150.000000
792.487488	1120.400000
792.523560	1111.700000
792.559631	1092.800000
792.595764	1051.900000
792.631836	1020.300000
792.667908	1024.700000
792.703979	1018.600000
792.740051	1064.800000
792.776184	1111.400000
792.812256	1129.500000
792.848328	1143.200000
792.884399	1160.600000
792.920471	1167.000000
792.956543	1164.800000
792.992615	1160.900000
793.028748	1153.000000
793.064758	1162.300000
793.100830	1190.400000
793.136963	1215.800000
793.172974	1213.100000
793.209045	1200.500000
793.245178	1218.200000
793.281189	1194.300000
793.317261	1210.000000
793.353271	1214.600000
793.389404	1227.900000
793.425476	1222.100000
793.461487	1205.000000
793.497559	1194.600000
793.533630	1191.200000
793.569641	1184.400000
793.605713	1195.600000
793.641785	1199.800000
793.677795	1214.000000
793.713867	1197.600000
793.749878	1208.400000
793.785950	1218.100000
793.822021	1228.800000
793.858032	1221.800000
793.894104	1232.100000
793.930176	1221.300000
793.966187	1225.000000
794.002258	1206.700000
794.038269	1208.800000
794.074280	1209.500000
794.110352	1237.000000
794.146423	1218.300000
794.182373	1216.200000
794.218445	1208.700000
794.254517	1196.200000
794.290466	1184.900000
794.326538	1188.400000
794.362549	1193.900000
794.398560	1201.900000
794.434631	1208.600000
794.470581	1178.100000
794.506653	1175.300000
794.542664	1176.700000
794.578674	1181.600000
794.614685	1186.200000
794.650757	1185.300000
794.686707	1175.300000
794.722778	1171.000000
794.758789	1178.900000
794.794739	1180.800000
794.830811	1222.500000
794.866821	1248.500000
794.902771	1248.600000
794.938843	1242.700000
794.974792	1236.900000
795.010803	1237.000000
795.046814	1238.500000
795.082825	1230.800000
795.118835	1249.000000
795.154846	1226.600000
795.190796	1221.800000
795.226807	1195.700000
795.262817	1198.700000
795.298767	1205.000000
795.334778	1214.500000
795.370850	1207.100000
795.406799	1211.800000
795.442810	1189.200000
795.478821	1181.600000
795.514709	1178.000000
795.550720	1202.900000
795.586670	1188.700000
795.622681	1196.600000
795.658691	1197.700000
795.694641	1186.800000
795.730652	1172.200000
795.766663	1187.300000
795.802551	1193.400000
795.838562	1214.100000
795.874573	1203.900000
795.910522	1200.000000
795.946472	1187.300000
795.982483	1186.400000
796.018433	1185.900000
796.054382	1193.200000
796.090393	1194.400000
796.126282	1189.400000
796.162292	1168.400000
796.198242	1158.200000
796.234192	1154.300000
796.270203	1155.500000
796.306091	1158.500000
796.342041	1180.600000
796.378052	1166.200000
796.413940	1169.300000
796.449951	1167.900000
796.485901	1166.000000
796.521790	1172.000000
796.557800	1189.000000
796.593689	1199.000000
796.629639	1186.600000
796.665649	1171.900000
796.701599	1169.000000
796.737488	1163.400000
796.773437	1169.600000
796.809387	1175.000000
796.845337	1183.700000
796.881287	1168.500000
796.917175	1148.800000
796.953125	1140.500000
796.989075	1156.000000
797.024963	1161.100000
797.060913	1161.100000
797.096863	1158.000000
797.132751	1154.000000
797.168701	1133.700000
797.204590	1133.500000
797.240540	1143.400000
797.276489	1153.300000
797.312439	1166.800000
797.348328	1157.300000
797.384277	1141.700000
797.420166	1124.300000
797.456055	1124.600000
797.492004	1116.400000
797.527893	1132.300000
797.563843	1143.000000
797.599731	1125.100000
797.635620	1106.900000
797.671570	1111.300000
797.707520	1112.200000
797.743347	1126.900000
797.779297	1140.000000
797.815125	1126.600000
797.851074	1113.700000
797.887024	1097.700000
797.922913	1082.000000
797.958801	1093.000000
797.994690	1095.800000
798.030579	1108.200000
798.066467	1115.200000
798.102356	1099.000000
798.138245	1086.100000
798.174133	1080.400000
798.210083	1094.800000
798.245911	1105.000000
798.281799	1112.200000
798.317749	1105.300000
798.353577	1092.800000
798.389465	1081.200000
798.425293	1071.700000
798.461243	1072.600000
798.497131	1085.200000
798.532959	1090.100000
798.568848	1096.200000
798.604736	1082.700000
798.640564	1060.500000
798.676453	1057.800000
798.712402	1060.000000
798.748230	1068.700000
798.784119	1075.000000
798.820007	1078.300000
798.855835	1072.000000
798.891724	1061.000000
798.927551	1052.500000
798.963379	1058.300000
798.999268	1054.400000
799.035095	1046.700000
799.070984	1032.300000
799.106873	1017.900000
799.142700	1022.200000
799.178528	1010.500000
799.214417	1013.100000
799.250244	1033.000000
799.286133	1025.400000
799.321960	1021.600000
799.357788	1014.200000
799.393677	1009.100000
799.429504	1005.600000
799.465332	1008.500000
799.501221	1018.700000
799.537048	1017.100000
799.572876	1006.800000
799.608704	1008.300000
799.644531	1016.500000
799.680359	1013.200000
799.716248	1033.200000
799.752014	1041.300000
799.787903	1021.800000
799.823730	1017.000000
799.859558	1008.800000
799.895386	1011.400000
799.931213	1016.300000
799.967041	1000.800000
800.002869	1009.200000
800.038696	1028.200000
800.074463	995.700000
800.110352	1001.900000
800.146179	991.500000
800.181946	1003.400000
800.217773	1007.800000
800.253540	1004.700000
800.289429	987.700000
800.325256	981.000000
800.361023	968.300000
800.396851	978.400000
800.432678	982.500000
800.468445	985.300000
800.504272	982.000000
800.540100	967.700000
800.575867	961.200000
800.611694	965.100000
800.647461	957.600000
800.683289	967.700000
800.719116	967.300000
800.754883	965.200000
800.790649	948.000000
800.826477	932.100000
800.862244	959.200000
800.898071	944.900000
800.933838	945.400000
800.969604	948.700000
801.005432	942.900000
801.041199	939.100000
801.076965	929.100000
801.112793	924.600000
801.148560	911.300000
801.184326	920.100000
801.220154	922.200000
801.255859	910.600000
801.291687	911.600000
801.327454	904.700000
801.363281	900.500000
801.398987	901.400000
801.434814	903.500000
801.470520	909.200000
801.506287	892.100000
801.542114	884.300000
801.577820	885.200000
801.613647	883.800000
801.649414	886.500000
801.685120	887.900000
801.720886	897.800000
801.756714	885.400000
801.792419	871.300000
801.828186	856.700000
801.863892	871.800000
801.899719	863.600000
801.935486	857.000000
801.971252	865.900000
802.006958	862.500000
802.042725	857.000000
802.078430	851.200000
802.114197	848.400000
802.149963	866.600000
802.185669	857.200000
802.221436	851.000000
802.257202	852.300000
802.292908	842.800000
802.328674	854.800000
802.364441	861.100000
802.400146	856.000000
802.435913	853.700000
802.471558	855.000000
802.507324	849.400000
802.543091	839.700000
802.578796	849.700000
802.614502	854.700000
802.650269	858.000000
802.685974	843.200000
802.721741	846.600000
802.757446	847.800000
802.793152	842.400000
802.828918	853.300000
802.864624	848.500000
802.900330	850.500000
802.936035	844.100000
802.971802	840.100000
803.007446	839.300000
803.043213	827.800000
803.078857	832.900000
803.114624	816.900000
803.150330	827.500000
803.185974	814.000000
803.221741	815.400000
803.257446	825.200000
803.293152	831.200000
803.328857	822.900000
803.364563	819.200000
803.400208	811.200000
803.435974	812.900000
803.471680	808.800000
803.507324	805.100000
803.543030	814.700000
803.578735	819.500000
803.614441	812.300000
803.650146	818.400000
803.685791	805.500000
803.721497	805.700000
803.757202	795.700000
803.792847	807.000000
803.828552	792.200000
803.864258	790.200000
803.899902	783.800000
803.935608	766.200000
803.971313	770.600000
804.006958	771.100000
804.042664	766.300000
804.078308	779.800000
804.113953	766.900000
804.149658	775.400000
804.185364	763.400000
804.221008	774.700000
804.256714	760.000000
804.292297	760.300000
804.328003	753.100000
804.363708	745.200000
804.399292	744.600000
804.434998	746.700000
804.470703	736.000000
804.506287	756.100000
804.541992	747.300000
804.577637	751.700000
804.613281	732.900000
804.648926	724.100000
804.684570	724.400000
804.720215	721.400000
804.755920	719.400000
804.791565	717.400000
804.827209	727.500000
804.862854	718.900000
804.898437	710.900000
804.934143	711.000000
804.969788	706.800000
805.005371	710.000000
805.041077	710.800000
805.076721	712.100000
805.112305	694.000000
805.147949	693.500000
805.183655	690.900000
805.219238	696.300000
805.254883	696.100000
805.290466	702.500000
805.326111	691.400000
805.361755	683.800000
805.397400	685.200000
805.432983	683.800000
805.468628	681.700000
805.504211	686.700000
805.539856	686.000000
805.575500	691.100000
805.611084	680.300000
805.646729	666.100000
805.682373	669.000000
805.717957	677.700000
805.753601	680.300000
805.789246	667.600000
805.824768	682.400000
805.860413	680.400000
805.895996	668.600000
805.931641	668.000000
805.967224	671.900000
806.002869	666.500000
806.038452	680.300000
806.074036	677.400000
806.109619	666.000000
806.145264	657.600000
806.180847	660.300000
806.216431	657.200000
806.252014	661.400000
806.287659	663.100000
806.323181	667.500000
806.358826	660.700000
806.394409	634.900000
806.429993	641.800000
806.465576	659.200000
806.501160	645.600000
806.536743	636.900000
806.572327	652.200000
806.607910	642.400000
806.643494	639.300000
806.679077	632.100000
806.714661	633.200000
806.750244	632.000000
806.785828	626.500000
806.821350	626.000000
806.856934	634.300000
806.892517	627.200000
806.928101	618.100000
806.963684	622.400000
806.999268	631.000000
807.034790	615.400000
807.070374	619.300000
807.105896	607.500000
807.141479	601.600000
807.177063	613.600000
807.212585	608.100000
807.248169	606.500000
807.283752	612.700000
807.319275	606.800000
807.354858	607.000000
807.390381	602.000000
807.425903	596.100000
807.461487	595.900000
807.497070	590.300000
807.532593	593.200000
807.568115	591.800000
807.603699	583.600000
807.639221	578.400000
807.674744	580.800000
807.710266	589.300000
807.745850	590.000000
807.781372	578.900000
807.816895	575.900000
807.852417	580.400000
807.888000	574.800000
807.923523	568.200000
807.959045	576.200000
807.994629	564.900000
808.030090	562.800000
808.065613	571.300000
808.101135	570.300000
808.136658	566.200000
808.172241	563.900000
808.207764	560.600000
808.243225	558.100000
808.278809	555.500000
808.314270	560.700000
808.349792	543.900000
808.385315	545.600000
808.420837	552.700000
808.456360	558.600000
808.491882	559.000000
808.527344	552.400000
808.562866	563.100000
808.598389	554.900000
808.633850	546.400000
808.669434	539.900000
808.704895	549.400000
808.740417	552.800000
808.775940	544.000000
808.811462	539.500000
808.846924	532.900000
808.882385	527.100000
808.917847	531.800000
808.953369	535.000000
808.988892	529.800000
809.024353	537.700000
809.059875	533.300000
809.095398	530.200000
809.130798	520.800000
809.166321	521.100000
809.201843	521.300000
809.237305	524.600000
809.272766	528.200000
809.308228	516.200000
809.343750	513.100000
809.379211	512.900000
809.414734	515.300000
809.450134	523.300000
809.485657	504.000000
809.521118	512.000000
809.556580	508.700000
809.592102	506.400000
809.627502	504.900000
809.663025	501.500000
809.698486	496.800000
809.733887	493.700000
809.769409	498.100000
809.804871	488.200000
809.840271	490.000000
809.875793	493.600000
809.911194	495.200000
809.946655	484.800000
809.982178	484.000000
810.017639	487.600000
810.053040	485.500000
810.088501	481.000000
810.123901	481.000000
810.159424	479.300000
810.194885	470.500000
810.230286	476.300000
810.265747	470.700000
810.301208	465.900000
810.336609	468.500000
810.372070	459.600000
810.407532	462.500000
810.442932	466.600000
810.478394	466.400000
810.513794	461.300000
810.549255	459.500000
810.584717	456.300000
810.620117	448.100000
810.655518	454.200000
810.690979	451.500000
810.726379	450.500000
810.761841	436.900000
810.797302	439.400000
810.832642	436.600000
810.868103	449.500000
810.903564	435.200000
810.938904	440.900000
810.974365	429.700000
811.009827	435.500000
811.045166	429.300000
811.080627	419.800000
811.115967	425.500000
811.151428	435.600000
811.186829	424.000000
811.222229	426.500000
811.257629	419.000000
811.293091	425.700000
811.328430	433.700000
811.363892	425.000000
811.399292	427.700000
811.434631	423.200000
811.470093	427.300000
811.505493	417.700000
811.540833	418.400000
811.576294	423.700000
811.611694	414.800000
811.647034	413.300000
811.682434	417.300000
811.717773	414.400000
811.753235	419.200000
811.788635	410.800000
811.823975	410.700000
811.859375	418.300000
811.894775	403.800000
811.930115	406.100000
811.965515	405.100000
812.000916	409.600000
812.036255	402.000000
812.071655	408.300000
812.106995	399.900000
812.142395	399.700000
812.177795	408.000000
812.213196	403.400000
812.248474	401.700000
812.283875	395.700000
812.319214	395.500000
812.354614	398.200000
812.390015	393.800000
812.425293	393.300000
812.460693	393.000000
812.496094	389.000000
812.531433	381.800000
812.566772	383.900000
812.602173	386.800000
812.637451	387.200000
812.672852	379.400000
812.708191	382.100000
812.743530	376.300000
812.778931	368.300000
812.814270	372.700000
812.849609	379.200000
812.884949	371.800000
812.920227	365.400000
812.955627	382.700000
812.990967	373.300000
813.026306	367.500000
813.061646	355.700000
813.096985	354.600000
813.132324	349.600000
813.167664	353.000000
813.203003	359.700000
813.238281	345.400000
813.273682	347.800000
813.308960	343.200000
813.344299	346.700000
813.379639	354.300000
813.414978	348.700000
813.450256	344.700000
813.485596	350.900000
813.520874	338.400000
813.556213	341.800000
813.591614	346.100000
813.626831	336.500000
813.662170	343.000000
813.697510	350.700000
813.732788	334.700000
813.768127	339.300000
813.803467	338.300000
813.838745	335.100000
813.874084	337.500000
813.909363	335.100000
813.944641	337.300000
813.979980	324.500000
814.015320	330.200000
814.050598	325.900000
814.085876	330.700000
814.121155	328.200000
814.156494	326.300000
814.191772	325.500000
814.227051	321.200000
814.262390	322.700000
814.297668	322.600000
814.332947	322.200000
814.368225	316.100000
814.403564	317.500000
814.438782	315.200000
814.474121	319.400000
814.509338	314.300000
814.544617	322.100000
814.579956	311.300000
814.615173	319.700000
814.650513	318.700000
814.685791	310.200000
814.721008	313.500000
814.756348	310.200000
814.791626	306.800000
814.826843	307.800000
814.862122	307.700000
814.897400	304.100000
814.932678	305.800000
814.967957	307.300000
815.003235	305.400000
815.038452	300.600000
815.073730	301.300000
815.108948	310.700000
815.144226	306.100000
815.179504	309.000000
815.214722	295.800000
815.250000	294.200000
815.285278	302.500000
815.320496	293.700000
815.355774	297.200000
815.391052	300.400000
815.426270	295.800000
815.461487	296.100000
815.496765	288.800000
815.531982	285.400000
815.567261	290.300000
815.602539	300.100000
815.637695	294.600000
815.672974	294.500000
815.708191	292.900000
815.743408	295.300000
815.778687	287.400000
815.813904	297.100000
815.849121	280.600000
815.884399	280.700000
815.919556	281.300000
815.954834	281.300000
815.990051	283.600000
816.025269	288.200000
816.060486	275.800000
816.095703	278.100000
816.130920	279.200000
816.166199	275.500000
816.201416	278.800000
816.236572	281.400000
816.271851	273.400000
816.307007	279.900000
816.342224	267.800000
816.377441	271.600000
816.412659	263.300000
816.447876	274.900000
816.483093	268.800000
816.518250	270.100000
816.553467	265.700000
816.588745	272.500000
816.623901	263.400000
816.659119	257.300000
816.694275	262.400000
816.729492	260.100000
816.764709	294.800000
816.799927	256.300000
816.835083	260.500000
816.870300	255.500000
816.905457	256.700000
816.940674	261.200000
816.975830	254.700000
817.010986	251.500000
817.046204	253.100000
817.081421	250.900000
817.116577	248.100000
817.151733	259.300000
817.186951	257.700000
817.222107	253.900000
817.257324	256.800000
817.292419	253.100000
817.327637	245.600000
817.362854	251.400000
817.398010	244.900000
817.433167	245.400000
817.468323	245.200000
817.503479	246.800000
817.538635	254.600000
817.573853	247.800000
817.608948	246.700000
817.644165	241.200000
817.679321	240.700000
817.714478	238.000000
817.749634	243.300000
817.784790	254.900000
817.819946	248.300000
817.855103	231.200000
817.890198	240.100000
817.925415	231.200000
817.960571	241.500000
817.995667	237.500000
818.030823	241.100000
818.066040	234.400000
818.101135	237.100000
818.136292	234.700000
818.171448	231.600000
818.206543	234.000000
818.241699	238.100000
818.276855	234.900000
818.311951	232.900000
818.347107	228.800000
818.382263	234.700000
818.417358	238.800000
818.452515	239.800000
818.487610	240.500000
818.522766	228.100000
818.557922	238.300000
818.593018	232.000000
818.628113	233.500000
818.663269	226.500000
818.698364	229.800000
818.733521	227.500000
818.768677	232.400000
818.803711	222.400000
818.838867	225.100000
818.874023	227.100000
818.909058	224.000000
818.944214	219.900000
818.979370	227.600000
819.014404	226.700000
819.049561	220.500000
819.084595	225.200000
819.119751	215.700000
819.154846	224.400000
819.189941	220.700000
819.225037	216.200000
819.260193	212.100000
819.295227	214.100000
819.330322	210.600000
819.365479	210.400000
819.400513	243.400000
819.435608	207.600000
819.470764	207.900000
819.505798	211.200000
819.540894	212.600000
819.575989	210.500000
819.611084	219.600000
819.646179	218.400000
819.681213	214.900000
819.716309	210.900000
819.751404	209.700000
819.786438	214.800000
819.821533	206.100000
819.856628	210.400000
819.891663	213.700000
819.926758	221.500000
819.961853	216.100000
819.996887	206.100000
820.031982	212.600000
820.067017	207.600000
820.102112	237.600000
820.137207	205.700000
820.172302	221.700000
820.207275	203.600000
820.242371	204.200000
820.277405	203.700000
820.312500	205.200000
820.347534	210.200000
820.382568	212.500000
820.417664	202.700000
820.452759	204.300000
820.487732	200.800000
820.522827	203.500000
820.557861	201.700000
820.592896	203.500000
820.627930	203.400000
820.662964	202.100000
820.698059	205.200000
820.733093	202.600000
820.768127	208.000000
820.803162	203.500000
820.838196	200.500000
820.873230	202.900000
820.908264	204.200000
820.943298	200.600000
820.978333	206.800000
821.013367	204.700000
821.048401	208.000000
821.083435	207.900000
821.118469	194.600000
821.153503	206.200000
821.188477	203.100000
821.223511	194.900000
821.258484	201.600000
821.293579	203.000000
821.328613	194.100000
821.363647	199.600000
821.398621	194.800000
821.433655	197.600000
821.468628	212.900000
821.503662	199.500000
821.538696	203.200000
821.573669	193.500000
821.608704	203.000000
821.643677	196.200000
821.678650	202.900000
821.713684	207.900000
821.748718	198.900000
821.783691	198.600000
821.818726	200.800000
821.853638	201.900000
821.888672	199.300000
821.923706	199.100000
821.958618	196.000000
821.993652	196.900000
822.028687	204.100000
822.063599	205.100000
822.098633	200.100000
822.133667	195.200000
822.168579	199.400000
822.203613	200.800000
822.238586	195.400000
822.273560	199.400000
822.308533	195.300000
822.343567	194.600000
822.378479	196.700000
822.413452	197.800000
822.448425	194.600000
822.483398	201.700000
822.518372	203.000000
822.553345	195.400000
822.588318	206.200000
822.623291	195.600000
822.658203	194.900000
822.693237	196.300000
822.728210	193.400000
822.763123	199.600000
822.798096	192.600000
822.833069	197.100000
822.867981	195.800000
822.902954	198.200000
822.937927	199.300000
822.972900	209.100000
823.007874	189.200000
823.042725	201.400000
823.077698	208.300000
823.112671	194.000000
823.147583	194.300000
823.182556	199.000000
823.217529	201.500000
823.252441	193.700000
823.287415	208.500000
823.322388	198.900000
823.357239	195.900000
823.392212	204.700000
823.427185	199.100000
823.462097	193.400000
823.497009	199.500000
823.531982	194.400000
823.566895	195.000000
823.601807	192.800000
823.636719	194.500000
823.671631	200.700000
823.706604	193.100000
823.741455	198.900000
823.776428	191.500000
823.811340	201.500000
823.846252	204.200000
823.881165	204.300000
823.916138	198.300000
823.950989	204.900000
823.985901	194.000000
824.020813	198.500000
824.055725	193.400000
824.090637	191.900000
824.125610	199.100000
824.160461	198.700000
824.195374	198.900000
824.230225	201.300000
824.265198	189.100000
824.300110	195.000000
824.334961	208.000000
824.369873	187.300000
824.404785	199.400000
824.439636	203.200000
824.474548	188.700000
824.509460	185.400000
824.544312	201.100000
824.579224	198.800000
824.614075	198.800000
824.648987	193.700000
824.683899	194.300000
824.718811	191.000000
824.753662	201.700000
824.788574	199.500000
824.823364	196.600000
824.858276	190.900000
824.893188	199.200000
824.928040	199.200000
824.962952	197.300000
824.997803	198.100000
825.032654	196.700000
825.067566	196.700000
825.102417	191.800000
825.137268	192.900000
825.172119	195.000000
825.206970	192.100000
825.241882	193.200000
825.276733	188.300000
825.311646	191.000000
825.346436	187.700000
825.381348	188.600000
825.416138	195.100000
825.450989	188.600000
825.485901	183.700000
825.520691	185.400000
825.555542	187.100000
825.590454	192.600000
825.625244	184.500000
825.660095	198.800000
825.695007	196.200000
825.729797	191.000000
825.764648	187.900000
825.799438	191.400000
825.834290	191.000000
825.869202	184.300000
825.903992	193.400000
825.938843	189.200000
825.973694	186.000000
826.008484	202.500000
826.043335	187.500000
826.078186	181.100000
826.112976	197.600000
826.147827	195.800000
826.182678	198.900000
826.217468	182.900000
826.252319	193.300000
826.287109	185.500000
826.321899	197.900000
826.356750	188.800000
826.391541	183.500000
826.426392	193.100000
826.461182	188.400000
826.495972	182.200000
826.530823	179.100000
826.565613	189.400000
826.600403	182.700000
826.635254	191.400000
826.670044	180.700000
826.704834	180.500000
826.739685	183.200000
826.774475	189.800000
826.809265	188.300000
826.844055	185.400000
826.878906	193.900000
826.913635	188.700000
826.948425	189.800000
826.983215	189.500000
827.018005	192.400000
827.052856	185.500000
827.087585	190.400000
827.122375	180.200000
827.157227	187.200000
827.191956	198.200000
827.226746	184.100000
827.261536	191.800000
827.296265	182.400000
827.331116	184.500000
827.365906	191.600000
827.400635	182.900000
827.435425	180.500000
827.470215	192.200000
827.504944	186.000000
827.539734	192.500000
827.574463	187.500000
827.609253	194.800000
827.644043	187.800000
827.678772	192.900000
827.713562	185.000000
827.748352	185.500000
827.783081	186.500000
827.817871	188.700000
827.852600	184.600000
827.887329	187.600000
827.922119	178.300000
827.956848	190.600000
827.991638	200.100000
828.026367	188.600000
828.061157	188.600000
828.095886	188.200000
828.130615	202.300000
828.165344	177.900000
828.200073	187.600000
828.234863	185.300000
828.269592	187.400000
828.304321	192.100000
828.339111	187.400000
828.373779	183.600000
828.408569	191.700000
828.443298	192.300000
828.477966	185.400000
828.512756	188.500000
828.547424	183.000000
828.582214	185.900000
828.616943	185.400000
828.651672	186.800000
828.686340	190.900000
828.721130	182.900000
828.755798	186.700000
828.790527	186.700000
828.825256	188.100000
828.859924	188.000000
828.894714	192.300000
828.929443	195.100000
828.964111	182.200000
828.998840	190.800000
829.033569	183.700000
829.068237	185.500000
829.102966	183.300000
829.137634	188.600000
829.172363	187.300000
829.207092	188.300000
829.241821	184.100000
829.276489	180.100000
829.311157	187.500000
829.345825	186.500000
829.380554	190.800000
829.415283	183.500000
829.449951	180.900000
829.484619	195.700000
829.519348	194.000000
829.554016	187.200000
829.588745	186.800000
829.623413	181.300000
829.658081	198.900000
829.692749	182.700000
829.727417	192.000000
829.762146	188.400000
829.796814	182.300000
829.831482	186.200000
829.866150	189.300000
829.900879	184.400000
829.935486	190.900000
829.970154	184.800000
830.004883	199.000000
830.039490	187.200000
830.074219	182.500000
830.108887	187.600000
830.143494	186.600000
830.178223	181.800000
830.212891	185.500000
830.247498	187.200000
830.282166	194.100000
830.316772	192.400000
830.351501	185.000000
830.386169	186.000000
830.420776	185.800000
830.455444	186.000000
830.490112	183.900000
830.524719	178.200000
830.559387	188.900000
830.594055	188.900000
830.628662	187.300000
830.663330	186.600000
830.697998	196.700000
830.732605	185.600000
830.767273	188.800000
830.801941	184.900000
830.836487	194.700000
830.871155	188.000000
830.905762	190.000000
830.940430	179.700000
830.975098	183.400000
831.009644	188.000000
831.044312	195.600000
831.078979	188.700000
831.113525	180.100000
831.148193	186.100000
831.182861	186.500000
831.217407	189.200000
831.252075	202.200000
831.286621	185.800000
831.321289	184.200000
831.355896	187.000000
831.390564	194.200000
831.425110	188.100000
831.459778	194.600000
831.494324	199.400000
831.528931	189.400000
831.563599	192.400000
831.598145	181.100000
831.632751	186.000000
831.667419	185.400000
831.701965	190.500000
831.736572	189.400000
831.771179	181.300000
831.805786	184.200000
831.840393	193.500000
831.874939	179.900000
831.909546	191.100000
831.944153	179.000000
831.978760	186.200000
832.013306	181.900000
832.047913	192.800000
832.082458	194.300000
832.117065	183.800000
832.151672	194.700000
832.186218	187.600000
832.220825	188.400000
832.255432	177.400000
832.289978	184.200000
832.324585	188.900000
832.359192	189.200000
832.393677	184.900000
832.428284	186.900000
832.462830	184.400000
832.497437	183.900000
832.531982	191.700000
832.566589	184.400000
832.601135	188.900000
832.635681	179.600000
832.670227	187.200000
832.704773	194.300000
832.739380	189.400000
832.773926	187.700000
832.808472	182.700000
832.843079	186.900000
832.877563	188.900000
832.912170	184.400000
832.946716	179.000000
832.981201	193.000000
833.015808	189.900000
833.050293	186.400000
833.084839	183.800000
833.119446	184.700000
833.153992	192.200000
833.188477	186.300000
833.223022	184.200000
833.257568	188.500000
833.292114	194.200000
833.326660	198.800000
833.361145	184.800000
833.395691	179.900000
833.430237	186.100000
833.464783	191.000000
833.499329	183.800000
833.533875	182.500000
833.568359	191.300000
833.602905	191.600000
833.637390	192.200000
833.671875	184.800000
833.706421	185.900000
833.740906	183.500000
833.775452	176.200000
833.809998	184.100000
833.844482	193.500000
833.879028	186.100000
833.913513	185.100000
833.947998	189.000000
833.982544	181.700000
834.017090	182.800000
834.051514	176.700000
834.086060	190.000000
834.120544	186.500000
834.155029	188.600000
834.189575	183.100000
834.223999	188.500000
834.258545	187.800000
834.293030	188.500000
834.327515	186.400000
834.362000	183.300000
834.396545	190.600000
834.430969	186.700000
834.465454	189.900000
834.500000	180.200000
834.534424	189.000000
834.568970	177.200000
834.603455	179.600000
834.637878	184.300000
834.672363	187.300000
834.706909	187.500000
834.741333	187.200000
834.775818	180.100000
834.810242	182.100000
834.844727	187.800000
834.879211	185.000000
834.913635	188.700000
834.948181	188.400000
834.982666	188.300000
835.017090	186.100000
835.051575	189.000000
835.086060	183.800000
835.120483	191.700000
835.154907	190.300000
835.189331	185.700000
835.223816	189.800000
835.258301	181.500000
835.292786	182.600000
835.327209	191.800000
835.361694	184.200000
835.396057	184.200000
835.430542	190.700000
835.465027	187.400000
835.499390	181.900000
835.533875	207.000000
835.568359	184.700000
835.602722	180.000000
835.637207	189.300000
835.671692	180.400000
835.706055	203.200000
835.740540	187.000000
835.774902	190.700000
835.809387	188.100000
835.843811	180.100000
835.878235	194.600000
835.912659	180.400000
835.947083	182.800000
835.981506	186.000000
836.015930	179.200000
836.050354	191.300000
836.084778	195.800000
836.119202	191.600000
836.153625	199.600000
836.187988	184.200000
836.222473	182.100000
836.256897	188.700000
836.291260	185.900000
836.325684	189.700000
836.360046	184.800000
836.394470	186.700000
836.428894	193.200000
836.463318	184.100000
836.497681	191.000000
836.532104	194.700000
836.566467	189.500000
836.600891	187.100000
836.635315	191.000000
836.669678	190.200000
836.704102	191.400000
836.738525	190.200000
836.772888	179.000000
836.807251	185.800000
836.841675	189.900000
836.876038	181.300000
836.910461	184.100000
836.944763	190.900000
836.979187	184.400000
837.013611	191.300000
837.047974	180.000000
837.082336	199.300000
837.116699	190.300000
837.151062	187.900000
837.185486	180.100000
837.219849	185.000000
837.254211	189.400000
837.288574	185.900000
837.322937	182.000000
837.357300	174.000000
837.391663	199.600000
837.426086	191.900000
837.460388	187.900000
837.494751	191.000000
837.529114	185.700000
837.563477	193.500000
837.597839	187.200000
837.632141	186.000000
837.666565	183.500000
837.700928	189.900000
837.735229	189.600000
837.769592	189.900000
837.803955	190.800000
837.838257	184.700000
837.872620	183.400000
837.906982	194.400000
837.941284	187.200000
837.975647	187.000000
838.010010	194.400000
838.044312	185.600000
838.078674	185.500000
838.112976	186.900000
838.147339	192.200000
838.181702	186.200000
838.216003	196.400000
838.250366	189.600000
838.284668	190.300000
838.318970	179.900000
838.353333	187.600000
838.387634	186.800000
838.421936	188.500000
838.456299	189.900000
838.490601	196.600000
838.524902	190.300000
838.559265	192.900000
838.593567	190.600000
838.627869	183.500000
838.662170	190.600000
838.696472	181.300000
838.730774	183.500000
838.765137	191.900000
838.799377	173.100000
838.833740	188.500000
838.868042	193.700000
838.902283	180.200000
838.936646	194.000000
838.970947	187.500000
839.005188	192.400000
839.039551	181.000000
839.073792	193.500000
839.108093	183.900000
839.142395	196.000000
839.176697	181.100000
839.210937	188.000000
839.245300	197.800000
839.279541	179.900000
839.313843	184.500000
839.348145	190.200000
839.382385	191.700000
839.416687	191.800000
839.450989	189.200000
839.485229	186.100000
839.519531	181.500000
839.553833	192.000000
839.588013	187.700000
839.622314	187.800000
839.656555	188.900000
839.690857	188.100000
839.725159	179.900000
839.759460	186.400000
839.793640	184.200000
839.827942	186.500000
839.862183	182.800000
839.896423	189.100000
839.930725	197.200000
839.964966	196.300000
839.999207	193.700000
840.033508	194.400000
840.067688	185.700000
840.101990	196.600000
840.136230	187.500000
840.170471	195.800000
840.204712	183.400000
840.238953	184.200000
840.273193	188.400000
840.307434	191.800000
840.341736	183.900000
840.375916	180.600000
840.410217	185.700000
840.444397	192.700000
840.478638	190.700000
840.512878	193.500000
840.547119	188.600000
840.581360	190.600000
840.615601	197.500000
840.649780	197.700000
840.684021	187.500000
840.718262	195.900000
840.752441	192.700000
840.786682	188.600000
840.820862	190.600000
840.855103	195.300000
840.889343	188.300000
840.923584	193.100000
840.957764	190.900000
840.992004	189.100000
841.026184	201.400000
841.060425	185.700000
841.094666	185.100000
841.128845	192.000000
841.163025	189.000000
841.197266	191.000000
841.231445	188.300000
841.265686	189.400000
841.299866	184.600000
841.334045	195.900000
841.368286	188.000000
841.402405	195.700000
841.436646	193.200000
841.470825	185.400000
841.505005	186.800000
841.539185	182.600000
841.573425	184.700000
841.607544	187.500000
841.641785	188.600000
841.675964	183.100000
841.710144	188.100000
841.744324	186.000000
841.778503	187.100000
841.812683	184.300000
841.846863	196.800000
841.881042	195.300000
841.915222	186.700000
841.949402	202.200000
841.983521	179.400000
842.017700	187.900000
842.051880	190.400000
842.086060	190.500000
842.120239	188.900000
842.154419	185.600000
842.188538	190.200000
842.222717	184.300000
842.256897	198.100000
842.291016	185.200000
842.325195	190.100000
842.359375	198.800000
842.393494	196.100000
842.427673	187.600000
842.461853	190.400000
842.495911	195.900000
842.530090	189.400000
842.564209	188.300000
842.598389	189.900000
842.632568	188.200000
842.666626	190.200000
842.700806	185.300000
842.734985	186.700000
842.769043	190.400000
842.803223	186.500000
842.837402	185.100000
842.871460	185.400000
842.905640	196.900000
842.939697	184.000000
842.973877	189.800000
843.007996	193.800000
843.042175	197.200000
843.076233	185.500000
843.110413	189.300000
843.144470	195.100000
843.178589	191.000000
843.212769	184.700000
843.246826	191.800000
843.280945	186.000000
843.315125	186.400000
843.349182	184.300000
843.383301	194.700000
843.417419	200.200000
843.451538	187.400000
843.485657	186.300000
843.519714	188.900000
843.553833	189.800000
843.587952	186.800000
843.622070	184.400000
843.656128	192.600000
843.690247	185.900000
843.724304	187.300000
843.758423	190.600000
843.792542	186.400000
843.826599	188.000000
843.860718	185.900000
843.894836	182.400000
843.928894	188.800000
843.963013	192.000000
843.997070	185.800000
844.031128	181.000000
844.065247	193.400000
844.099304	192.900000
844.133362	189.300000
844.167480	190.800000
844.201599	193.900000
844.235596	190.500000
844.269714	189.900000
844.303711	189.700000
844.337830	180.200000
844.371948	191.600000
844.405945	187.600000
844.440063	182.900000
844.474121	201.100000
844.508118	187.900000
844.542236	187.600000
844.576294	187.100000
844.610352	181.800000
844.644409	187.100000
844.678406	179.100000
844.712524	193.400000
844.746582	194.200000
844.780640	188.600000
844.814636	189.000000
844.848755	198.000000
844.882751	187.000000
844.916809	195.000000
844.950867	189.600000
844.984863	197.100000
845.018921	186.900000
845.052979	184.800000
845.086975	189.500000
845.121033	183.700000
845.155090	183.700000
845.189087	195.400000
845.223145	186.000000
845.257141	190.000000
845.291199	192.700000
845.325256	196.600000
845.359253	190.900000
845.393250	199.900000
845.427307	186.900000
845.461304	191.300000
845.495361	188.600000
845.529358	199.600000
845.563354	186.200000
845.597412	184.700000
845.631409	196.600000
845.665405	196.000000
845.699463	194.600000
845.733459	185.100000
845.767456	196.200000
845.801453	187.400000
845.835449	196.100000
845.869446	192.000000
845.903503	193.600000
845.937439	184.700000
845.971497	195.700000
846.005493	181.200000
846.039429	192.300000
846.073486	198.300000
846.107483	187.000000
846.141418	187.600000
846.175476	188.200000
846.209473	195.100000
846.243408	185.000000
846.277405	188.200000
846.311401	183.600000
846.345337	189.000000
846.379395	194.100000
846.413330	184.500000
846.447327	197.800000
846.481323	183.900000
846.515259	185.600000
846.549255	188.500000
846.583252	189.500000
846.617187	181.700000
846.651184	191.800000
846.685120	184.700000
846.719055	197.000000
846.753052	193.600000
846.786987	192.700000
846.820984	182.400000
846.854980	195.300000
846.888916	184.000000
846.922852	191.500000
846.956848	197.100000
846.990723	184.700000
847.024719	189.800000
847.058716	188.200000
847.092590	195.800000
847.126587	190.600000
847.160522	187.000000
847.194458	194.700000
847.228455	186.700000
847.262390	184.000000
847.296265	186.200000
847.330261	194.700000
847.364136	187.700000
847.398132	186.800000
847.432068	189.700000
847.466003	188.000000
847.499939	189.300000
847.533875	191.200000
847.567749	187.100000
847.601746	188.800000
847.635681	192.500000
847.669556	181.400000
847.703491	194.400000
847.737427	203.000000
847.771301	184.800000
847.805237	191.200000
847.839233	189.400000
847.873108	188.400000
847.907043	187.200000
847.940918	195.900000
847.974854	189.800000
848.008789	193.100000
848.042664	189.100000
848.076538	191.300000
848.110474	189.700000
848.144348	190.100000
848.178284	182.700000
848.212219	189.700000
848.246094	186.600000
848.279968	189.300000
848.313904	193.200000
848.347778	189.400000
848.381653	187.900000
848.415588	184.300000
848.449463	187.100000
848.483337	191.100000
848.517212	195.200000
848.551086	189.000000
848.585022	185.500000
848.618835	197.000000
848.652771	187.000000
848.686646	183.500000
848.720520	196.600000
848.754395	187.600000
848.788330	194.900000
848.822144	192.100000
848.856018	188.500000
848.889954	198.400000
848.923767	185.100000
848.957642	185.400000
848.991577	193.900000
849.025391	185.600000
849.059265	188.400000
849.093079	185.400000
849.126953	183.300000
849.160828	194.600000
849.194641	191.400000
849.228577	186.500000
849.262451	187.500000
849.296265	187.600000
849.330139	183.400000
849.364014	189.400000
849.397827	192.700000
849.431702	189.300000
849.465515	194.500000
849.499329	180.800000
849.533203	184.000000
849.567078	179.900000
849.600891	192.000000
849.634766	189.100000
849.668518	192.500000
849.702393	189.300000
849.736267	180.500000
849.770020	200.400000
849.803894	191.500000
849.837769	188.300000
849.871521	188.500000
849.905396	194.100000
849.939270	183.700000
849.973022	186.600000
850.006897	192.900000
850.040710	191.700000
850.074524	191.000000
850.108337	188.900000
850.142151	192.000000
850.175964	195.100000
850.209778	187.100000
850.243530	176.600000
850.277405	192.900000
850.311218	189.700000
850.344971	187.000000
850.378845	198.900000
850.412659	185.400000
850.446411	190.100000
850.480225	188.400000
850.514038	194.400000
850.547791	193.900000
850.581665	189.900000
850.615417	185.900000
850.649231	191.500000
850.683044	188.700000
850.716858	188.500000
850.750610	190.200000
850.784424	194.100000
850.818176	186.500000
850.851929	188.200000
850.885742	186.200000
850.919495	187.200000
850.953308	195.500000
850.987122	198.400000
851.020874	184.900000
851.054626	182.300000
851.088440	191.700000
851.122192	193.400000
851.156006	190.200000
851.189697	188.500000
851.223511	184.400000
851.257263	194.000000
851.291077	192.000000
851.324829	188.700000
851.358582	186.600000
851.392334	187.700000
851.426086	186.500000
851.459900	197.300000
851.493591	189.100000
851.527344	188.300000
851.561157	188.600000
851.594849	190.700000
851.628662	190.900000
851.662415	197.400000
851.696106	190.700000
851.729858	194.800000
851.763611	183.900000
851.797363	188.900000
851.831116	184.800000
851.864868	191.700000
851.898560	192.600000
851.932312	185.800000
851.966064	191.300000
851.999817	188.200000
852.033569	188.800000
852.067261	191.700000
852.101013	185.900000
852.134766	189.300000
852.168457	179.700000
852.202209	193.000000
852.235901	185.300000
852.269592	191.100000
852.303345	197.900000
852.337036	193.100000
852.370789	190.800000
852.404541	193.000000
852.438171	185.200000
852.471924	188.700000
852.505676	183.300000
852.539307	191.400000
852.573059	185.800000
852.606812	187.400000
852.640442	188.900000
852.674194	194.000000
852.707886	198.300000
852.741577	197.400000
852.775269	184.900000
852.809021	190.100000
852.842651	192.500000
852.876404	195.200000
852.910034	190.800000
852.943787	195.300000
852.977478	192.800000
853.011108	185.500000
853.044861	184.900000
853.078552	196.300000
853.112183	191.100000
853.145874	192.100000
853.179626	179.500000
853.213257	190.300000
853.246948	186.900000
853.280640	197.600000
853.314270	187.800000
853.347961	195.000000
853.381653	192.600000
853.415283	193.900000
853.448975	185.400000
853.482605	190.400000
853.516296	187.900000
853.549988	184.100000
853.583618	191.600000
853.617310	190.100000
853.651001	188.600000
853.684631	184.600000
853.718323	185.300000
853.751953	196.100000
853.785583	180.100000
853.819275	193.600000
853.852966	191.500000
853.886536	181.300000
853.920227	183.000000
853.953918	194.900000
853.987488	187.500000
854.021179	193.500000
854.054749	195.100000
854.088440	191.700000
854.122131	185.200000
854.155701	192.800000
854.189331	185.000000
854.223022	191.900000
854.256592	191.300000
854.290283	187.200000
854.323914	192.000000
854.357483	190.400000
854.391174	192.100000
854.424744	197.300000
854.458374	190.700000
854.492065	201.000000
854.525696	188.600000
854.559265	195.800000
854.592896	201.500000
854.626465	189.200000
854.660095	191.500000
854.693787	190.900000
854.727356	187.400000
854.760986	193.100000
854.794617	191.700000
854.828186	187.600000
854.861816	191.900000
854.895447	190.600000
854.929016	191.600000
854.962585	190.200000
854.996155	196.700000
855.029785	191.500000
855.063416	191.700000
855.097046	193.800000
855.130615	184.100000
855.164185	194.900000
855.197754	189.200000
855.231384	191.500000
855.264954	188.200000
855.298523	192.400000
855.332153	190.500000
855.365723	196.700000
855.399292	186.200000
855.432922	187.800000
855.466492	193.500000
855.500061	185.400000
855.533630	187.200000
855.567200	192.600000
855.600769	193.600000
855.634338	193.600000
855.667969	190.600000
855.701477	185.300000
855.735046	186.000000
855.768616	180.100000
855.802185	191.000000
855.835754	203.300000
855.869324	182.100000
855.902893	188.100000
855.936401	195.900000
855.969971	190.400000
856.003540	184.500000
856.037109	194.200000
856.070618	190.300000
856.104187	183.800000
856.137695	185.600000
856.171265	181.300000
856.204834	189.300000
856.238403	195.300000
856.271912	187.400000
856.305481	191.600000
856.338989	182.800000
856.372559	193.800000
856.406128	189.700000
856.439636	194.000000
856.473145	187.000000
856.506653	197.400000
856.540222	189.000000
856.573792	195.500000
856.607300	193.000000
856.640808	184.000000
856.674377	189.400000
856.707825	219.000000
856.741394	193.000000
856.774902	184.200000
856.808472	180.100000
856.841980	192.200000
856.875488	197.300000
856.908936	181.100000
856.942505	186.600000
856.976013	188.300000
857.009521	184.500000
857.043030	189.800000
857.076477	187.500000
857.110046	194.900000
857.143555	189.000000
857.177063	195.300000
857.210571	186.700000
857.244080	183.000000
857.277527	192.800000
857.311035	189.500000
857.344543	193.200000
857.378052	188.300000
857.411499	195.200000
857.445068	199.800000
857.478516	189.000000
857.512024	185.000000
857.545532	188.500000
857.578979	192.100000
857.612427	189.400000
857.645874	187.000000
857.679382	191.300000
857.712891	194.200000
857.746399	189.300000
857.779846	194.000000
857.813354	193.800000
857.846741	190.200000
857.880249	185.700000
857.913757	190.500000
857.947266	191.100000
857.980652	191.700000
858.014160	186.600000
858.047546	188.500000
858.081055	188.000000
858.114563	198.500000
858.147949	183.600000
858.181458	192.500000
858.214844	189.400000
858.248352	182.200000
858.281799	193.900000
858.315308	203.000000
858.348694	192.000000
858.382141	198.600000
858.415588	192.700000
858.449036	193.600000
858.482483	191.500000
858.515930	185.400000
858.549377	189.700000
858.582825	196.200000
858.616211	192.200000
858.649658	191.100000
858.683105	184.200000
858.716553	187.100000
858.750000	183.800000
858.783386	187.400000
858.816833	182.800000
858.850281	190.500000
858.883728	191.500000
858.917114	188.600000
858.950562	199.300000
858.983948	197.300000
859.017395	194.200000
859.050781	187.400000
859.084167	185.700000
859.117615	182.600000
859.151062	193.000000
859.184448	186.700000
859.217834	188.900000
859.251282	188.400000
859.284668	185.100000
859.318054	180.800000
859.351440	187.000000
859.384888	197.200000
859.418274	182.600000
859.451721	181.500000
859.485046	192.600000
859.518494	190.900000
859.551819	186.000000
859.585266	190.500000
859.618652	192.700000
859.652039	182.700000
859.685425	184.500000
859.718811	183.100000
859.752197	177.600000
859.785583	196.900000
859.819031	196.400000
859.852356	193.400000
859.885742	186.200000
859.919067	188.600000
859.952454	187.300000
859.985901	194.300000
860.019287	187.200000
860.052612	0.000000
860.085999	0.000000
860.119324	0.000000
860.152710	0.000000
860.186096	0.000000
860.219421	0.000000
860.252808	0.000000
860.286133	0.000000
860.319519	0.000000
860.352905	0.000000
860.386292	0.000000
860.419617	0.000000
860.452942	0.000000
860.486267	0.000000
860.519653	0.000000
860.553040	0.000000
860.586365	0.000000
860.619690	0.000000
860.653076	0.000000
860.686340	0.000000
860.719727	0.000000
860.753113	0.000000
860.786377	0.000000
860.819763	0.000000
860.853027	0.000000
860.886414	0.000000
860.919739	0.000000
860.953125	0.000000
860.986389	0.000000
861.019714	0.000000
861.053040	0.000000
861.086365	0.000000
861.119690	0.000000
861.153076	0.000000
861.186340	0.000000
861.219666	0.000000
861.252930	0.000000
861.286316	0.000000
861.319641	0.000000
861.352905	0.000000
861.386230	0.000000
861.419495	0.000000
861.452820	0.000000
861.486145	0.000000
861.519470	0.000000
861.552734	0.000000
861.586060	0.000000
861.619324	0.000000
861.652649	0.000000
861.685974	0.000000
861.719238	0.000000
861.752563	0.000000
861.785828	0.000000
861.819092	0.000000
861.852417	0.000000
861.885742	0.000000
861.918945	0.000000
861.952271	0.000000
861.985535	0.000000
862.018799	0.000000
862.052124	0.000000
862.085449	0.000000
862.118652	0.000000
862.151978	0.000000
862.185181	0.000000
862.218506	0.000000
862.251770	0.000000
862.285034	0.000000
862.318298	0.000000
862.351562	0.000000
862.384827	0.000000
862.418091	0.000000
862.451355	0.000000
862.484619	0.000000
862.517883	0.000000
862.551086	0.000000
862.584351	0.000000
862.617676	0.000000
862.650940	0.000000
862.684143	0.000000
862.717407	0.000000
862.750610	0.000000
862.783875	0.000000
862.817139	0.000000
862.850342	0.000000
862.883606	0.000000
862.916870	0.000000
862.950073	0.000000
862.983337	0.000000
863.016602	0.000000
863.049805	0.000000
863.083069	0.000000
863.116211	0.000000
863.149475	0.000000
863.182739	0.000000
863.216003	0.000000
863.249146	0.000000
863.282410	0.000000
863.315613	0.000000
863.348816	0.000000
863.382080	0.000000
863.415222	0.000000
863.448486	0.000000
863.481689	0.000000
863.514893	0.000000
863.548157	0.000000
863.581360	0.000000
863.614502	0.000000
863.647766	0.000000
863.680908	0.000000
863.714172	0.000000
863.747375	0.000000
863.780579	0.000000
863.813721	0.000000
863.846985	0.000000
863.880127	0.000000
863.913330	0.000000
863.946533	0.000000
863.979675	0.000000
864.012939	0.000000
