Model Number: SPM-001-M   
Serial Number: 10090201
Firmware Version: 004.17.6
Exposure Time: 500000.000000us
Data Taken on: 03-03-2021 10:45:43.649
Wavelength	Amplitude
733.770752	0.000000
733.808716	0.000000
733.846619	0.000000
733.884583	0.000000
733.922546	0.000000
733.960449	0.000000
733.998413	0.000000
734.036377	0.000000
734.074219	0.000000
734.112183	0.000000
734.150085	0.000000
734.188049	0.000000
734.226013	0.000000
734.263916	0.000000
734.301819	0.000000
734.339783	0.000000
734.377686	0.000000
734.415588	0.000000
734.453552	0.000000
734.491455	0.000000
734.529419	0.000000
734.567322	0.000000
734.605225	0.000000
734.643127	0.000000
734.681091	0.000000
734.718994	0.000000
734.756897	0.000000
734.794800	0.000000
734.832703	0.000000
734.870667	0.000000
734.908508	0.000000
734.946472	0.000000
734.984375	0.000000
735.022278	0.000000
735.060181	0.000000
735.098083	0.000000
735.135986	0.000000
735.173889	0.000000
735.211792	0.000000
735.249695	0.000000
735.287598	0.000000
735.325439	0.000000
735.363403	0.000000
735.401306	0.000000
735.439148	0.000000
735.477051	0.000000
735.515015	0.000000
735.552856	0.000000
735.590759	0.000000
735.628662	0.000000
735.666504	0.000000
735.704407	0.000000
735.742310	0.000000
735.780212	0.000000
735.818115	0.000000
735.856018	0.000000
735.893860	0.000000
735.931763	0.000000
735.969604	0.000000
736.007507	0.000000
736.045410	0.000000
736.083252	0.000000
736.121094	0.000000
736.158997	0.000000
736.196838	0.000000
736.234741	0.000000
736.272644	0.000000
736.310486	0.000000
736.348389	0.000000
736.386230	0.000000
736.424072	0.000000
736.461975	0.000000
736.499878	0.000000
736.537720	0.000000
736.575562	0.000000
736.613403	0.000000
736.651306	0.000000
736.689148	0.000000
736.726990	0.000000
736.764893	0.000000
736.802734	0.000000
736.840576	0.000000
736.878418	0.000000
736.916321	0.000000
736.954102	0.000000
736.992004	0.000000
737.029846	0.000000
737.067688	0.000000
737.105530	0.000000
737.143372	0.000000
737.181213	0.000000
737.219116	0.000000
737.256897	0.000000
737.294739	0.000000
737.332642	0.000000
737.370422	0.000000
737.408325	0.000000
737.446167	0.000000
737.483948	0.000000
737.521790	0.000000
737.559692	0.000000
737.597473	0.000000
737.635315	0.000000
737.673157	0.000000
737.710999	0.000000
737.748840	0.000000
737.786621	0.000000
737.824463	0.000000
737.862305	0.000000
737.900085	0.000000
737.937927	0.000000
737.975769	0.000000
738.013550	0.000000
738.051392	0.000000
738.089233	0.000000
738.127014	0.000000
738.164856	0.000000
738.202698	0.000000
738.240479	0.000000
738.278320	0.000000
738.316162	0.000000
738.353943	0.000000
738.391785	0.000000
738.429565	0.000000
738.467407	0.000000
738.505188	0.000000
738.542969	0.000000
738.580811	0.000000
738.618652	0.000000
738.656372	0.000000
738.694214	0.000000
738.732056	0.000000
738.769836	0.000000
738.807617	0.000000
738.845459	0.000000
738.883240	0.000000
738.921021	0.000000
738.958862	0.000000
738.996582	0.000000
739.034424	0.000000
739.072205	0.000000
739.109985	0.000000
739.147827	0.000000
739.185547	0.000000
739.223389	0.000000
739.261169	0.000000
739.298889	0.000000
739.336731	0.000000
739.374512	0.000000
739.412292	0.000000
739.450073	0.000000
739.487854	0.000000
739.525635	0.000000
739.563416	0.000000
739.601135	0.000000
739.638977	0.000000
739.676758	0.000000
739.714478	0.000000
739.752258	0.000000
739.790100	0.000000
739.827820	0.000000
739.865601	0.000000
739.903381	0.000000
739.941101	0.000000
739.978882	191.200000
740.016724	187.500000
740.054443	190.600000
740.092224	185.300000
740.130005	184.400000
740.167725	185.500000
740.205505	182.400000
740.243225	194.000000
740.281006	188.600000
740.318787	180.700000
740.356506	193.200000
740.394287	193.400000
740.432068	183.100000
740.469727	180.700000
740.507507	190.000000
740.545288	187.400000
740.583008	189.800000
740.620789	188.700000
740.658569	179.500000
740.696228	187.500000
740.734009	193.100000
740.771790	177.100000
740.809509	191.100000
740.847229	182.400000
740.884949	184.700000
740.922729	180.800000
740.960449	184.500000
740.998169	182.800000
741.035950	182.800000
741.073669	189.400000
741.111389	186.900000
741.149170	197.300000
741.186890	196.700000
741.224609	191.600000
741.262329	188.100000
741.300110	198.400000
741.337769	182.100000
741.375549	182.800000
741.413208	188.700000
741.450989	184.100000
741.488708	185.000000
741.526367	185.500000
741.564148	190.600000
741.601868	193.100000
741.639526	187.200000
741.677307	189.700000
741.715027	189.600000
741.752686	182.500000
741.790466	193.200000
741.828186	190.800000
741.865845	183.500000
741.903564	180.300000
741.941345	187.700000
741.979004	183.900000
742.016724	191.200000
742.054382	187.100000
742.092102	193.900000
742.129822	181.000000
742.167480	185.900000
742.205200	185.200000
742.242920	190.000000
742.280640	191.300000
742.318359	183.600000
742.356079	184.800000
742.393738	191.000000
742.431396	185.400000
742.469116	192.400000
742.506775	178.100000
742.544495	190.900000
742.582214	189.900000
742.619873	187.900000
742.657593	194.300000
742.695251	191.200000
742.732971	187.200000
742.770630	189.200000
742.808289	187.000000
742.846008	187.200000
742.883728	189.900000
742.921326	187.700000
742.959045	185.300000
742.996765	187.000000
743.034424	186.000000
743.072083	185.900000
743.109802	186.700000
743.147400	181.500000
743.185120	188.200000
743.222839	187.800000
743.260437	193.500000
743.298157	190.100000
743.335754	180.100000
743.373474	187.400000
743.411133	180.700000
743.448792	188.400000
743.486450	188.300000
743.524170	180.300000
743.561768	186.500000
743.599487	193.600000
743.637146	198.900000
743.674744	186.500000
743.712463	185.100000
743.750122	188.200000
743.787720	190.200000
743.825439	183.400000
743.863037	187.000000
743.900696	187.200000
743.938416	212.800000
743.976013	185.300000
744.013672	197.000000
744.051331	193.500000
744.088928	198.000000
744.126587	192.100000
744.164307	189.800000
744.201904	184.100000
744.239563	191.100000
744.277222	190.000000
744.314819	187.400000
744.352478	193.600000
744.390137	189.200000
744.427734	189.300000
744.465393	185.900000
744.502991	184.000000
744.540649	190.100000
744.578308	187.400000
744.615906	182.300000
744.653564	177.600000
744.691223	190.900000
744.728821	180.600000
744.766418	188.800000
744.804077	190.900000
744.841675	186.300000
744.879333	182.000000
744.916992	188.000000
744.954529	184.900000
744.992187	193.500000
745.029785	185.300000
745.067444	185.000000
745.105042	188.800000
745.142639	189.400000
745.180298	197.300000
745.217896	186.500000
745.255493	186.500000
745.293152	192.200000
745.330750	191.300000
745.368347	196.700000
745.405945	191.700000
745.443604	189.200000
745.481140	192.600000
745.518799	188.200000
745.556396	192.200000
745.593994	191.800000
745.631592	187.400000
745.669189	183.100000
745.706787	189.400000
745.744385	185.200000
745.781982	192.100000
745.819580	185.100000
745.857178	187.100000
745.894775	188.100000
745.932373	189.300000
745.969971	188.300000
746.007568	179.800000
746.045166	197.200000
746.082764	192.800000
746.120300	189.800000
746.157898	190.200000
746.195557	186.900000
746.233093	181.700000
746.270691	190.700000
746.308228	189.400000
746.345825	191.300000
746.383423	191.000000
746.420959	182.400000
746.458557	183.300000
746.496155	186.100000
746.533691	188.100000
746.571289	183.000000
746.608887	188.200000
746.646423	188.000000
746.684021	188.300000
746.721619	185.300000
746.759155	190.200000
746.796753	181.000000
746.834351	182.000000
746.871826	184.400000
746.909424	195.200000
746.946960	190.800000
746.984558	186.500000
747.022156	186.100000
747.059631	195.300000
747.097229	188.700000
747.134827	187.100000
747.172363	195.500000
747.209900	192.000000
747.247498	183.400000
747.285034	194.700000
747.322571	195.600000
747.360168	187.300000
747.397644	180.500000
747.435242	191.800000
747.472778	195.200000
747.510315	185.600000
747.547913	185.000000
747.585388	194.000000
747.622925	188.200000
747.660522	179.300000
747.697998	185.900000
747.735596	185.700000
747.773132	185.800000
747.810669	187.900000
747.848206	190.600000
747.885742	183.000000
747.923279	182.800000
747.960815	188.500000
747.998352	190.000000
748.035889	191.900000
748.073425	192.100000
748.110901	184.900000
748.148437	183.500000
748.185974	186.400000
748.223511	198.500000
748.261047	188.700000
748.298584	191.200000
748.336060	185.700000
748.373596	190.500000
748.411133	205.700000
748.448608	183.600000
748.486145	190.700000
748.523682	196.900000
748.561218	194.300000
748.598755	188.900000
748.636292	190.800000
748.673706	185.900000
748.711243	194.400000
748.748718	190.300000
748.786255	187.500000
748.823792	189.400000
748.861267	183.400000
748.898804	190.700000
748.936340	191.100000
748.973816	186.600000
749.011292	194.000000
749.048828	189.500000
749.086304	191.400000
749.123840	199.000000
749.161316	183.500000
749.198792	198.100000
749.236328	194.400000
749.273743	188.400000
749.311279	186.900000
749.348816	191.800000
749.386230	189.100000
749.423767	176.700000
749.461304	192.500000
749.498718	188.700000
749.536255	196.100000
749.573730	199.900000
749.611206	195.000000
749.648682	185.900000
749.686218	188.300000
749.723633	192.000000
749.761169	186.200000
749.798645	182.800000
749.836060	186.200000
749.873596	183.800000
749.911011	189.100000
749.948547	193.900000
749.986023	187.600000
750.023437	186.700000
750.060913	182.300000
750.098450	179.700000
750.135864	187.500000
750.173340	186.600000
750.210815	193.000000
750.248291	180.100000
750.285767	188.700000
750.323242	192.700000
750.360657	191.100000
750.398132	183.200000
750.435608	192.100000
750.473022	184.000000
750.510498	183.000000
750.547974	184.700000
750.585449	184.600000
750.622925	177.000000
750.660339	198.600000
750.697815	188.100000
750.735291	187.800000
750.772644	188.700000
750.810120	189.800000
750.847595	190.200000
750.885010	184.600000
750.922485	196.200000
750.959961	187.600000
750.997375	194.400000
751.034851	192.300000
751.072266	193.700000
751.109680	181.800000
751.147156	193.500000
751.184570	191.600000
751.221985	189.500000
751.259460	179.200000
751.296875	189.100000
751.334290	188.300000
751.371765	193.800000
751.409180	191.400000
751.446594	195.900000
751.484070	191.000000
751.521423	189.600000
751.558899	190.100000
751.596375	196.400000
751.633728	194.400000
751.671204	200.900000
751.708618	184.100000
751.746033	189.700000
751.783447	182.000000
751.820801	185.200000
751.858276	191.700000
751.895691	188.500000
751.933105	184.800000
751.970520	183.100000
752.007935	184.800000
752.045349	192.800000
752.082764	188.100000
752.120178	187.300000
752.157532	183.200000
752.195007	186.200000
752.232422	191.600000
752.269775	193.300000
752.307190	190.900000
752.344543	184.200000
752.382019	185.300000
752.419434	186.900000
752.456787	190.500000
752.494202	193.000000
752.531616	189.000000
752.568970	192.200000
752.606384	189.300000
752.643799	190.500000
752.681152	195.600000
752.718567	193.100000
752.755981	180.800000
752.793335	192.700000
752.830750	179.300000
752.868164	194.700000
752.905518	183.900000
752.942932	192.100000
752.980225	183.900000
753.017639	192.700000
753.055054	187.200000
753.092407	190.500000
753.129822	192.600000
753.167175	198.100000
753.204529	189.000000
753.241943	185.700000
753.279358	182.000000
753.316650	192.500000
753.354065	191.800000
753.391479	193.400000
753.428772	196.500000
753.466187	191.400000
753.503479	182.600000
753.540894	186.400000
753.578308	183.000000
753.615601	183.600000
753.653015	189.000000
753.690369	185.900000
753.727722	183.100000
753.765076	179.900000
753.802490	182.900000
753.839783	179.700000
753.877136	186.300000
753.914551	202.600000
753.951843	184.000000
753.989258	190.100000
754.026611	188.800000
754.063904	187.700000
754.101257	182.900000
754.138611	179.900000
754.175964	187.300000
754.213318	197.900000
754.250610	181.500000
754.288025	185.300000
754.325378	182.200000
754.362671	193.900000
754.400024	186.800000
754.437378	196.900000
754.474670	199.800000
754.512085	185.300000
754.549438	189.600000
754.586731	186.300000
754.624084	188.800000
754.661438	183.900000
754.698730	197.200000
754.736084	185.900000
754.773376	187.500000
754.810730	191.300000
754.848083	186.000000
754.885315	191.000000
754.922668	180.800000
754.960022	182.500000
754.997314	192.400000
755.034668	188.200000
755.072021	188.100000
755.109253	185.500000
755.146606	194.800000
755.183960	184.600000
755.221252	195.500000
755.258545	193.100000
755.295898	194.200000
755.333191	194.600000
755.370544	190.400000
755.407776	187.400000
755.445129	187.700000
755.482422	193.200000
755.519714	185.000000
755.557068	181.200000
755.594360	180.500000
755.631653	191.300000
755.668945	196.100000
755.706299	189.800000
755.743530	199.200000
755.780884	195.200000
755.818176	192.700000
755.855408	192.900000
755.892761	190.100000
755.930054	189.600000
755.967346	188.200000
756.004639	192.000000
756.041870	188.200000
756.079224	193.000000
756.116516	183.600000
756.153748	192.400000
756.191040	195.900000
756.228394	191.700000
756.265625	185.400000
756.302917	190.500000
756.340210	186.100000
756.377441	194.700000
756.414795	195.900000
756.452087	188.800000
756.489319	183.200000
756.526611	192.500000
756.563843	190.200000
756.601135	199.100000
756.638428	197.100000
756.675659	188.600000
756.712952	193.400000
756.750244	193.400000
756.787476	191.500000
756.824768	196.000000
756.862061	187.600000
756.899292	236.600000
756.936584	193.800000
756.973816	200.300000
757.011047	202.500000
757.048340	191.500000
757.085632	190.300000
757.122864	205.300000
757.160156	187.400000
757.197327	193.400000
757.234619	195.600000
757.271912	189.000000
757.309082	195.700000
757.346375	187.400000
757.383667	197.900000
757.420837	192.200000
757.458130	193.100000
757.495422	189.800000
757.532593	192.400000
757.569885	184.500000
757.607117	187.200000
757.644348	191.900000
757.681580	204.500000
757.718811	180.200000
757.756042	191.300000
757.793335	187.500000
757.830505	195.100000
757.867798	187.500000
757.905029	188.700000
757.942200	194.100000
757.979492	188.200000
758.016724	191.800000
758.053894	190.300000
758.091187	209.700000
758.128418	194.800000
758.165588	192.600000
758.202820	204.600000
758.240112	190.900000
758.277283	204.100000
758.314514	193.400000
758.351685	190.700000
758.388916	202.400000
758.426147	200.600000
758.463379	203.400000
758.500610	197.200000
758.537842	194.900000
758.575012	201.100000
758.612244	190.500000
758.649475	209.100000
758.686646	187.700000
758.723877	201.000000
758.761108	203.100000
758.798279	194.800000
758.835510	197.900000
758.872742	201.800000
758.909851	197.600000
758.947083	198.800000
758.984253	197.100000
759.021484	201.000000
759.058716	199.600000
759.095886	200.200000
759.133057	196.000000
759.170288	200.200000
759.207458	193.800000
759.244690	207.700000
759.281860	206.300000
759.319031	195.500000
759.356262	195.000000
759.393433	194.000000
759.430603	196.400000
759.467773	195.700000
759.505005	204.100000
759.542175	202.700000
759.579346	196.300000
759.616516	198.500000
759.653687	202.900000
759.690918	195.200000
759.728027	200.700000
759.765259	199.900000
759.802429	202.900000
759.839539	201.700000
759.876770	206.100000
759.913940	209.700000
759.951111	203.200000
759.988281	199.900000
760.025452	199.300000
760.062561	196.400000
760.099792	210.400000
760.136963	205.100000
760.174072	201.000000
760.211243	196.200000
760.248413	198.400000
760.285583	197.700000
760.322754	212.600000
760.359863	207.600000
760.397034	209.300000
760.434204	200.500000
760.471375	203.100000
760.508545	201.600000
760.545715	200.700000
760.582825	198.200000
760.619995	207.100000
760.657166	195.800000
760.694275	209.000000
760.731445	204.500000
760.768555	206.000000
760.805664	208.400000
760.842834	204.500000
760.879944	206.700000
760.917114	204.400000
760.954285	202.200000
760.991394	198.700000
761.028564	209.100000
761.065674	205.900000
761.102783	199.300000
761.139954	207.500000
761.177124	208.600000
761.214172	209.700000
761.251343	203.900000
761.288452	203.400000
761.325562	209.500000
761.362732	200.300000
761.399841	204.700000
761.436951	205.300000
761.474121	201.200000
761.511169	204.300000
761.548340	210.300000
761.585449	209.600000
761.622559	210.300000
761.659668	206.500000
761.696838	212.400000
761.733887	207.600000
761.771057	203.800000
761.808167	206.200000
761.845276	212.600000
761.882385	217.700000
761.919434	208.800000
761.956604	227.800000
761.993713	204.900000
762.030762	215.200000
762.067871	209.300000
762.105042	208.100000
762.142090	216.000000
762.179199	210.700000
762.216309	214.900000
762.253418	225.200000
762.290527	220.600000
762.327637	215.100000
762.364685	206.400000
762.401794	214.100000
762.438904	215.800000
762.475952	209.400000
762.513062	206.400000
762.550110	209.000000
762.587219	223.600000
762.624329	220.500000
762.661377	215.900000
762.698486	214.000000
762.735596	213.800000
762.772644	208.900000
762.809753	206.000000
762.846863	213.800000
762.883911	217.800000
762.921021	217.900000
762.958069	213.200000
762.995117	222.400000
763.032227	222.500000
763.069336	214.200000
763.106323	210.200000
763.143433	209.700000
763.180481	216.300000
763.217590	218.900000
763.254639	213.400000
763.291687	217.100000
763.328735	223.600000
763.365845	216.200000
763.402893	215.400000
763.439941	217.700000
763.477051	220.200000
763.514038	220.700000
763.551147	215.000000
763.588196	221.100000
763.625244	219.500000
763.662292	225.200000
763.699402	228.200000
763.736389	224.000000
763.773499	229.800000
763.810486	224.900000
763.847534	221.700000
763.884644	223.300000
763.921631	219.900000
763.958679	231.000000
763.995728	221.500000
764.032776	231.600000
764.069824	219.000000
764.106873	228.800000
764.143860	232.400000
764.180969	222.500000
764.218018	230.200000
764.255005	222.200000
764.292053	224.500000
764.329102	234.500000
764.366089	234.500000
764.403137	232.100000
764.440125	224.200000
764.477173	226.500000
764.514221	230.400000
764.551208	228.000000
764.588257	224.300000
764.625305	232.000000
764.662292	238.100000
764.699341	241.300000
764.736389	232.300000
764.773376	246.700000
764.810425	233.700000
764.847473	241.300000
764.884399	236.400000
764.921448	245.300000
764.958435	243.800000
764.995483	233.700000
765.032532	251.600000
765.069458	235.400000
765.106506	235.300000
765.143555	234.000000
765.180481	240.100000
765.217529	247.500000
765.254578	233.600000
765.291504	240.800000
765.328552	239.500000
765.365540	235.800000
765.402527	251.200000
765.439575	237.900000
765.476501	234.700000
765.513550	236.600000
765.550537	242.200000
765.587463	248.800000
765.624512	240.800000
765.661499	232.900000
765.698486	249.100000
765.735474	238.200000
765.772461	242.900000
765.809448	249.400000
765.846436	247.900000
765.883423	250.500000
765.920410	248.100000
765.957397	241.600000
765.994385	247.800000
766.031311	256.000000
766.068359	249.900000
766.105286	249.700000
766.142273	254.900000
766.179260	252.000000
766.216187	245.700000
766.253174	242.400000
766.290161	249.900000
766.327148	253.200000
766.364136	253.400000
766.401123	269.200000
766.438049	247.500000
766.475037	261.400000
766.512024	255.200000
766.548950	269.600000
766.585937	263.400000
766.622864	258.400000
766.659790	256.300000
766.696777	247.200000
766.733704	260.600000
766.770691	253.500000
766.807678	266.000000
766.844604	262.200000
766.881531	259.300000
766.918518	265.700000
766.955444	266.300000
766.992432	259.900000
767.029358	262.100000
767.066284	268.400000
767.103271	261.400000
767.140198	294.200000
767.177124	278.800000
767.214050	267.000000
767.251038	268.800000
767.287964	265.600000
767.324890	263.200000
767.361816	268.900000
767.398743	272.300000
767.435730	266.300000
767.472595	270.900000
767.509583	278.000000
767.546509	262.100000
767.583374	271.200000
767.620361	262.500000
767.657288	269.700000
767.694214	268.900000
767.731140	269.000000
767.768066	270.200000
767.804993	276.400000
767.841919	267.000000
767.878845	272.400000
767.915710	280.800000
767.952698	273.000000
767.989563	276.700000
768.026489	278.000000
768.063416	272.000000
768.100281	270.100000
768.137207	282.400000
768.174133	279.900000
768.211060	280.300000
768.247986	278.700000
768.284912	278.300000
768.321777	278.400000
768.358704	275.000000
768.395630	278.000000
768.432495	274.200000
768.469421	279.800000
768.506348	285.200000
768.543152	290.800000
768.580078	287.900000
768.616943	288.100000
768.653870	288.600000
768.690796	287.200000
768.727661	284.100000
768.764587	287.300000
768.801453	280.000000
768.838318	290.200000
768.875244	289.400000
768.912109	295.800000
768.948975	286.700000
768.985901	288.400000
769.022766	287.700000
769.059631	293.800000
769.096558	286.800000
769.133362	286.300000
769.170288	289.600000
769.207214	289.000000
769.244019	294.000000
769.280945	294.600000
769.317810	300.700000
769.354675	296.900000
769.391541	307.000000
769.428406	300.400000
769.465271	307.600000
769.502136	296.800000
769.539062	301.800000
769.575867	302.600000
769.612732	304.700000
769.649597	307.700000
769.686462	310.300000
769.723328	304.400000
769.760193	306.100000
769.797058	306.700000
769.833923	313.500000
769.870728	308.400000
769.907593	313.300000
769.944519	311.200000
769.981323	317.200000
770.018188	314.300000
770.055054	312.000000
770.091858	311.000000
770.128723	321.300000
770.165588	328.400000
770.202393	312.200000
770.239258	323.500000
770.276062	320.700000
770.312927	320.600000
770.349792	328.100000
770.386597	325.900000
770.423462	332.900000
770.460327	342.000000
770.497131	325.100000
770.533997	321.400000
770.570862	334.200000
770.607605	336.200000
770.644470	333.700000
770.681335	334.700000
770.718140	334.800000
770.754944	326.400000
770.791809	328.500000
770.828613	331.300000
770.865479	330.900000
770.902222	343.500000
770.939087	335.200000
770.975952	329.300000
771.012695	332.000000
771.049561	350.700000
771.086365	337.300000
771.123169	335.600000
771.159973	339.800000
771.196838	339.900000
771.233582	343.500000
771.270447	344.500000
771.307251	346.700000
771.344055	347.000000
771.380859	349.700000
771.417664	345.300000
771.454468	353.200000
771.491272	354.400000
771.528076	353.400000
771.564880	350.900000
771.601685	360.500000
771.638428	349.900000
771.675293	358.200000
771.712097	345.000000
771.748840	363.500000
771.785645	354.500000
771.822449	360.000000
771.859253	361.800000
771.896057	358.000000
771.932861	368.700000
771.969604	361.000000
772.006409	354.100000
772.043213	368.200000
772.079956	365.300000
772.116760	357.700000
772.153503	360.900000
772.190308	375.100000
772.227112	364.200000
772.263855	358.800000
772.300659	363.600000
772.337463	371.300000
772.374207	360.800000
772.411011	359.600000
772.447754	360.800000
772.484497	380.600000
772.521301	368.100000
772.558105	369.500000
772.594849	370.700000
772.631592	376.400000
772.668396	371.100000
772.705139	378.000000
772.741882	374.000000
772.778625	385.000000
772.815430	386.500000
772.852173	383.100000
772.888916	388.700000
772.925720	388.700000
772.962463	395.500000
772.999207	390.500000
773.035950	394.500000
773.072754	392.600000
773.109436	388.500000
773.146240	393.200000
773.182922	391.100000
773.219727	400.300000
773.256470	395.100000
773.293152	384.100000
773.329956	390.700000
773.366699	395.700000
773.403381	385.200000
773.440186	395.900000
773.476929	399.800000
773.513611	392.900000
773.550354	391.700000
773.587158	394.200000
773.623840	387.100000
773.660583	395.500000
773.697327	406.200000
773.734009	400.700000
773.770813	394.800000
773.807495	393.100000
773.844238	395.800000
773.880981	410.900000
773.917664	405.600000
773.954407	413.500000
773.991150	404.700000
774.027832	408.500000
774.064575	402.600000
774.101318	409.800000
774.138000	413.200000
774.174744	406.100000
774.211487	409.500000
774.248108	398.400000
774.284851	401.200000
774.321594	407.700000
774.358276	409.300000
774.395020	415.800000
774.431702	414.000000
774.468384	406.100000
774.505127	404.300000
774.541809	411.400000
774.578491	419.900000
774.615234	424.400000
774.651917	411.400000
774.688599	417.200000
774.725342	425.700000
774.762024	422.800000
774.798706	428.800000
774.835449	424.900000
774.872070	435.500000
774.908813	431.300000
774.945496	427.000000
774.982178	428.400000
775.018860	430.800000
775.055542	433.200000
775.092224	433.300000
775.128967	442.200000
775.165588	440.600000
775.202271	433.400000
775.239014	445.700000
775.275635	439.700000
775.312317	440.900000
775.349060	446.100000
775.385681	446.600000
775.422363	436.200000
775.459045	445.800000
775.495667	446.900000
775.532410	451.800000
775.569092	453.900000
775.605713	453.900000
775.642395	451.500000
775.679016	455.600000
775.715698	456.300000
775.752380	459.700000
775.789001	455.300000
775.825684	458.700000
775.862366	458.500000
775.898987	471.100000
775.935669	460.200000
775.972351	482.200000
776.008972	477.400000
776.045654	475.400000
776.082336	470.900000
776.118958	473.200000
776.155640	476.900000
776.192322	481.000000
776.228882	483.000000
776.265564	489.300000
776.302185	482.700000
776.338867	489.500000
776.375488	478.500000
776.412109	489.400000
776.448792	493.600000
776.485413	503.400000
776.522034	496.200000
776.558716	492.200000
776.595337	492.900000
776.631958	500.600000
776.668579	503.100000
776.705261	507.700000
776.741882	502.100000
776.778503	502.900000
776.815186	500.900000
776.851746	506.500000
776.888367	508.000000
776.924988	516.800000
776.961609	507.100000
776.998291	505.800000
777.034851	502.400000
777.071472	513.600000
777.108154	511.200000
777.144714	526.500000
777.181335	523.600000
777.218018	511.600000
777.254578	522.100000
777.291199	521.300000
777.327759	524.200000
777.364380	535.300000
777.401062	537.800000
777.437622	548.500000
777.474243	540.000000
777.510864	542.400000
777.547424	539.300000
777.584045	540.500000
777.620667	543.000000
777.657227	546.000000
777.693848	546.200000
777.730469	562.400000
777.767029	548.600000
777.803650	555.300000
777.840271	551.400000
777.876831	552.600000
777.913452	559.800000
777.950012	546.800000
777.986633	548.100000
778.023193	545.900000
778.059753	543.900000
778.096375	543.900000
778.132996	560.000000
778.169556	548.400000
778.206116	547.900000
778.242737	545.500000
778.279297	551.500000
778.315857	546.100000
778.352478	551.300000
778.389038	563.700000
778.425598	559.700000
778.462219	568.700000
778.498718	562.500000
778.535339	569.400000
778.571838	572.300000
778.608459	576.500000
778.645020	569.400000
778.681580	577.400000
778.718140	574.300000
778.754761	571.600000
778.791260	574.300000
778.827881	583.000000
778.864441	580.700000
778.900940	585.200000
778.937561	582.700000
778.974121	580.700000
779.010620	570.100000
779.047241	577.400000
779.083801	585.300000
779.120300	585.700000
779.156860	587.100000
779.193359	579.900000
779.229980	580.000000
779.266541	586.500000
779.303040	590.000000
779.339600	583.300000
779.376160	576.600000
779.412659	579.500000
779.449219	575.500000
779.485779	582.500000
779.522278	577.700000
779.558838	585.800000
779.595398	585.800000
779.631897	584.100000
779.668457	577.900000
779.705017	587.600000
779.741516	578.900000
779.778076	575.100000
779.814575	580.900000
779.851074	585.600000
779.887634	582.400000
779.924133	592.300000
779.960693	580.200000
779.997253	593.500000
780.033691	595.000000
780.070251	595.600000
780.106812	606.500000
780.143250	606.600000
780.179810	596.800000
780.216370	598.600000
780.252808	601.700000
780.289368	611.000000
780.325867	609.700000
780.362366	605.900000
780.398865	619.400000
780.435364	609.500000
780.471863	622.100000
780.508423	621.300000
780.544861	624.900000
780.581421	624.600000
780.617920	614.500000
780.654419	609.800000
780.690918	620.000000
780.727417	626.300000
780.763916	622.600000
780.800415	632.800000
780.836914	620.300000
780.873352	630.600000
780.909912	622.900000
780.946411	627.500000
780.982849	635.900000
781.019348	648.700000
781.055786	639.500000
781.092346	635.900000
781.128845	642.300000
781.165283	649.200000
781.201782	660.000000
781.238281	664.100000
781.274719	664.300000
781.311218	661.000000
781.347717	672.200000
781.384155	657.700000
781.420654	659.100000
781.457092	668.300000
781.493591	663.600000
781.530090	661.700000
781.566528	662.500000
781.602966	663.000000
781.639465	657.300000
781.675903	658.700000
781.712402	665.500000
781.748901	672.800000
781.785278	664.900000
781.821777	673.100000
781.858276	668.900000
781.894714	684.400000
781.931152	679.900000
781.967651	691.900000
782.004089	683.200000
782.040527	691.700000
782.076965	693.100000
782.113403	693.400000
782.149902	697.500000
782.186340	692.200000
782.222778	708.100000
782.259277	695.200000
782.295654	695.400000
782.332092	707.000000
782.368591	708.400000
782.404968	702.100000
782.441467	708.200000
782.477905	710.100000
782.514282	703.800000
782.550781	719.300000
782.587219	714.600000
782.623596	727.400000
782.660095	729.500000
782.696472	735.900000
782.732910	735.700000
782.769348	738.400000
782.805786	758.800000
782.842224	757.900000
782.878662	750.700000
782.915039	749.200000
782.951477	747.800000
782.987915	743.800000
783.024292	757.400000
783.060730	760.400000
783.097168	749.600000
783.133545	742.600000
783.169983	736.100000
783.206421	733.300000
783.242798	731.900000
783.279236	722.000000
783.315613	719.000000
783.352051	714.900000
783.388489	713.000000
783.424866	705.200000
783.461304	713.700000
783.497681	726.400000
783.534058	718.900000
783.570496	713.000000
783.606934	713.800000
783.643250	719.900000
783.679687	729.100000
783.716125	719.600000
783.752441	729.400000
783.788879	747.900000
783.825317	755.500000
783.861633	760.400000
783.898071	768.700000
783.934448	780.100000
783.970825	795.400000
784.007263	792.800000
784.043579	797.800000
784.080017	797.200000
784.116394	791.900000
784.152710	793.900000
784.189148	797.100000
784.225525	802.400000
784.261902	791.300000
784.298279	785.500000
784.334656	786.800000
784.371033	772.400000
784.407410	778.500000
784.443787	756.900000
784.480164	742.200000
784.516541	727.900000
784.552856	734.600000
784.589233	722.600000
784.625610	721.000000
784.661987	745.600000
784.698364	735.700000
784.734741	724.900000
784.771057	724.800000
784.807434	720.200000
784.843811	723.100000
784.880127	697.500000
784.916504	702.400000
784.952881	679.900000
784.989197	648.500000
785.025574	619.000000
785.061951	591.200000
785.098267	574.300000
785.134644	536.800000
785.170959	511.400000
785.207275	500.800000
785.243652	498.500000
785.279968	483.300000
785.316345	493.200000
785.352722	507.300000
785.388977	518.700000
785.425354	527.600000
785.461731	542.600000
785.498047	564.400000
785.534363	586.100000
785.570679	613.400000
785.606995	639.300000
785.643372	663.100000
785.679687	679.800000
785.716003	686.300000
785.752380	698.700000
785.788635	713.300000
785.825012	737.700000
785.861328	751.900000
785.897644	749.000000
785.933960	764.700000
785.970337	774.200000
786.006592	787.600000
786.042908	797.100000
786.079285	805.400000
786.115540	813.000000
786.151855	813.700000
786.188171	808.200000
786.224487	802.800000
786.260803	804.800000
786.297119	813.700000
786.333435	811.700000
786.369751	800.100000
786.406006	800.700000
786.442322	786.500000
786.478638	774.100000
786.514954	788.600000
786.551270	783.800000
786.587585	796.700000
786.623840	782.900000
786.660156	780.000000
786.696472	770.000000
786.732727	765.100000
786.769043	766.900000
786.805298	762.500000
786.841614	767.300000
786.877930	777.800000
786.914124	769.900000
786.950439	788.200000
786.986755	797.500000
787.023010	809.900000
787.059326	817.900000
787.095642	819.900000
787.131836	834.300000
787.168152	820.500000
787.204468	831.100000
787.240723	845.700000
787.276978	854.500000
787.313293	856.100000
787.349548	852.500000
787.385803	849.900000
787.422058	837.400000
787.458313	834.400000
787.494629	831.500000
787.530823	831.300000
787.567139	820.800000
787.603455	814.600000
787.639648	804.400000
787.675903	808.900000
787.712219	808.700000
787.748413	805.400000
787.784729	812.400000
787.820984	804.000000
787.857178	792.800000
787.893494	792.500000
787.929749	787.000000
787.965942	797.200000
788.002258	812.900000
788.038452	827.200000
788.074707	821.800000
788.110962	831.400000
788.147217	825.000000
788.183472	836.100000
788.219727	842.800000
788.255920	865.000000
788.292175	877.300000
788.328430	878.300000
788.364624	860.400000
788.400879	857.800000
788.437134	859.500000
788.473328	860.200000
788.509583	860.200000
788.545837	857.400000
788.582031	859.700000
788.618286	850.100000
788.654480	848.900000
788.690735	859.600000
788.726990	878.700000
788.763184	874.900000
788.799377	885.200000
788.835632	871.300000
788.871826	884.500000
788.908081	880.100000
788.944336	871.400000
788.980469	892.100000
789.016724	887.200000
789.052979	885.600000
789.089111	875.400000
789.125366	881.600000
789.161621	865.800000
789.197754	877.600000
789.234009	874.600000
789.270142	874.200000
789.306396	865.900000
789.342590	861.700000
789.378784	841.000000
789.414978	834.400000
789.451233	853.000000
789.487366	853.700000
789.523621	863.300000
789.559814	856.800000
789.595947	846.200000
789.632202	853.500000
789.668335	861.000000
789.704529	881.700000
789.740784	900.100000
789.776917	899.500000
789.813110	893.300000
789.849304	906.700000
789.885498	903.700000
789.921692	919.300000
789.957886	924.300000
789.994019	933.600000
790.030212	932.700000
790.066406	939.300000
790.102539	937.400000
790.138733	943.100000
790.174927	933.900000
790.211060	950.600000
790.247253	941.000000
790.283386	934.300000
790.319580	920.500000
790.355774	900.300000
790.391907	899.100000
790.428101	911.800000
790.464294	910.300000
790.500427	907.900000
790.536621	893.900000
790.572754	875.500000
790.608887	875.300000
790.645081	886.500000
790.681274	903.300000
790.717346	905.000000
790.753540	893.900000
790.789734	871.800000
790.825867	852.500000
790.862000	855.100000
790.898132	873.000000
790.934265	875.400000
790.970459	876.300000
791.006592	873.400000
791.042725	867.300000
791.078918	858.300000
791.114990	854.900000
791.151184	856.100000
791.187317	875.700000
791.223389	865.900000
791.259583	857.600000
791.295715	862.700000
791.331848	861.400000
791.367981	878.000000
791.404114	884.500000
791.440247	892.700000
791.476379	893.200000
791.512451	880.200000
791.548584	878.100000
791.584778	868.500000
791.620850	877.900000
791.656982	889.800000
791.693115	893.200000
791.729187	887.600000
791.765381	883.300000
791.801514	884.900000
791.837585	889.100000
791.873718	899.300000
791.909851	906.200000
791.945923	913.300000
791.982056	884.100000
792.018188	877.100000
792.054260	875.600000
792.090393	875.100000
792.126465	863.700000
792.162598	876.100000
792.198669	859.300000
792.234741	858.900000
792.270874	853.200000
792.307007	832.900000
792.343079	839.600000
792.379150	846.000000
792.415283	838.000000
792.451355	843.300000
792.487488	823.300000
792.523560	820.000000
792.559631	806.900000
792.595764	772.400000
792.631836	740.200000
792.667908	732.000000
792.703979	712.900000
792.740051	727.300000
792.776184	757.300000
792.812256	765.500000
792.848328	773.200000
792.884399	782.000000
792.920471	786.700000
792.956543	783.200000
792.992615	781.200000
793.028748	784.300000
793.064758	785.700000
793.100830	802.900000
793.136963	818.600000
793.172974	816.700000
793.209045	809.400000
793.245178	818.900000
793.281189	802.900000
793.317261	814.700000
793.353271	813.700000
793.389404	825.900000
793.425476	824.800000
793.461487	810.000000
793.497559	803.700000
793.533630	800.000000
793.569641	799.400000
793.605713	802.900000
793.641785	811.200000
793.677795	815.900000
793.713867	806.600000
793.749878	810.700000
793.785950	821.000000
793.822021	826.600000
793.858032	814.100000
793.894104	828.800000
793.930176	820.600000
793.966187	821.900000
794.002258	805.900000
794.038269	813.000000
794.074280	809.700000
794.110352	837.700000
794.146423	819.900000
794.182373	813.800000
794.218445	813.500000
794.254517	802.300000
794.290466	787.600000
794.326538	800.200000
794.362549	803.100000
794.398560	805.300000
794.434631	808.200000
794.470581	790.000000
794.506653	788.900000
794.542664	791.200000
794.578674	791.100000
794.614685	795.600000
794.650757	794.400000
794.686707	793.000000
794.722778	781.500000
794.758789	789.900000
794.794739	795.500000
794.830811	819.900000
794.866821	838.400000
794.902771	834.400000
794.938843	829.400000
794.974792	827.200000
795.010803	826.700000
795.046814	827.700000
795.082825	818.100000
795.118835	834.500000
795.154846	815.200000
795.190796	821.300000
795.226807	795.600000
795.262817	803.700000
795.298767	801.400000
795.334778	816.400000
795.370850	801.500000
795.406799	807.300000
795.442810	795.300000
795.478821	794.500000
795.514709	789.900000
795.550720	817.000000
795.586670	793.600000
795.622681	803.800000
795.658691	805.300000
795.694641	804.100000
795.730652	791.800000
795.766663	803.500000
795.802551	804.600000
795.838562	821.300000
795.874573	810.000000
795.910522	807.600000
795.946472	798.700000
795.982483	796.300000
796.018433	798.900000
796.054382	807.400000
796.090393	799.200000
796.126282	795.500000
796.162292	786.900000
796.198242	781.000000
796.234192	780.000000
796.270203	775.500000
796.306091	779.000000
796.342041	793.000000
796.378052	782.800000
796.413940	781.000000
796.449951	785.500000
796.485901	781.300000
796.521790	784.500000
796.557800	800.900000
796.593689	798.200000
796.629639	789.900000
796.665649	789.700000
796.701599	784.500000
796.737488	778.000000
796.773437	783.400000
796.809387	786.600000
796.845337	788.500000
796.881287	785.700000
796.917175	766.800000
796.953125	769.200000
796.989075	775.500000
797.024963	785.700000
797.060913	779.100000
797.096863	781.300000
797.132751	778.100000
797.168701	760.900000
797.204590	765.400000
797.240540	770.400000
797.276489	776.800000
797.312439	784.400000
797.348328	781.700000
797.384277	774.100000
797.420166	762.400000
797.456055	762.000000
797.492004	757.700000
797.527893	768.400000
797.563843	769.300000
797.599731	761.100000
797.635620	750.100000
797.671570	757.200000
797.707520	753.900000
797.743347	753.900000
797.779297	765.600000
797.815125	755.800000
797.851074	750.000000
797.887024	741.300000
797.922913	734.200000
797.958801	739.500000
797.994690	734.700000
798.030579	743.200000
798.066467	749.800000
798.102356	740.900000
798.138245	731.600000
798.174133	726.100000
798.210083	736.000000
798.245911	746.200000
798.281799	745.900000
798.317749	739.800000
798.353577	735.600000
798.389465	730.500000
798.425293	725.700000
798.461243	727.800000
798.497131	728.100000
798.532959	735.500000
798.568848	742.600000
798.604736	730.400000
798.640564	719.500000
798.676453	721.100000
798.712402	719.300000
798.748230	726.500000
798.784119	726.600000
798.820007	727.300000
798.855835	723.000000
798.891724	712.400000
798.927551	709.500000
798.963379	716.800000
798.999268	712.000000
799.035095	705.900000
799.070984	700.100000
799.106873	690.100000
799.142700	694.800000
799.178528	684.200000
799.214417	688.900000
799.250244	702.300000
799.286133	695.800000
799.321960	696.000000
799.357788	692.700000
799.393677	687.700000
799.429504	684.500000
799.465332	683.200000
799.501221	695.800000
799.537048	694.600000
799.572876	686.000000
799.608704	685.400000
799.644531	696.500000
799.680359	695.800000
799.716248	701.900000
799.752014	712.400000
799.787903	699.200000
799.823730	700.300000
799.859558	687.800000
799.895386	687.400000
799.931213	691.400000
799.967041	680.300000
800.002869	683.200000
800.038696	701.200000
800.074463	682.100000
800.110352	682.200000
800.146179	673.800000
800.181946	684.900000
800.217773	687.600000
800.253540	683.700000
800.289429	678.200000
800.325256	671.800000
800.361023	658.000000
800.396851	669.500000
800.432678	673.800000
800.468445	674.000000
800.504272	673.300000
800.540100	660.900000
800.575867	659.600000
800.611694	663.500000
800.647461	653.400000
800.683289	658.500000
800.719116	665.200000
800.754883	660.700000
800.790649	649.500000
800.826477	642.900000
800.862244	661.700000
800.898071	648.600000
800.933838	650.600000
800.969604	648.600000
801.005432	646.300000
801.041199	645.800000
801.076965	639.300000
801.112793	629.500000
801.148560	624.200000
801.184326	626.800000
801.220154	630.100000
801.255859	625.300000
801.291687	626.900000
801.327454	621.900000
801.363281	621.600000
801.398987	618.700000
801.434814	620.400000
801.470520	630.800000
801.506287	616.100000
801.542114	612.200000
801.577820	613.700000
801.613647	613.600000
801.649414	610.700000
801.685120	615.600000
801.720886	620.800000
801.756714	610.800000
801.792419	603.900000
801.828186	593.800000
801.863892	607.600000
801.899719	596.100000
801.935486	596.800000
801.971252	603.400000
802.006958	600.600000
802.042725	595.400000
802.078430	595.200000
802.114197	590.400000
802.149963	607.700000
802.185669	592.700000
802.221436	592.700000
802.257202	593.600000
802.292908	590.500000
802.328674	596.200000
802.364441	599.400000
802.400146	595.500000
802.435913	594.800000
802.471558	589.900000
802.507324	588.200000
802.543091	581.400000
802.578796	591.600000
802.614502	593.600000
802.650269	598.400000
802.685974	581.000000
802.721741	589.800000
802.757446	590.200000
802.793152	585.800000
802.828918	597.200000
802.864624	593.100000
802.900330	592.100000
802.936035	590.100000
802.971802	586.200000
803.007446	583.100000
803.043213	575.100000
803.078857	583.800000
803.114624	568.700000
803.150330	577.000000
803.185974	567.500000
803.221741	571.700000
803.257446	580.200000
803.293152	583.200000
803.328857	578.600000
803.364563	573.700000
803.400208	566.400000
803.435974	576.600000
803.471680	568.800000
803.507324	563.400000
803.543030	573.600000
803.578735	575.300000
803.614441	564.600000
803.650146	575.500000
803.685791	561.500000
803.721497	563.600000
803.757202	553.700000
803.792847	563.500000
803.828552	558.200000
803.864258	556.800000
803.899902	555.500000
803.935608	538.500000
803.971313	545.100000
804.006958	545.900000
804.042664	541.900000
804.078308	548.100000
804.113953	540.600000
804.149658	546.000000
804.185364	538.700000
804.221008	546.800000
804.256714	538.300000
804.292297	535.800000
804.328003	536.500000
804.363708	528.700000
804.399292	534.500000
804.434998	529.500000
804.470703	523.000000
804.506287	536.500000
804.541992	530.700000
804.577637	533.700000
804.613281	518.000000
804.648926	515.500000
804.684570	518.100000
804.720215	510.800000
804.755920	509.800000
804.791565	508.400000
804.827209	517.600000
804.862854	510.900000
804.898437	505.700000
804.934143	506.900000
804.969788	504.500000
805.005371	506.200000
805.041077	507.200000
805.076721	506.600000
805.112305	497.800000
805.147949	495.800000
805.183655	491.700000
805.219238	500.400000
805.254883	496.400000
805.290466	505.600000
805.326111	496.500000
805.361755	483.900000
805.397400	491.500000
805.432983	493.300000
805.468628	488.500000
805.504211	494.900000
805.539856	493.300000
805.575500	497.600000
805.611084	491.200000
805.646729	478.400000
805.682373	484.600000
805.717957	493.000000
805.753601	492.900000
805.789246	477.900000
805.824768	487.900000
805.860413	487.700000
805.895996	475.100000
805.931641	477.300000
805.967224	483.700000
806.002869	475.500000
806.038452	487.800000
806.074036	486.200000
806.109619	472.200000
806.145264	471.100000
806.180847	474.600000
806.216431	470.800000
806.252014	475.800000
806.287659	475.300000
806.323181	483.800000
806.358826	473.600000
806.394409	457.100000
806.429993	464.900000
806.465576	477.900000
806.501160	464.700000
806.536743	454.800000
806.572327	465.800000
806.607910	461.300000
806.643494	462.700000
806.679077	455.900000
806.714661	458.600000
806.750244	461.100000
806.785828	453.800000
806.821350	453.500000
806.856934	460.200000
806.892517	453.100000
806.928101	451.400000
806.963684	451.600000
806.999268	462.700000
807.034790	443.300000
807.070374	453.500000
807.105896	446.700000
807.141479	442.400000
807.177063	448.600000
807.212585	439.500000
807.248169	442.900000
807.283752	446.800000
807.319275	444.000000
807.354858	443.100000
807.390381	442.900000
807.425903	437.200000
807.461487	434.800000
807.497070	428.000000
807.532593	426.400000
807.568115	426.200000
807.603699	423.200000
807.639221	420.200000
807.674744	427.300000
807.710266	431.300000
807.745850	432.900000
807.781372	424.600000
807.816895	424.400000
807.852417	425.100000
807.888000	422.600000
807.923523	418.200000
807.959045	422.800000
807.994629	412.100000
808.030090	413.500000
808.065613	418.400000
808.101135	420.800000
808.136658	417.800000
808.172241	417.700000
808.207764	414.600000
808.243225	412.800000
808.278809	406.800000
808.314270	414.600000
808.349792	400.000000
808.385315	401.400000
808.420837	408.200000
808.456360	415.500000
808.491882	412.700000
808.527344	408.400000
808.562866	418.800000
808.598389	409.600000
808.633850	404.600000
808.669434	402.200000
808.704895	408.800000
808.740417	414.900000
808.775940	406.900000
808.811462	404.600000
808.846924	397.200000
808.882385	393.900000
808.917847	395.900000
808.953369	397.500000
808.988892	391.500000
809.024353	399.200000
809.059875	399.200000
809.095398	391.000000
809.130798	387.100000
809.166321	387.000000
809.201843	388.600000
809.237305	391.500000
809.272766	398.000000
809.308228	383.800000
809.343750	384.100000
809.379211	384.600000
809.414734	384.900000
809.450134	393.700000
809.485657	377.100000
809.521118	383.900000
809.556580	382.500000
809.592102	380.300000
809.627502	379.300000
809.663025	377.600000
809.698486	376.200000
809.733887	373.100000
809.769409	377.300000
809.804871	366.300000
809.840271	368.500000
809.875793	371.000000
809.911194	373.800000
809.946655	365.600000
809.982178	365.100000
810.017639	367.900000
810.053040	366.100000
810.088501	363.400000
810.123901	365.400000
810.159424	362.000000
810.194885	357.400000
810.230286	361.200000
810.265747	353.900000
810.301208	351.600000
810.336609	356.800000
810.372070	347.100000
810.407532	351.400000
810.442932	352.200000
810.478394	357.000000
810.513794	353.800000
810.549255	351.000000
810.584717	350.300000
810.620117	344.400000
810.655518	351.200000
810.690979	348.100000
810.726379	346.400000
810.761841	337.000000
810.797302	339.400000
810.832642	334.400000
810.868103	349.500000
810.903564	337.700000
810.938904	345.200000
810.974365	332.800000
811.009827	337.100000
811.045166	333.500000
811.080627	326.100000
811.115967	330.700000
811.151428	337.600000
811.186829	328.200000
811.222229	332.300000
811.257629	324.200000
811.293091	330.900000
811.328430	339.400000
811.363892	332.000000
811.399292	334.300000
811.434631	326.200000
811.470093	332.700000
811.505493	325.100000
811.540833	325.600000
811.576294	331.000000
811.611694	324.500000
811.647034	321.200000
811.682434	323.800000
811.717773	327.000000
811.753235	330.700000
811.788635	325.000000
811.823975	323.900000
811.859375	333.400000
811.894775	316.900000
811.930115	322.300000
811.965515	320.800000
812.000916	323.600000
812.036255	317.900000
812.071655	323.300000
812.106995	316.100000
812.142395	318.300000
812.177795	324.900000
812.213196	322.000000
812.248474	321.400000
812.283875	313.700000
812.319214	316.200000
812.354614	317.200000
812.390015	313.400000
812.425293	315.100000
812.460693	314.700000
812.496094	312.400000
812.531433	306.100000
812.566772	305.400000
812.602173	310.800000
812.637451	311.700000
812.672852	307.100000
812.708191	309.700000
812.743530	304.400000
812.778931	295.400000
812.814270	300.300000
812.849609	306.000000
812.884949	302.100000
812.920227	292.600000
812.955627	308.900000
812.990967	299.700000
813.026306	298.000000
813.061646	287.300000
813.096985	284.600000
813.132324	282.000000
813.167664	286.700000
813.203003	290.400000
813.238281	279.300000
813.273682	280.500000
813.308960	279.400000
813.344299	278.300000
813.379639	288.100000
813.414978	280.900000
813.450256	280.600000
813.485596	285.600000
813.520874	276.600000
813.556213	279.100000
813.591614	284.700000
813.626831	275.100000
813.662170	279.100000
813.697510	288.400000
813.732788	274.800000
813.768127	280.800000
813.803467	280.900000
813.838745	274.200000
813.874084	282.400000
813.909363	277.800000
813.944641	279.000000
813.979980	268.400000
814.015320	273.200000
814.050598	270.600000
814.085876	273.700000
814.121155	271.100000
814.156494	269.500000
814.191772	270.500000
814.227051	267.400000
814.262390	268.700000
814.297668	269.900000
814.332947	269.700000
814.368225	261.400000
814.403564	267.000000
814.438782	262.900000
814.474121	265.900000
814.509338	262.600000
814.544617	271.900000
814.579956	262.200000
814.615173	271.600000
814.650513	267.000000
814.685791	259.700000
814.721008	262.600000
814.756348	263.600000
814.791626	260.200000
814.826843	260.600000
814.862122	258.600000
814.897400	256.700000
814.932678	259.100000
814.967957	259.900000
815.003235	258.500000
815.038452	254.000000
815.073730	251.200000
815.108948	263.100000
815.144226	258.300000
815.179504	264.500000
815.214722	248.800000
815.250000	248.700000
815.285278	255.000000
815.320496	249.100000
815.355774	251.200000
815.391052	253.900000
815.426270	252.400000
815.461487	250.000000
815.496765	247.400000
815.531982	243.200000
815.567261	249.000000
815.602539	256.000000
815.637695	250.300000
815.672974	253.300000
815.708191	252.900000
815.743408	254.400000
815.778687	245.200000
815.813904	255.700000
815.849121	239.200000
815.884399	241.400000
815.919556	240.800000
815.954834	242.700000
815.990051	246.300000
816.025269	249.400000
816.060486	238.900000
816.095703	239.000000
816.130920	241.800000
816.166199	239.400000
816.201416	244.000000
816.236572	246.800000
816.271851	239.400000
816.307007	245.300000
816.342224	234.600000
816.377441	236.900000
816.412659	230.800000
816.447876	241.600000
816.483093	237.100000
816.518250	237.800000
816.553467	234.500000
816.588745	238.000000
816.623901	232.300000
816.659119	224.900000
816.694275	232.200000
816.729492	228.800000
816.764709	264.800000
816.799927	226.500000
816.835083	232.700000
816.870300	223.600000
816.905457	228.700000
816.940674	231.300000
816.975830	225.900000
817.010986	222.300000
817.046204	226.200000
817.081421	222.100000
817.116577	222.000000
817.151733	229.400000
817.186951	230.900000
817.222107	225.900000
817.257324	231.000000
817.292419	226.500000
817.327637	220.000000
817.362854	223.800000
817.398010	220.400000
817.433167	220.900000
817.468323	220.800000
817.503479	222.100000
817.538635	231.100000
817.573853	224.600000
817.608948	221.600000
817.644165	218.900000
817.679321	217.700000
817.714478	215.800000
817.749634	219.900000
817.784790	231.300000
817.819946	226.200000
817.855103	210.600000
817.890198	218.300000
817.925415	210.600000
817.960571	220.000000
817.995667	218.400000
818.030823	218.600000
818.066040	212.600000
818.101135	216.700000
818.136292	216.400000
818.171448	210.900000
818.206543	214.700000
818.241699	217.300000
818.276855	216.200000
818.311951	213.500000
818.347107	210.500000
818.382263	216.500000
818.417358	219.800000
818.452515	220.600000
818.487610	222.200000
818.522766	208.700000
818.557922	222.800000
818.593018	216.000000
818.628113	214.700000
818.663269	209.300000
818.698364	212.700000
818.733521	210.000000
818.768677	215.500000
818.803711	205.700000
818.838867	209.100000
818.874023	209.000000
818.909058	208.900000
818.944214	205.900000
818.979370	214.000000
819.014404	209.400000
819.049561	207.400000
819.084595	211.900000
819.119751	201.400000
819.154846	210.000000
819.189941	207.000000
819.225037	202.900000
819.260193	198.600000
819.295227	201.000000
819.330322	197.100000
819.365479	197.700000
819.400513	230.200000
819.435608	196.900000
819.470764	194.300000
819.505798	197.700000
819.540894	198.100000
819.575989	197.400000
819.611084	207.600000
819.646179	207.500000
819.681213	202.800000
819.716309	199.300000
819.751404	199.500000
819.786438	205.000000
819.821533	196.500000
819.856628	201.600000
819.891663	204.700000
819.926758	210.500000
819.961853	207.200000
819.996887	195.000000
820.031982	203.400000
820.067017	198.500000
820.102112	226.200000
820.137207	197.300000
820.172302	212.700000
820.207275	195.000000
820.242371	194.400000
820.277405	194.800000
820.312500	197.100000
820.347534	200.300000
820.382568	202.300000
820.417664	196.500000
820.452759	195.100000
820.487732	194.900000
820.522827	195.200000
820.557861	193.800000
820.592896	195.100000
820.627930	196.000000
820.662964	192.600000
820.698059	199.500000
820.733093	194.200000
820.768127	199.700000
820.803162	195.600000
820.838196	192.300000
820.873230	196.400000
820.908264	197.000000
820.943298	192.400000
820.978333	200.000000
821.013367	196.200000
821.048401	200.800000
821.083435	202.100000
821.118469	188.900000
821.153503	199.400000
821.188477	195.900000
821.223511	188.100000
821.258484	195.600000
821.293579	195.900000
821.328613	188.800000
821.363647	193.000000
821.398621	187.500000
821.433655	191.400000
821.468628	206.100000
821.503662	192.300000
821.538696	197.100000
821.573669	190.100000
821.608704	195.800000
821.643677	191.900000
821.678650	196.300000
821.713684	202.800000
821.748718	192.100000
821.783691	192.800000
821.818726	194.200000
821.853638	196.300000
821.888672	191.300000
821.923706	195.300000
821.958618	190.900000
821.993652	190.100000
822.028687	197.800000
822.063599	199.500000
822.098633	195.700000
822.133667	189.200000
822.168579	192.600000
822.203613	193.700000
822.238586	188.800000
822.273560	196.400000
822.308533	190.600000
822.343567	191.200000
822.378479	190.400000
822.413452	192.400000
822.448425	187.600000
822.483398	197.300000
822.518372	196.700000
822.553345	190.100000
822.588318	199.500000
822.623291	191.000000
822.658203	190.800000
822.693237	191.900000
822.728210	188.700000
822.763123	193.600000
822.798096	187.900000
822.833069	193.000000
822.867981	192.700000
822.902954	194.600000
822.937927	194.700000
822.972900	202.500000
823.007874	184.600000
823.042725	196.700000
823.077698	205.000000
823.112671	188.400000
823.147583	191.900000
823.182556	195.000000
823.217529	195.100000
823.252441	190.000000
823.287415	206.200000
823.322388	195.800000
823.357239	190.800000
823.392212	199.300000
823.427185	197.700000
823.462097	187.700000
823.497009	195.500000
823.531982	189.200000
823.566895	191.100000
823.601807	186.800000
823.636719	190.800000
823.671631	194.900000
823.706604	188.300000
823.741455	194.100000
823.776428	185.300000
823.811340	194.700000
823.846252	198.200000
823.881165	198.400000
823.916138	192.200000
823.950989	200.200000
823.985901	188.600000
824.020813	191.500000
824.055725	190.300000
824.090637	185.200000
824.125610	194.000000
824.160461	191.500000
824.195374	193.500000
824.230225	197.000000
824.265198	185.100000
824.300110	189.100000
824.334961	202.300000
824.369873	182.100000
824.404785	194.500000
824.439636	198.300000
824.474548	182.800000
824.509460	182.300000
824.544312	197.000000
824.579224	194.200000
824.614075	194.500000
824.648987	190.400000
824.683899	191.600000
824.718811	188.300000
824.753662	198.200000
824.788574	195.400000
824.823364	193.200000
824.858276	188.200000
824.893188	195.700000
824.928040	196.100000
824.962952	193.000000
824.997803	195.700000
825.032654	192.000000
825.067566	195.300000
825.102417	188.900000
825.137268	189.500000
825.172119	192.000000
825.206970	188.200000
825.241882	188.500000
825.276733	187.600000
825.311646	188.800000
825.346436	186.300000
825.381348	184.500000
825.416138	190.800000
825.450989	186.200000
825.485901	181.400000
825.520691	180.200000
825.555542	182.800000
825.590454	189.400000
825.625244	183.200000
825.660095	195.600000
825.695007	192.800000
825.729797	187.000000
825.764648	186.500000
825.799438	189.000000
825.834290	189.900000
825.869202	182.700000
825.903992	190.400000
825.938843	184.800000
825.973694	184.900000
826.008484	200.200000
826.043335	184.400000
826.078186	179.400000
826.112976	195.700000
826.147827	192.800000
826.182678	198.500000
826.217468	180.300000
826.252319	192.500000
826.287109	182.600000
826.321899	196.500000
826.356750	186.200000
826.391541	183.400000
826.426392	193.300000
826.461182	188.700000
826.495972	182.500000
826.530823	179.100000
826.565613	187.900000
826.600403	181.600000
826.635254	191.000000
826.670044	179.900000
826.704834	179.200000
826.739685	182.500000
826.774475	188.300000
826.809265	187.600000
826.844055	185.500000
826.878906	193.800000
826.913635	187.900000
826.948425	189.000000
826.983215	190.400000
827.018005	192.200000
827.052856	185.400000
827.087585	190.100000
827.122375	179.800000
827.157227	185.600000
827.191956	200.200000
827.226746	182.300000
827.261536	191.500000
827.296265	179.600000
827.331116	186.200000
827.365906	189.600000
827.400635	182.600000
827.435425	178.800000
827.470215	193.700000
827.504944	184.700000
827.539734	192.200000
827.574463	186.300000
827.609253	193.900000
827.644043	185.900000
827.678772	193.900000
827.713562	185.000000
827.748352	186.000000
827.783081	183.600000
827.817871	188.000000
827.852600	181.800000
827.887329	188.300000
827.922119	177.300000
827.956848	190.400000
827.991638	199.700000
828.026367	188.300000
828.061157	188.000000
828.095886	188.400000
828.130615	201.400000
828.165344	178.300000
828.200073	186.700000
828.234863	184.400000
828.269592	185.600000
828.304321	192.200000
828.339111	187.200000
828.373779	184.100000
828.408569	191.800000
828.443298	191.300000
828.477966	184.700000
828.512756	187.600000
828.547424	181.600000
828.582214	184.600000
828.616943	185.700000
828.651672	185.500000
828.686340	190.600000
828.721130	182.400000
828.755798	187.100000
828.790527	184.500000
828.825256	187.800000
828.859924	185.700000
828.894714	193.300000
828.929443	194.700000
828.964111	183.100000
828.998840	189.000000
829.033569	185.100000
829.068237	184.800000
829.102966	184.500000
829.137634	188.400000
829.172363	189.700000
829.207092	188.500000
829.241821	184.000000
829.276489	178.100000
829.311157	188.000000
829.345825	185.600000
829.380554	191.000000
829.415283	182.100000
829.449951	180.700000
829.484619	194.600000
829.519348	194.300000
829.554016	187.500000
829.588745	187.000000
829.623413	180.700000
829.658081	197.700000
829.692749	180.400000
829.727417	191.700000
829.762146	187.400000
829.796814	183.600000
829.831482	184.200000
829.866150	189.900000
829.900879	184.400000
829.935486	190.800000
829.970154	184.200000
830.004883	198.100000
830.039490	188.100000
830.074219	183.600000
830.108887	187.700000
830.143494	186.100000
830.178223	182.200000
830.212891	185.000000
830.247498	186.300000
830.282166	193.400000
830.316772	192.200000
830.351501	184.400000
830.386169	185.800000
830.420776	184.200000
830.455444	186.900000
830.490112	182.900000
830.524719	177.100000
830.559387	188.700000
830.594055	189.900000
830.628662	186.100000
830.663330	186.600000
830.697998	194.400000
830.732605	185.800000
830.767273	187.600000
830.801941	186.500000
830.836487	194.000000
830.871155	189.200000
830.905762	189.000000
830.940430	179.500000
830.975098	182.400000
831.009644	188.000000
831.044312	194.300000
831.078979	188.500000
831.113525	179.500000
831.148193	187.500000
831.182861	185.400000
831.217407	189.600000
831.252075	203.000000
831.286621	186.200000
831.321289	183.400000
831.355896	187.000000
831.390564	193.900000
831.425110	187.600000
831.459778	194.200000
831.494324	200.700000
831.528931	190.100000
831.563599	191.800000
831.598145	180.100000
831.632751	187.800000
831.667419	186.300000
831.701965	189.300000
831.736572	191.400000
831.771179	180.500000
831.805786	183.700000
831.840393	193.200000
831.874939	179.200000
831.909546	192.000000
831.944153	178.700000
831.978760	185.000000
832.013306	182.100000
832.047913	192.600000
832.082458	195.400000
832.117065	183.100000
832.151672	195.500000
832.186218	188.100000
832.220825	189.500000
832.255432	177.700000
832.289978	183.400000
832.324585	188.500000
832.359192	188.600000
832.393677	184.700000
832.428284	188.800000
832.462830	184.100000
832.497437	185.600000
832.531982	190.300000
832.566589	184.800000
832.601135	186.800000
832.635681	178.500000
832.670227	185.200000
832.704773	194.200000
832.739380	187.800000
832.773926	187.300000
832.808472	182.700000
832.843079	186.800000
832.877563	190.600000
832.912170	184.700000
832.946716	180.200000
832.981201	191.600000
833.015808	188.600000
833.050293	186.100000
833.084839	182.000000
833.119446	184.900000
833.153992	190.800000
833.188477	186.200000
833.223022	183.100000
833.257568	189.700000
833.292114	194.600000
833.326660	199.000000
833.361145	183.800000
833.395691	180.100000
833.430237	185.200000
833.464783	189.500000
833.499329	183.900000
833.533875	181.700000
833.568359	189.200000
833.602905	192.000000
833.637390	191.300000
833.671875	183.800000
833.706421	184.700000
833.740906	183.800000
833.775452	176.700000
833.809998	182.800000
833.844482	193.500000
833.879028	184.900000
833.913513	183.300000
833.947998	189.000000
833.982544	183.600000
834.017090	184.400000
834.051514	175.300000
834.086060	189.300000
834.120544	186.700000
834.155029	188.200000
834.189575	184.600000
834.223999	189.100000
834.258545	185.700000
834.293030	187.200000
834.327515	186.500000
834.362000	182.700000
834.396545	191.100000
834.430969	185.500000
834.465454	190.300000
834.500000	179.100000
834.534424	188.800000
834.568970	176.500000
834.603455	178.600000
834.637878	183.100000
834.672363	187.600000
834.706909	186.600000
834.741333	187.500000
834.775818	178.800000
834.810242	183.500000
834.844727	187.500000
834.879211	185.400000
834.913635	188.100000
834.948181	189.400000
834.982666	188.400000
835.017090	185.900000
835.051575	189.600000
835.086060	184.900000
835.120483	190.400000
835.154907	190.700000
835.189331	187.300000
835.223816	189.600000
835.258301	180.800000
835.292786	181.800000
835.327209	191.000000
835.361694	183.200000
835.396057	183.500000
835.430542	189.300000
835.465027	188.000000
835.499390	180.900000
835.533875	206.500000
835.568359	184.200000
835.602722	179.900000
835.637207	187.700000
835.671692	181.900000
835.706055	203.300000
835.740540	187.900000
835.774902	187.500000
835.809387	188.000000
835.843811	180.000000
835.878235	194.100000
835.912659	181.200000
835.947083	182.200000
835.981506	186.400000
836.015930	180.300000
836.050354	191.100000
836.084778	194.200000
836.119202	190.500000
836.153625	201.500000
836.187988	182.100000
836.222473	182.100000
836.256897	186.400000
836.291260	187.100000
836.325684	187.800000
836.360046	184.100000
836.394470	185.200000
836.428894	192.400000
836.463318	182.000000
836.497681	190.900000
836.532104	194.200000
836.566467	188.400000
836.600891	185.700000
836.635315	193.100000
836.669678	189.000000
836.704102	192.000000
836.738525	187.700000
836.772888	178.800000
836.807251	183.300000
836.841675	189.700000
836.876038	181.100000
836.910461	183.600000
836.944763	192.000000
836.979187	182.400000
837.013611	193.900000
837.047974	180.400000
837.082336	199.200000
837.116699	189.800000
837.151062	187.500000
837.185486	180.000000
837.219849	186.100000
837.254211	190.500000
837.288574	186.100000
837.322937	181.700000
837.357300	175.600000
837.391663	199.300000
837.426086	193.200000
837.460388	188.400000
837.494751	192.400000
837.529114	184.500000
837.563477	192.600000
837.597839	188.300000
837.632141	186.300000
837.666565	184.100000
837.700928	188.800000
837.735229	188.700000
837.769592	190.000000
837.803955	191.900000
837.838257	186.000000
837.872620	183.200000
837.906982	193.900000
837.941284	186.200000
837.975647	186.800000
838.010010	193.200000
838.044312	185.400000
838.078674	183.600000
838.112976	187.500000
838.147339	191.200000
838.181702	187.200000
838.216003	197.200000
838.250366	189.700000
838.284668	189.800000
838.318970	180.100000
838.353333	185.600000
838.387634	184.900000
838.421936	187.100000
838.456299	187.800000
838.490601	194.500000
838.524902	189.900000
838.559265	192.600000
838.593567	191.900000
838.627869	180.100000
838.662170	189.200000
838.696472	179.000000
838.730774	183.700000
838.765137	190.300000
838.799377	174.400000
838.833740	187.400000
838.868042	194.700000
838.902283	179.500000
838.936646	192.600000
838.970947	188.000000
839.005188	192.100000
839.039551	180.400000
839.073792	193.500000
839.108093	183.800000
839.142395	196.800000
839.176697	181.000000
839.210937	187.000000
839.245300	198.500000
839.279541	180.900000
839.313843	185.000000
839.348145	189.700000
839.382385	191.000000
839.416687	190.600000
839.450989	189.700000
839.485229	185.900000
839.519531	182.700000
839.553833	191.500000
839.588013	188.000000
839.622314	186.900000
839.656555	189.800000
839.690857	187.400000
839.725159	180.500000
839.759460	184.900000
839.793640	184.900000
839.827942	187.400000
839.862183	183.500000
839.896423	188.400000
839.930725	197.500000
839.964966	194.300000
839.999207	193.200000
840.033508	193.700000
840.067688	184.700000
840.101990	194.100000
840.136230	185.700000
840.170471	194.700000
840.204712	183.900000
840.238953	183.200000
840.273193	188.600000
840.307434	191.800000
840.341736	184.400000
840.375916	180.600000
840.410217	185.300000
840.444397	192.800000
840.478638	190.300000
840.512878	193.900000
840.547119	187.100000
840.581360	190.200000
840.615601	196.000000
840.649780	196.600000
840.684021	187.900000
840.718262	195.800000
840.752441	193.100000
840.786682	189.700000
840.820862	188.500000
840.855103	196.100000
840.889343	188.400000
840.923584	192.700000
840.957764	189.300000
840.992004	189.600000
841.026184	200.600000
841.060425	185.500000
841.094666	184.500000
841.128845	191.300000
841.163025	189.300000
841.197266	190.000000
841.231445	187.700000
841.265686	188.900000
841.299866	183.900000
841.334045	194.800000
841.368286	185.400000
841.402405	195.300000
841.436646	191.300000
841.470825	184.300000
841.505005	185.200000
841.539185	183.000000
841.573425	183.700000
841.607544	187.500000
841.641785	188.000000
841.675964	183.000000
841.710144	187.900000
841.744324	185.300000
841.778503	185.200000
841.812683	184.200000
841.846863	197.600000
841.881042	195.000000
841.915222	184.300000
841.949402	203.100000
841.983521	180.000000
842.017700	188.300000
842.051880	188.600000
842.086060	190.900000
842.120239	189.000000
842.154419	184.500000
842.188538	189.100000
842.222717	185.200000
842.256897	197.600000
842.291016	187.200000
842.325195	190.200000
842.359375	200.100000
842.393494	193.800000
842.427673	189.100000
842.461853	191.400000
842.495911	196.500000
842.530090	190.300000
842.564209	187.800000
842.598389	190.500000
842.632568	189.400000
842.666626	192.200000
842.700806	185.100000
842.734985	185.300000
842.769043	191.400000
842.803223	186.300000
842.837402	185.300000
842.871460	185.100000
842.905640	196.100000
842.939697	183.100000
842.973877	188.800000
843.007996	194.500000
843.042175	196.700000
843.076233	184.800000
843.110413	189.300000
843.144470	196.500000
843.178589	190.300000
843.212769	184.300000
843.246826	192.100000
843.280945	187.000000
843.315125	186.600000
843.349182	185.200000
843.383301	194.400000
843.417419	200.000000
843.451538	187.200000
843.485657	186.300000
843.519714	187.000000
843.553833	189.800000
843.587952	185.700000
843.622070	183.700000
843.656128	191.500000
843.690247	186.800000
843.724304	186.100000
843.758423	190.100000
843.792542	186.000000
843.826599	188.900000
843.860718	186.600000
843.894836	181.500000
843.928894	189.000000
843.963013	191.500000
843.997070	184.700000
844.031128	182.200000
844.065247	193.800000
844.099304	192.000000
844.133362	188.900000
844.167480	192.100000
844.201599	194.900000
844.235596	190.200000
844.269714	190.300000
844.303711	189.700000
844.337830	181.000000
844.371948	192.100000
844.405945	188.200000
844.440063	183.300000
844.474121	202.100000
844.508118	186.700000
844.542236	187.000000
844.576294	188.000000
844.610352	184.000000
844.644409	187.500000
844.678406	179.600000
844.712524	191.400000
844.746582	195.400000
844.780640	187.400000
844.814636	188.900000
844.848755	197.200000
844.882751	185.800000
844.916809	193.800000
844.950867	189.500000
844.984863	194.700000
845.018921	187.800000
845.052979	184.300000
845.086975	189.800000
845.121033	181.900000
845.155090	184.600000
845.189087	194.500000
845.223145	186.000000
845.257141	188.900000
845.291199	192.600000
845.325256	195.400000
845.359253	189.900000
845.393250	199.000000
845.427307	188.100000
845.461304	190.200000
845.495361	190.100000
845.529358	199.100000
845.563354	187.000000
845.597412	184.800000
845.631409	196.800000
845.665405	195.800000
845.699463	193.300000
845.733459	187.300000
845.767456	196.300000
845.801453	186.400000
845.835449	194.800000
845.869446	193.200000
845.903503	192.800000
845.937439	184.500000
845.971497	195.200000
846.005493	182.800000
846.039429	191.100000
846.073486	199.500000
846.107483	187.800000
846.141418	188.000000
846.175476	188.200000
846.209473	195.100000
846.243408	184.100000
846.277405	190.900000
846.311401	184.300000
846.345337	188.100000
846.379395	192.900000
846.413330	185.900000
846.447327	196.900000
846.481323	183.700000
846.515259	183.600000
846.549255	189.200000
846.583252	189.200000
846.617187	184.200000
846.651184	190.500000
846.685120	186.900000
846.719055	196.400000
846.753052	193.100000
846.786987	192.800000
846.820984	181.700000
846.854980	194.900000
846.888916	184.100000
846.922852	191.300000
846.956848	197.300000
846.990723	183.800000
847.024719	190.400000
847.058716	187.900000
847.092590	196.300000
847.126587	188.300000
847.160522	186.900000
847.194458	193.300000
847.228455	185.500000
847.262390	184.400000
847.296265	187.900000
847.330261	194.600000
847.364136	186.900000
847.398132	185.600000
847.432068	189.100000
847.466003	188.000000
847.499939	188.500000
847.533875	192.100000
847.567749	187.800000
847.601746	187.100000
847.635681	192.500000
847.669556	182.100000
847.703491	194.600000
847.737427	204.700000
847.771301	183.300000
847.805237	190.000000
847.839233	189.400000
847.873108	187.400000
847.907043	187.900000
847.940918	194.000000
847.974854	190.300000
848.008789	192.900000
848.042664	189.000000
848.076538	191.500000
848.110474	189.600000
848.144348	191.000000
848.178284	181.800000
848.212219	188.500000
848.246094	186.600000
848.279968	189.800000
848.313904	191.000000
848.347778	189.700000
848.381653	188.300000
848.415588	185.300000
848.449463	185.500000
848.483337	191.600000
848.517212	194.800000
848.551086	189.000000
848.585022	183.500000
848.618835	197.800000
848.652771	185.700000
848.686646	184.700000
848.720520	197.000000
848.754395	188.900000
848.788330	193.000000
848.822144	192.000000
848.856018	187.100000
848.889954	199.200000
848.923767	185.100000
848.957642	185.800000
848.991577	193.300000
849.025391	186.400000
849.059265	187.900000
849.093079	184.200000
849.126953	183.700000
849.160828	194.500000
849.194641	190.100000
849.228577	187.600000
849.262451	187.700000
849.296265	186.100000
849.330139	183.900000
849.364014	189.700000
849.397827	191.600000
849.431702	189.000000
849.465515	193.200000
849.499329	180.500000
849.533203	185.100000
849.567078	179.000000
849.600891	192.400000
849.634766	187.400000
849.668518	193.000000
849.702393	188.100000
849.736267	182.300000
849.770020	200.200000
849.803894	192.100000
849.837769	188.700000
849.871521	188.100000
849.905396	193.000000
849.939270	185.200000
849.973022	186.700000
850.006897	192.600000
850.040710	190.400000
850.074524	191.100000
850.108337	186.900000
850.142151	192.400000
850.175964	194.000000
850.209778	189.000000
850.243530	177.300000
850.277405	194.400000
850.311218	187.000000
850.344971	186.000000
850.378845	197.000000
850.412659	186.900000
850.446411	189.500000
850.480225	189.100000
850.514038	194.300000
850.547791	192.200000
850.581665	189.200000
850.615417	185.800000
850.649231	189.000000
850.683044	188.700000
850.716858	187.000000
850.750610	190.000000
850.784424	193.200000
850.818176	186.600000
850.851929	186.300000
850.885742	186.900000
850.919495	188.800000
850.953308	196.300000
850.987122	195.900000
851.020874	183.500000
851.054626	181.800000
851.088440	194.000000
851.122192	192.200000
851.156006	190.400000
851.189697	188.400000
851.223511	183.400000
851.257263	192.400000
851.291077	192.100000
851.324829	186.600000
851.358582	185.700000
851.392334	186.900000
851.426086	185.600000
851.459900	196.400000
851.493591	188.600000
851.527344	189.300000
851.561157	188.400000
851.594849	192.200000
851.628662	190.100000
851.662415	196.900000
851.696106	190.700000
851.729858	194.300000
851.763611	182.500000
851.797363	189.700000
851.831116	184.600000
851.864868	192.300000
851.898560	191.900000
851.932312	187.100000
851.966064	189.600000
851.999817	189.300000
852.033569	187.500000
852.067261	192.600000
852.101013	183.900000
852.134766	188.400000
852.168457	178.400000
852.202209	193.000000
852.235901	185.500000
852.269592	192.100000
852.303345	198.100000
852.337036	192.200000
852.370789	188.600000
852.404541	193.100000
852.438171	185.400000
852.471924	188.800000
852.505676	183.200000
852.539307	192.700000
852.573059	185.600000
852.606812	187.400000
852.640442	186.800000
852.674194	194.800000
852.707886	199.800000
852.741577	196.000000
852.775269	184.000000
852.809021	189.800000
852.842651	191.000000
852.876404	193.700000
852.910034	190.300000
852.943787	196.400000
852.977478	192.500000
853.011108	185.800000
853.044861	186.300000
853.078552	196.700000
853.112183	191.000000
853.145874	189.500000
853.179626	180.000000
853.213257	191.600000
853.246948	187.200000
853.280640	196.700000
853.314270	189.000000
853.347961	195.200000
853.381653	193.100000
853.415283	192.700000
853.448975	186.500000
853.482605	189.200000
853.516296	188.200000
853.549988	183.200000
853.583618	190.200000
853.617310	188.700000
853.651001	191.300000
853.684631	184.800000
853.718323	186.800000
853.751953	196.100000
853.785583	181.700000
853.819275	193.100000
853.852966	190.300000
853.886536	181.000000
853.920227	185.300000
853.953918	194.000000
853.987488	187.600000
854.021179	193.700000
854.054749	198.200000
854.088440	190.600000
854.122131	186.100000
854.155701	193.800000
854.189331	186.100000
854.223022	191.600000
854.256592	191.500000
854.290283	185.500000
854.323914	194.400000
854.357483	190.200000
854.391174	191.800000
854.424744	199.200000
854.458374	190.300000
854.492065	200.700000
854.525696	186.400000
854.559265	196.800000
854.592896	200.200000
854.626465	189.300000
854.660095	189.300000
854.693787	190.900000
854.727356	187.700000
854.760986	192.100000
854.794617	190.900000
854.828186	187.100000
854.861816	192.100000
854.895447	190.200000
854.929016	189.400000
854.962585	192.100000
854.996155	197.600000
855.029785	192.200000
855.063416	191.500000
855.097046	193.900000
855.130615	183.600000
855.164185	195.600000
855.197754	189.600000
855.231384	192.000000
855.264954	187.500000
855.298523	193.400000
855.332153	190.400000
855.365723	196.500000
855.399292	186.600000
855.432922	187.800000
855.466492	191.200000
855.500061	185.800000
855.533630	184.200000
855.567200	192.700000
855.600769	191.900000
855.634338	194.500000
855.667969	190.900000
855.701477	185.800000
855.735046	185.300000
855.768616	182.100000
855.802185	191.000000
855.835754	205.900000
855.869324	182.800000
855.902893	189.400000
855.936401	195.700000
855.969971	190.200000
856.003540	182.800000
856.037109	193.800000
856.070618	189.500000
856.104187	183.400000
856.137695	187.100000
856.171265	179.000000
856.204834	189.800000
856.238403	195.700000
856.271912	186.400000
856.305481	191.900000
856.338989	184.000000
856.372559	192.100000
856.406128	191.000000
856.439636	195.000000
856.473145	188.400000
856.506653	196.300000
856.540222	188.900000
856.573792	196.000000
856.607300	193.200000
856.640808	183.000000
856.674377	190.300000
856.707825	218.600000
856.741394	193.000000
856.774902	184.700000
856.808472	180.800000
856.841980	192.200000
856.875488	196.200000
856.908936	181.000000
856.942505	187.800000
856.976013	187.700000
857.009521	185.000000
857.043030	189.100000
857.076477	188.200000
857.110046	194.400000
857.143555	189.700000
857.177063	194.800000
857.210571	188.300000
857.244080	183.100000
857.277527	191.700000
857.311035	188.800000
857.344543	194.500000
857.378052	188.400000
857.411499	195.300000
857.445068	198.300000
857.478516	189.200000
857.512024	183.800000
857.545532	187.800000
857.578979	192.400000
857.612427	191.200000
857.645874	187.300000
857.679382	190.600000
857.712891	192.900000
857.746399	188.900000
857.779846	195.200000
857.813354	195.400000
857.846741	189.500000
857.880249	184.900000
857.913757	191.900000
857.947266	189.800000
857.980652	193.800000
858.014160	187.400000
858.047546	188.200000
858.081055	187.600000
858.114563	198.900000
858.147949	183.000000
858.181458	192.100000
858.214844	189.200000
858.248352	180.900000
858.281799	193.600000
858.315308	202.300000
858.348694	191.800000
858.382141	198.400000
858.415588	191.600000
858.449036	194.200000
858.482483	191.400000
858.515930	185.300000
858.549377	189.100000
858.582825	195.600000
858.616211	192.000000
858.649658	192.400000
858.683105	185.200000
858.716553	188.000000
858.750000	183.500000
858.783386	188.500000
858.816833	180.800000
858.850281	191.400000
858.883728	191.600000
858.917114	189.800000
858.950562	198.600000
858.983948	199.300000
859.017395	193.200000
859.050781	188.800000
859.084167	184.000000
859.117615	183.400000
859.151062	191.600000
859.184448	187.100000
859.217834	187.600000
859.251282	188.500000
859.284668	185.000000
859.318054	181.900000
859.351440	187.300000
859.384888	198.200000
859.418274	182.100000
859.451721	182.400000
859.485046	191.400000
859.518494	191.200000
859.551819	186.400000
859.585266	192.300000
859.618652	192.200000
859.652039	183.800000
859.685425	184.100000
859.718811	184.100000
859.752197	179.500000
859.785583	196.300000
859.819031	196.500000
859.852356	192.800000
859.885742	185.300000
859.919067	189.300000
859.952454	187.700000
859.985901	194.500000
860.019287	187.200000
860.052612	0.000000
860.085999	0.000000
860.119324	0.000000
860.152710	0.000000
860.186096	0.000000
860.219421	0.000000
860.252808	0.000000
860.286133	0.000000
860.319519	0.000000
860.352905	0.000000
860.386292	0.000000
860.419617	0.000000
860.452942	0.000000
860.486267	0.000000
860.519653	0.000000
860.553040	0.000000
860.586365	0.000000
860.619690	0.000000
860.653076	0.000000
860.686340	0.000000
860.719727	0.000000
860.753113	0.000000
860.786377	0.000000
860.819763	0.000000
860.853027	0.000000
860.886414	0.000000
860.919739	0.000000
860.953125	0.000000
860.986389	0.000000
861.019714	0.000000
861.053040	0.000000
861.086365	0.000000
861.119690	0.000000
861.153076	0.000000
861.186340	0.000000
861.219666	0.000000
861.252930	0.000000
861.286316	0.000000
861.319641	0.000000
861.352905	0.000000
861.386230	0.000000
861.419495	0.000000
861.452820	0.000000
861.486145	0.000000
861.519470	0.000000
861.552734	0.000000
861.586060	0.000000
861.619324	0.000000
861.652649	0.000000
861.685974	0.000000
861.719238	0.000000
861.752563	0.000000
861.785828	0.000000
861.819092	0.000000
861.852417	0.000000
861.885742	0.000000
861.918945	0.000000
861.952271	0.000000
861.985535	0.000000
862.018799	0.000000
862.052124	0.000000
862.085449	0.000000
862.118652	0.000000
862.151978	0.000000
862.185181	0.000000
862.218506	0.000000
862.251770	0.000000
862.285034	0.000000
862.318298	0.000000
862.351562	0.000000
862.384827	0.000000
862.418091	0.000000
862.451355	0.000000
862.484619	0.000000
862.517883	0.000000
862.551086	0.000000
862.584351	0.000000
862.617676	0.000000
862.650940	0.000000
862.684143	0.000000
862.717407	0.000000
862.750610	0.000000
862.783875	0.000000
862.817139	0.000000
862.850342	0.000000
862.883606	0.000000
862.916870	0.000000
862.950073	0.000000
862.983337	0.000000
863.016602	0.000000
863.049805	0.000000
863.083069	0.000000
863.116211	0.000000
863.149475	0.000000
863.182739	0.000000
863.216003	0.000000
863.249146	0.000000
863.282410	0.000000
863.315613	0.000000
863.348816	0.000000
863.382080	0.000000
863.415222	0.000000
863.448486	0.000000
863.481689	0.000000
863.514893	0.000000
863.548157	0.000000
863.581360	0.000000
863.614502	0.000000
863.647766	0.000000
863.680908	0.000000
863.714172	0.000000
863.747375	0.000000
863.780579	0.000000
863.813721	0.000000
863.846985	0.000000
863.880127	0.000000
863.913330	0.000000
863.946533	0.000000
863.979675	0.000000
864.012939	0.000000
