Model Number: SPM-001-M   
Serial Number: 10090201
Firmware Version: 004.17.6
Exposure Time: 500000.000000us
Data Taken on: 03-03-2021 10:46:02.646
Wavelength	Amplitude
733.770752	0.000000
733.808716	0.000000
733.846619	0.000000
733.884583	0.000000
733.922546	0.000000
733.960449	0.000000
733.998413	0.000000
734.036377	0.000000
734.074219	0.000000
734.112183	0.000000
734.150085	0.000000
734.188049	0.000000
734.226013	0.000000
734.263916	0.000000
734.301819	0.000000
734.339783	0.000000
734.377686	0.000000
734.415588	0.000000
734.453552	0.000000
734.491455	0.000000
734.529419	0.000000
734.567322	0.000000
734.605225	0.000000
734.643127	0.000000
734.681091	0.000000
734.718994	0.000000
734.756897	0.000000
734.794800	0.000000
734.832703	0.000000
734.870667	0.000000
734.908508	0.000000
734.946472	0.000000
734.984375	0.000000
735.022278	0.000000
735.060181	0.000000
735.098083	0.000000
735.135986	0.000000
735.173889	0.000000
735.211792	0.000000
735.249695	0.000000
735.287598	0.000000
735.325439	0.000000
735.363403	0.000000
735.401306	0.000000
735.439148	0.000000
735.477051	0.000000
735.515015	0.000000
735.552856	0.000000
735.590759	0.000000
735.628662	0.000000
735.666504	0.000000
735.704407	0.000000
735.742310	0.000000
735.780212	0.000000
735.818115	0.000000
735.856018	0.000000
735.893860	0.000000
735.931763	0.000000
735.969604	0.000000
736.007507	0.000000
736.045410	0.000000
736.083252	0.000000
736.121094	0.000000
736.158997	0.000000
736.196838	0.000000
736.234741	0.000000
736.272644	0.000000
736.310486	0.000000
736.348389	0.000000
736.386230	0.000000
736.424072	0.000000
736.461975	0.000000
736.499878	0.000000
736.537720	0.000000
736.575562	0.000000
736.613403	0.000000
736.651306	0.000000
736.689148	0.000000
736.726990	0.000000
736.764893	0.000000
736.802734	0.000000
736.840576	0.000000
736.878418	0.000000
736.916321	0.000000
736.954102	0.000000
736.992004	0.000000
737.029846	0.000000
737.067688	0.000000
737.105530	0.000000
737.143372	0.000000
737.181213	0.000000
737.219116	0.000000
737.256897	0.000000
737.294739	0.000000
737.332642	0.000000
737.370422	0.000000
737.408325	0.000000
737.446167	0.000000
737.483948	0.000000
737.521790	0.000000
737.559692	0.000000
737.597473	0.000000
737.635315	0.000000
737.673157	0.000000
737.710999	0.000000
737.748840	0.000000
737.786621	0.000000
737.824463	0.000000
737.862305	0.000000
737.900085	0.000000
737.937927	0.000000
737.975769	0.000000
738.013550	0.000000
738.051392	0.000000
738.089233	0.000000
738.127014	0.000000
738.164856	0.000000
738.202698	0.000000
738.240479	0.000000
738.278320	0.000000
738.316162	0.000000
738.353943	0.000000
738.391785	0.000000
738.429565	0.000000
738.467407	0.000000
738.505188	0.000000
738.542969	0.000000
738.580811	0.000000
738.618652	0.000000
738.656372	0.000000
738.694214	0.000000
738.732056	0.000000
738.769836	0.000000
738.807617	0.000000
738.845459	0.000000
738.883240	0.000000
738.921021	0.000000
738.958862	0.000000
738.996582	0.000000
739.034424	0.000000
739.072205	0.000000
739.109985	0.000000
739.147827	0.000000
739.185547	0.000000
739.223389	0.000000
739.261169	0.000000
739.298889	0.000000
739.336731	0.000000
739.374512	0.000000
739.412292	0.000000
739.450073	0.000000
739.487854	0.000000
739.525635	0.000000
739.563416	0.000000
739.601135	0.000000
739.638977	0.000000
739.676758	0.000000
739.714478	0.000000
739.752258	0.000000
739.790100	0.000000
739.827820	0.000000
739.865601	0.000000
739.903381	0.000000
739.941101	0.000000
739.978882	189.200000
740.016724	186.500000
740.054443	190.900000
740.092224	183.300000
740.130005	183.000000
740.167725	185.400000
740.205505	182.500000
740.243225	192.500000
740.281006	186.500000
740.318787	179.300000
740.356506	193.100000
740.394287	192.700000
740.432068	182.300000
740.469727	179.900000
740.507507	191.000000
740.545288	186.000000
740.583008	190.000000
740.620789	187.800000
740.658569	178.800000
740.696228	185.700000
740.734009	193.200000
740.771790	175.500000
740.809509	191.600000
740.847229	182.200000
740.884949	185.000000
740.922729	178.900000
740.960449	186.200000
740.998169	181.900000
741.035950	183.200000
741.073669	188.800000
741.111389	187.400000
741.149170	195.100000
741.186890	197.400000
741.224609	190.000000
741.262329	187.900000
741.300110	197.200000
741.337769	182.500000
741.375549	179.800000
741.413208	188.900000
741.450989	182.400000
741.488708	183.800000
741.526367	185.000000
741.564148	189.300000
741.601868	190.400000
741.639526	186.400000
741.677307	188.000000
741.715027	189.000000
741.752686	181.800000
741.790466	194.300000
741.828186	189.500000
741.865845	182.400000
741.903564	178.200000
741.941345	186.700000
741.979004	182.400000
742.016724	188.600000
742.054382	187.900000
742.092102	191.800000
742.129822	179.000000
742.167480	185.400000
742.205200	186.100000
742.242920	189.300000
742.280640	190.400000
742.318359	183.400000
742.356079	185.000000
742.393738	190.900000
742.431396	185.000000
742.469116	190.600000
742.506775	176.300000
742.544495	190.100000
742.582214	189.600000
742.619873	186.100000
742.657593	194.100000
742.695251	191.400000
742.732971	186.500000
742.770630	188.700000
742.808289	187.000000
742.846008	186.000000
742.883728	190.300000
742.921326	188.000000
742.959045	184.400000
742.996765	185.700000
743.034424	188.600000
743.072083	182.900000
743.109802	186.200000
743.147400	180.400000
743.185120	189.000000
743.222839	187.000000
743.260437	193.400000
743.298157	187.500000
743.335754	178.400000
743.373474	184.300000
743.411133	180.300000
743.448792	187.200000
743.486450	187.100000
743.524170	179.000000
743.561768	186.900000
743.599487	192.400000
743.637146	198.400000
743.674744	184.800000
743.712463	183.700000
743.750122	187.500000
743.787720	189.300000
743.825439	181.200000
743.863037	183.600000
743.900696	186.100000
743.938416	211.900000
743.976013	185.900000
744.013672	195.300000
744.051331	191.700000
744.088928	197.100000
744.126587	192.300000
744.164307	188.100000
744.201904	183.500000
744.239563	191.500000
744.277222	189.100000
744.314819	187.000000
744.352478	194.100000
744.390137	189.600000
744.427734	188.200000
744.465393	184.600000
744.502991	182.500000
744.540649	190.400000
744.578308	187.700000
744.615906	182.300000
744.653564	177.700000
744.691223	191.400000
744.728821	181.100000
744.766418	186.100000
744.804077	189.200000
744.841675	184.100000
744.879333	181.500000
744.916992	188.100000
744.954529	185.800000
744.992187	193.100000
745.029785	185.100000
745.067444	184.200000
745.105042	189.200000
745.142639	189.400000
745.180298	197.100000
745.217896	185.800000
745.255493	185.300000
745.293152	190.300000
745.330750	190.800000
745.368347	194.300000
745.405945	189.900000
745.443604	187.100000
745.481140	191.600000
745.518799	186.300000
745.556396	190.500000
745.593994	190.600000
745.631592	186.600000
745.669189	181.100000
745.706787	190.100000
745.744385	182.900000
745.781982	190.200000
745.819580	185.700000
745.857178	186.500000
745.894775	187.000000
745.932373	187.900000
745.969971	187.800000
746.007568	179.400000
746.045166	196.300000
746.082764	192.900000
746.120300	188.900000
746.157898	191.200000
746.195557	186.500000
746.233093	182.000000
746.270691	191.200000
746.308228	189.200000
746.345825	193.100000
746.383423	189.400000
746.420959	183.600000
746.458557	183.300000
746.496155	185.700000
746.533691	187.000000
746.571289	181.800000
746.608887	187.700000
746.646423	188.000000
746.684021	187.000000
746.721619	186.100000
746.759155	188.900000
746.796753	180.900000
746.834351	179.100000
746.871826	183.800000
746.909424	194.300000
746.946960	188.200000
746.984558	187.100000
747.022156	186.400000
747.059631	193.600000
747.097229	188.500000
747.134827	184.000000
747.172363	193.300000
747.209900	189.400000
747.247498	182.600000
747.285034	194.300000
747.322571	193.200000
747.360168	184.500000
747.397644	180.200000
747.435242	189.200000
747.472778	192.200000
747.510315	185.500000
747.547913	185.600000
747.585388	193.300000
747.622925	186.400000
747.660522	177.800000
747.697998	182.900000
747.735596	186.000000
747.773132	184.900000
747.810669	186.200000
747.848206	191.100000
747.885742	181.600000
747.923279	181.300000
747.960815	190.700000
747.998352	188.100000
748.035889	192.000000
748.073425	191.300000
748.110901	183.400000
748.148437	181.600000
748.185974	187.900000
748.223511	198.300000
748.261047	189.000000
748.298584	190.200000
748.336060	186.300000
748.373596	189.400000
748.411133	207.600000
748.448608	184.200000
748.486145	191.400000
748.523682	194.100000
748.561218	193.800000
748.598755	189.000000
748.636292	189.500000
748.673706	184.400000
748.711243	193.600000
748.748718	189.000000
748.786255	187.200000
748.823792	187.600000
748.861267	182.300000
748.898804	188.500000
748.936340	189.800000
748.973816	185.000000
749.011292	192.500000
749.048828	187.300000
749.086304	190.300000
749.123840	198.500000
749.161316	183.900000
749.198792	197.600000
749.236328	194.600000
749.273743	186.200000
749.311279	185.300000
749.348816	189.600000
749.386230	188.300000
749.423767	175.200000
749.461304	190.600000
749.498718	187.500000
749.536255	194.400000
749.573730	199.500000
749.611206	192.800000
749.648682	186.900000
749.686218	188.200000
749.723633	189.700000
749.761169	185.400000
749.798645	182.700000
749.836060	186.300000
749.873596	183.800000
749.911011	186.600000
749.948547	193.400000
749.986023	187.700000
750.023437	187.700000
750.060913	180.300000
750.098450	181.600000
750.135864	186.100000
750.173340	187.500000
750.210815	192.500000
750.248291	182.600000
750.285767	187.800000
750.323242	194.500000
750.360657	191.200000
750.398132	182.300000
750.435608	190.700000
750.473022	183.300000
750.510498	183.200000
750.547974	183.000000
750.585449	185.200000
750.622925	177.000000
750.660339	197.000000
750.697815	187.500000
750.735291	186.300000
750.772644	188.600000
750.810120	189.000000
750.847595	190.800000
750.885010	182.900000
750.922485	195.200000
750.959961	185.700000
750.997375	194.100000
751.034851	190.900000
751.072266	191.500000
751.109680	179.800000
751.147156	192.500000
751.184570	189.200000
751.221985	189.600000
751.259460	180.000000
751.296875	187.400000
751.334290	187.500000
751.371765	191.000000
751.409180	189.600000
751.446594	194.000000
751.484070	189.000000
751.521423	189.500000
751.558899	188.600000
751.596375	194.600000
751.633728	194.000000
751.671204	199.400000
751.708618	182.900000
751.746033	188.900000
751.783447	182.800000
751.820801	183.600000
751.858276	190.200000
751.895691	186.700000
751.933105	185.900000
751.970520	182.300000
752.007935	185.400000
752.045349	191.500000
752.082764	188.200000
752.120178	185.300000
752.157532	183.000000
752.195007	184.600000
752.232422	191.200000
752.269775	192.400000
752.307190	190.700000
752.344543	182.600000
752.382019	186.100000
752.419434	186.800000
752.456787	188.900000
752.494202	191.900000
752.531616	189.600000
752.568970	191.300000
752.606384	188.800000
752.643799	189.300000
752.681152	196.700000
752.718567	190.400000
752.755981	180.300000
752.793335	189.400000
752.830750	178.800000
752.868164	193.500000
752.905518	183.300000
752.942932	192.300000
752.980225	182.600000
753.017639	191.900000
753.055054	186.600000
753.092407	189.200000
753.129822	194.500000
753.167175	196.600000
753.204529	187.600000
753.241943	183.500000
753.279358	181.800000
753.316650	190.200000
753.354065	190.100000
753.391479	191.300000
753.428772	196.000000
753.466187	191.000000
753.503479	181.500000
753.540894	186.400000
753.578308	181.500000
753.615601	181.600000
753.653015	188.200000
753.690369	185.400000
753.727722	183.800000
753.765076	181.200000
753.802490	182.000000
753.839783	178.000000
753.877136	185.500000
753.914551	201.600000
753.951843	183.200000
753.989258	190.500000
754.026611	188.600000
754.063904	188.900000
754.101257	182.000000
754.138611	179.600000
754.175964	188.600000
754.213318	199.700000
754.250610	181.200000
754.288025	184.900000
754.325378	182.600000
754.362671	193.600000
754.400024	186.700000
754.437378	197.100000
754.474670	196.100000
754.512085	184.200000
754.549438	187.500000
754.586731	185.100000
754.624084	185.500000
754.661438	182.400000
754.698730	195.300000
754.736084	185.600000
754.773376	184.800000
754.810730	188.500000
754.848083	186.400000
754.885315	190.800000
754.922668	179.600000
754.960022	182.500000
754.997314	190.300000
755.034668	187.600000
755.072021	186.800000
755.109253	184.100000
755.146606	193.900000
755.183960	185.000000
755.221252	194.400000
755.258545	190.300000
755.295898	191.700000
755.333191	193.200000
755.370544	189.000000
755.407776	186.700000
755.445129	186.300000
755.482422	191.700000
755.519714	183.900000
755.557068	180.200000
755.594360	178.400000
755.631653	190.600000
755.668945	193.600000
755.706299	189.500000
755.743530	197.500000
755.780884	194.400000
755.818176	192.700000
755.855408	191.400000
755.892761	189.500000
755.930054	189.800000
755.967346	189.300000
756.004639	190.900000
756.041870	188.200000
756.079224	193.400000
756.116516	184.600000
756.153748	191.500000
756.191040	194.900000
756.228394	190.800000
756.265625	183.500000
756.302917	188.600000
756.340210	184.800000
756.377441	191.900000
756.414795	195.500000
756.452087	188.600000
756.489319	181.000000
756.526611	190.900000
756.563843	189.600000
756.601135	197.500000
756.638428	196.200000
756.675659	186.800000
756.712952	192.300000
756.750244	191.400000
756.787476	190.000000
756.824768	193.700000
756.862061	186.700000
756.899292	235.200000
756.936584	192.700000
756.973816	200.100000
757.011047	200.800000
757.048340	188.300000
757.085632	188.300000
757.122864	205.300000
757.160156	188.500000
757.197327	191.700000
757.234619	193.200000
757.271912	188.200000
757.309082	196.100000
757.346375	186.300000
757.383667	196.800000
757.420837	191.800000
757.458130	192.300000
757.495422	189.800000
757.532593	192.700000
757.569885	184.400000
757.607117	186.800000
757.644348	191.900000
757.681580	203.400000
757.718811	179.200000
757.756042	191.600000
757.793335	188.000000
757.830505	194.800000
757.867798	187.500000
757.905029	187.700000
757.942200	192.600000
757.979492	188.200000
758.016724	189.200000
758.053894	188.900000
758.091187	210.400000
758.128418	190.000000
758.165588	191.100000
758.202820	202.300000
758.240112	189.800000
758.277283	202.100000
758.314514	193.500000
758.351685	187.900000
758.388916	201.800000
758.426147	199.400000
758.463379	200.800000
758.500610	194.600000
758.537842	193.900000
758.575012	199.300000
758.612244	189.000000
758.649475	205.300000
758.686646	187.400000
758.723877	199.700000
758.761108	201.200000
758.798279	192.500000
758.835510	197.200000
758.872742	200.100000
758.909851	195.800000
758.947083	197.500000
758.984253	196.000000
759.021484	199.800000
759.058716	199.700000
759.095886	197.600000
759.133057	195.700000
759.170288	200.000000
759.207458	191.900000
759.244690	206.600000
759.281860	204.800000
759.319031	195.000000
759.356262	194.300000
759.393433	194.900000
759.430603	194.500000
759.467773	195.300000
759.505005	202.900000
759.542175	201.200000
759.579346	197.800000
759.616516	199.100000
759.653687	202.000000
759.690918	194.600000
759.728027	199.300000
759.765259	199.300000
759.802429	201.600000
759.839539	201.600000
759.876770	204.500000
759.913940	208.500000
759.951111	200.800000
759.988281	200.500000
760.025452	196.300000
760.062561	196.000000
760.099792	209.100000
760.136963	203.800000
760.174072	198.300000
760.211243	193.300000
760.248413	194.400000
760.285583	196.300000
760.322754	210.700000
760.359863	206.000000
760.397034	206.800000
760.434204	200.500000
760.471375	201.100000
760.508545	197.900000
760.545715	199.900000
760.582825	196.400000
760.619995	206.500000
760.657166	194.800000
760.694275	206.000000
760.731445	204.100000
760.768555	202.300000
760.805664	206.100000
760.842834	203.200000
760.879944	205.400000
760.917114	203.700000
760.954285	201.500000
760.991394	195.500000
761.028564	207.900000
761.065674	206.200000
761.102783	199.500000
761.139954	207.700000
761.177124	206.800000
761.214172	208.900000
761.251343	201.900000
761.288452	203.500000
761.325562	207.500000
761.362732	200.900000
761.399841	203.100000
761.436951	204.400000
761.474121	200.000000
761.511169	203.400000
761.548340	207.500000
761.585449	206.400000
761.622559	207.700000
761.659668	205.500000
761.696838	211.200000
761.733887	209.300000
761.771057	203.700000
761.808167	205.400000
761.845276	210.200000
761.882385	217.400000
761.919434	207.600000
761.956604	226.500000
761.993713	203.600000
762.030762	214.300000
762.067871	206.300000
762.105042	207.500000
762.142090	215.000000
762.179199	208.800000
762.216309	213.000000
762.253418	224.100000
762.290527	217.800000
762.327637	215.000000
762.364685	203.700000
762.401794	214.300000
762.438904	212.400000
762.475952	208.400000
762.513062	205.100000
762.550110	206.300000
762.587219	219.900000
762.624329	220.400000
762.661377	213.100000
762.698486	214.300000
762.735596	213.100000
762.772644	207.400000
762.809753	203.300000
762.846863	211.900000
762.883911	215.600000
762.921021	216.100000
762.958069	211.900000
762.995117	221.600000
763.032227	222.000000
763.069336	213.300000
763.106323	209.100000
763.143433	207.600000
763.180481	216.300000
763.217590	215.800000
763.254639	213.800000
763.291687	213.300000
763.328735	221.400000
763.365845	215.300000
763.402893	211.400000
763.439941	217.000000
763.477051	218.700000
763.514038	219.300000
763.551147	214.000000
763.588196	218.400000
763.625244	217.800000
763.662292	224.300000
763.699402	226.600000
763.736389	222.100000
763.773499	228.500000
763.810486	222.400000
763.847534	221.100000
763.884644	221.100000
763.921631	219.400000
763.958679	229.200000
763.995728	221.000000
764.032776	228.500000
764.069824	218.700000
764.106873	226.200000
764.143860	231.400000
764.180969	221.500000
764.218018	230.200000
764.255005	221.400000
764.292053	222.900000
764.329102	232.400000
764.366089	233.100000
764.403137	230.500000
764.440125	223.300000
764.477173	226.900000
764.514221	230.500000
764.551208	227.400000
764.588257	222.300000
764.625305	232.100000
764.662292	237.400000
764.699341	239.100000
764.736389	230.000000
764.773376	244.800000
764.810425	233.400000
764.847473	241.600000
764.884399	237.600000
764.921448	246.300000
764.958435	243.500000
764.995483	233.400000
765.032532	250.400000
765.069458	234.700000
765.106506	236.700000
765.143555	233.000000
765.180481	238.800000
765.217529	246.400000
765.254578	233.700000
765.291504	241.000000
765.328552	239.000000
765.365540	236.600000
765.402527	250.100000
765.439575	238.700000
765.476501	233.600000
765.513550	234.400000
765.550537	240.600000
765.587463	249.900000
765.624512	239.300000
765.661499	230.600000
765.698486	248.000000
765.735474	237.000000
765.772461	239.900000
765.809448	248.400000
765.846436	245.400000
765.883423	251.000000
765.920410	243.800000
765.957397	240.200000
765.994385	245.700000
766.031311	257.000000
766.068359	247.700000
766.105286	250.500000
766.142273	253.900000
766.179260	248.900000
766.216187	242.400000
766.253174	239.800000
766.290161	248.200000
766.327148	251.100000
766.364136	249.000000
766.401123	266.000000
766.438049	244.500000
766.475037	258.100000
766.512024	255.000000
766.548950	267.100000
766.585937	260.300000
766.622864	258.500000
766.659790	255.300000
766.696777	247.500000
766.733704	259.700000
766.770691	253.200000
766.807678	264.300000
766.844604	260.800000
766.881531	259.500000
766.918518	264.900000
766.955444	266.700000
766.992432	258.800000
767.029358	261.500000
767.066284	265.600000
767.103271	262.200000
767.140198	292.900000
767.177124	278.200000
767.214050	267.300000
767.251038	269.200000
767.287964	263.200000
767.324890	260.100000
767.361816	266.800000
767.398743	271.000000
767.435730	264.500000
767.472595	268.700000
767.509583	273.000000
767.546509	263.200000
767.583374	269.700000
767.620361	261.600000
767.657288	267.100000
767.694214	268.000000
767.731140	266.800000
767.768066	269.200000
767.804993	272.100000
767.841919	261.600000
767.878845	268.700000
767.915710	277.700000
767.952698	268.800000
767.989563	272.600000
768.026489	273.300000
768.063416	267.800000
768.100281	266.000000
768.137207	279.200000
768.174133	276.100000
768.211060	278.500000
768.247986	274.500000
768.284912	275.800000
768.321777	277.400000
768.358704	274.300000
768.395630	276.200000
768.432495	270.000000
768.469421	278.500000
768.506348	282.900000
768.543152	288.800000
768.580078	283.800000
768.616943	286.100000
768.653870	288.200000
768.690796	286.000000
768.727661	283.600000
768.764587	283.100000
768.801453	278.200000
768.838318	289.600000
768.875244	287.400000
768.912109	292.000000
768.948975	282.400000
768.985901	286.000000
769.022766	285.500000
769.059631	291.700000
769.096558	283.200000
769.133362	286.300000
769.170288	286.000000
769.207214	288.000000
769.244019	293.000000
769.280945	291.400000
769.317810	297.600000
769.354675	292.600000
769.391541	302.200000
769.428406	297.500000
769.465271	305.500000
769.502136	294.700000
769.539062	298.200000
769.575867	297.600000
769.612732	300.000000
769.649597	308.000000
769.686462	307.200000
769.723328	302.800000
769.760193	299.100000
769.797058	304.700000
769.833923	313.600000
769.870728	308.900000
769.907593	310.100000
769.944519	310.100000
769.981323	311.700000
770.018188	313.200000
770.055054	308.800000
770.091858	308.700000
770.128723	320.500000
770.165588	325.600000
770.202393	309.600000
770.239258	321.500000
770.276062	319.100000
770.312927	320.400000
770.349792	325.000000
770.386597	323.600000
770.423462	331.600000
770.460327	340.100000
770.497131	324.900000
770.533997	319.700000
770.570862	333.000000
770.607605	334.400000
770.644470	330.400000
770.681335	333.500000
770.718140	332.500000
770.754944	325.000000
770.791809	327.200000
770.828613	329.700000
770.865479	332.100000
770.902222	343.200000
770.939087	338.500000
770.975952	329.000000
771.012695	333.400000
771.049561	346.400000
771.086365	337.400000
771.123169	334.500000
771.159973	339.000000
771.196838	340.100000
771.233582	343.800000
771.270447	341.400000
771.307251	348.700000
771.344055	342.700000
771.380859	346.500000
771.417664	340.500000
771.454468	350.100000
771.491272	349.400000
771.528076	352.400000
771.564880	346.500000
771.601685	359.700000
771.638428	346.200000
771.675293	357.200000
771.712097	347.100000
771.748840	363.200000
771.785645	354.100000
771.822449	359.900000
771.859253	363.200000
771.896057	361.100000
771.932861	368.200000
771.969604	359.000000
772.006409	353.400000
772.043213	366.900000
772.079956	361.300000
772.116760	357.000000
772.153503	360.300000
772.190308	371.800000
772.227112	359.600000
772.263855	356.700000
772.300659	359.900000
772.337463	372.200000
772.374207	360.900000
772.411011	357.600000
772.447754	360.200000
772.484497	376.800000
772.521301	370.400000
772.558105	368.600000
772.594849	368.700000
772.631592	373.400000
772.668396	371.500000
772.705139	376.400000
772.741882	371.900000
772.778625	384.500000
772.815430	386.700000
772.852173	380.900000
772.888916	386.300000
772.925720	386.500000
772.962463	395.400000
772.999207	387.500000
773.035950	393.000000
773.072754	391.900000
773.109436	386.100000
773.146240	389.600000
773.182922	388.000000
773.219727	395.900000
773.256470	389.000000
773.293152	379.500000
773.329956	388.200000
773.366699	395.200000
773.403381	387.000000
773.440186	393.500000
773.476929	395.500000
773.513611	389.500000
773.550354	391.200000
773.587158	390.700000
773.623840	391.400000
773.660583	398.000000
773.697327	411.700000
773.734009	400.700000
773.770813	401.800000
773.807495	399.700000
773.844238	400.200000
773.880981	414.400000
773.917664	407.700000
773.954407	415.500000
773.991150	407.500000
774.027832	410.600000
774.064575	401.700000
774.101318	409.000000
774.138000	411.700000
774.174744	407.800000
774.211487	408.800000
774.248108	398.800000
774.284851	398.200000
774.321594	405.900000
774.358276	408.800000
774.395020	416.300000
774.431702	413.000000
774.468384	408.300000
774.505127	403.900000
774.541809	410.600000
774.578491	418.900000
774.615234	424.100000
774.651917	415.500000
774.688599	417.800000
774.725342	426.900000
774.762024	422.300000
774.798706	427.400000
774.835449	425.700000
774.872070	433.200000
774.908813	430.100000
774.945496	429.900000
774.982178	429.500000
775.018860	432.900000
775.055542	433.500000
775.092224	435.700000
775.128967	441.200000
775.165588	440.400000
775.202271	433.100000
775.239014	442.500000
775.275635	445.300000
775.312317	438.600000
775.349060	444.300000
775.385681	445.000000
775.422363	438.100000
775.459045	445.800000
775.495667	447.200000
775.532410	449.000000
775.569092	454.000000
775.605713	453.900000
775.642395	450.500000
775.679016	452.300000
775.715698	455.700000
775.752380	458.400000
775.789001	449.700000
775.825684	453.200000
775.862366	458.900000
775.898987	468.200000
775.935669	461.000000
775.972351	476.900000
776.008972	474.300000
776.045654	472.800000
776.082336	468.800000
776.118958	472.400000
776.155640	472.700000
776.192322	483.000000
776.228882	484.700000
776.265564	483.600000
776.302185	480.500000
776.338867	489.300000
776.375488	477.800000
776.412109	488.300000
776.448792	493.300000
776.485413	502.200000
776.522034	488.100000
776.558716	484.900000
776.595337	483.800000
776.631958	493.200000
776.668579	494.500000
776.705261	502.400000
776.741882	494.500000
776.778503	498.300000
776.815186	494.000000
776.851746	500.500000
776.888367	500.000000
776.924988	509.500000
776.961609	500.700000
776.998291	501.500000
777.034851	497.600000
777.071472	510.500000
777.108154	505.300000
777.144714	518.800000
777.181335	519.100000
777.218018	508.000000
777.254578	516.200000
777.291199	515.700000
777.327759	522.100000
777.364380	530.300000
777.401062	535.400000
777.437622	547.300000
777.474243	533.500000
777.510864	540.300000
777.547424	530.500000
777.584045	533.700000
777.620667	534.700000
777.657227	542.100000
777.693848	541.900000
777.730469	559.100000
777.767029	543.800000
777.803650	551.800000
777.840271	545.800000
777.876831	546.600000
777.913452	556.300000
777.950012	541.000000
777.986633	541.500000
778.023193	538.000000
778.059753	538.500000
778.096375	541.900000
778.132996	555.900000
778.169556	547.000000
778.206116	548.200000
778.242737	542.400000
778.279297	555.200000
778.315857	544.200000
778.352478	547.500000
778.389038	557.200000
778.425598	555.100000
778.462219	563.300000
778.498718	557.300000
778.535339	564.100000
778.571838	564.600000
778.608459	571.600000
778.645020	562.500000
778.681580	573.100000
778.718140	571.300000
778.754761	564.600000
778.791260	570.900000
778.827881	577.000000
778.864441	575.100000
778.900940	584.200000
778.937561	578.300000
778.974121	578.700000
779.010620	569.000000
779.047241	573.300000
779.083801	587.000000
779.120300	581.700000
779.156860	584.700000
779.193359	581.500000
779.229980	578.600000
779.266541	579.700000
779.303040	582.000000
779.339600	576.300000
779.376160	572.400000
779.412659	576.200000
779.449219	572.200000
779.485779	580.900000
779.522278	579.500000
779.558838	588.300000
779.595398	589.600000
779.631897	586.800000
779.668457	583.500000
779.705017	593.200000
779.741516	583.800000
779.778076	578.200000
779.814575	584.200000
779.851074	590.600000
779.887634	587.400000
779.924133	592.400000
779.960693	580.700000
779.997253	593.500000
780.033691	598.200000
780.070251	598.000000
780.106812	609.100000
780.143250	602.100000
780.179810	596.900000
780.216370	596.300000
780.252808	598.200000
780.289368	605.600000
780.325867	607.300000
780.362366	603.900000
780.398865	615.000000
780.435364	606.600000
780.471863	618.000000
780.508423	612.600000
780.544861	617.800000
780.581421	619.200000
780.617920	607.600000
780.654419	604.400000
780.690918	612.400000
780.727417	620.000000
780.763916	616.200000
780.800415	623.700000
780.836914	610.700000
780.873352	623.100000
780.909912	612.700000
780.946411	620.100000
780.982849	628.300000
781.019348	641.200000
781.055786	636.100000
781.092346	630.300000
781.128845	639.000000
781.165283	643.200000
781.201782	655.900000
781.238281	657.900000
781.274719	660.600000
781.311218	654.100000
781.347717	661.900000
781.384155	650.200000
781.420654	654.200000
781.457092	663.700000
781.493591	659.000000
781.530090	654.800000
781.566528	656.600000
781.602966	660.500000
781.639465	656.500000
781.675903	655.500000
781.712402	661.000000
781.748901	669.200000
781.785278	659.100000
781.821777	665.900000
781.858276	664.200000
781.894714	682.000000
781.931152	675.000000
781.967651	683.100000
782.004089	675.400000
782.040527	688.600000
782.076965	687.500000
782.113403	691.400000
782.149902	695.300000
782.186340	688.600000
782.222778	708.700000
782.259277	697.900000
782.295654	696.700000
782.332092	702.400000
782.368591	701.700000
782.404968	699.500000
782.441467	709.700000
782.477905	707.300000
782.514282	701.300000
782.550781	717.700000
782.587219	717.500000
782.623596	725.300000
782.660095	726.400000
782.696472	730.000000
782.732910	734.500000
782.769348	737.700000
782.805786	756.800000
782.842224	752.700000
782.878662	741.800000
782.915039	744.600000
782.951477	748.700000
782.987915	742.600000
783.024292	759.800000
783.060730	758.800000
783.097168	748.200000
783.133545	743.000000
783.169983	738.800000
783.206421	729.100000
783.242798	726.400000
783.279236	718.100000
783.315613	716.400000
783.352051	712.100000
783.388489	703.400000
783.424866	694.600000
783.461304	704.300000
783.497681	712.000000
783.534058	712.800000
783.570496	706.700000
783.606934	706.200000
783.643250	710.800000
783.679687	722.500000
783.716125	715.100000
783.752441	728.700000
783.788879	746.400000
783.825317	758.700000
783.861633	760.000000
783.898071	765.400000
783.934448	781.000000
783.970825	788.100000
784.007263	792.100000
784.043579	793.500000
784.080017	791.300000
784.116394	785.800000
784.152710	784.900000
784.189148	792.600000
784.225525	789.400000
784.261902	779.300000
784.298279	777.700000
784.334656	773.400000
784.371033	764.600000
784.407410	765.000000
784.443787	748.500000
784.480164	736.000000
784.516541	717.000000
784.552856	723.200000
784.589233	717.900000
784.625610	711.100000
784.661987	740.700000
784.698364	732.400000
784.734741	724.800000
784.771057	723.700000
784.807434	726.000000
784.843811	732.900000
784.880127	714.200000
784.916504	718.700000
784.952881	700.800000
784.989197	670.800000
785.025574	643.400000
785.061951	613.100000
785.098267	596.600000
785.134644	554.700000
785.170959	528.100000
785.207275	512.300000
785.243652	498.600000
785.279968	480.900000
785.316345	486.200000
785.352722	491.700000
785.388977	501.100000
785.425354	511.700000
785.461731	526.600000
785.498047	546.300000
785.534363	566.200000
785.570679	594.000000
785.606995	619.000000
785.643372	648.300000
785.679687	665.700000
785.716003	670.800000
785.752380	689.600000
785.788635	704.100000
785.825012	729.700000
785.861328	745.400000
785.897644	742.200000
785.933960	759.000000
785.970337	762.400000
786.006592	776.200000
786.042908	786.600000
786.079285	796.800000
786.115540	803.400000
786.151855	803.700000
786.188171	800.100000
786.224487	798.400000
786.260803	796.300000
786.297119	807.700000
786.333435	804.500000
786.369751	798.900000
786.406006	796.900000
786.442322	781.000000
786.478638	775.300000
786.514954	790.500000
786.551270	780.200000
786.587585	797.200000
786.623840	784.900000
786.660156	778.000000
786.696472	763.300000
786.732727	763.300000
786.769043	761.500000
786.805298	755.300000
786.841614	759.700000
786.877930	772.800000
786.914124	759.700000
786.950439	780.900000
786.986755	787.700000
787.023010	801.900000
787.059326	810.100000
787.095642	813.000000
787.131836	823.400000
787.168152	817.100000
787.204468	819.900000
787.240723	830.800000
787.276978	842.500000
787.313293	847.100000
787.349548	842.000000
787.385803	845.400000
787.422058	835.300000
787.458313	829.600000
787.494629	827.800000
787.530823	830.000000
787.567139	815.100000
787.603455	808.100000
787.639648	797.400000
787.675903	803.700000
787.712219	799.700000
787.748413	792.200000
787.784729	805.600000
787.820984	797.800000
787.857178	791.200000
787.893494	788.100000
787.929749	785.300000
787.965942	795.400000
788.002258	814.700000
788.038452	823.700000
788.074707	817.200000
788.110962	827.400000
788.147217	822.800000
788.183472	835.300000
788.219727	841.800000
788.255920	863.300000
788.292175	875.100000
788.328430	872.000000
788.364624	856.800000
788.400879	849.500000
788.437134	856.100000
788.473328	853.500000
788.509583	851.200000
788.545837	847.200000
788.582031	848.800000
788.618286	843.200000
788.654480	841.900000
788.690735	850.700000
788.726990	870.200000
788.763184	867.200000
788.799377	884.200000
788.835632	871.100000
788.871826	886.100000
788.908081	884.500000
788.944336	876.100000
788.980469	897.900000
789.016724	889.600000
789.052979	889.100000
789.089111	880.100000
789.125366	887.100000
789.161621	870.400000
789.197754	881.800000
789.234009	878.600000
789.270142	866.200000
789.306396	863.500000
789.342590	858.800000
789.378784	840.600000
789.414978	836.200000
789.451233	851.000000
789.487366	850.700000
789.523621	859.000000
789.559814	848.800000
789.595947	841.100000
789.632202	854.400000
789.668335	861.800000
789.704529	884.700000
789.740784	899.300000
789.776917	908.600000
789.813110	895.800000
789.849304	906.500000
789.885498	908.500000
789.921692	924.000000
789.957886	927.100000
789.994019	936.700000
790.030212	936.500000
790.066406	941.900000
790.102539	941.200000
790.138733	942.000000
790.174927	937.900000
790.211060	948.100000
790.247253	941.700000
790.283386	928.500000
790.319580	920.400000
790.355774	904.500000
790.391907	908.900000
790.428101	923.000000
790.464294	922.600000
790.500427	919.600000
790.536621	894.500000
790.572754	880.500000
790.608887	879.800000
790.645081	888.900000
790.681274	904.100000
790.717346	906.800000
790.753540	894.900000
790.789734	867.800000
790.825867	855.400000
790.862000	861.000000
790.898132	874.400000
790.934265	880.900000
790.970459	885.100000
791.006592	881.300000
791.042725	879.700000
791.078918	868.100000
791.114990	869.800000
791.151184	865.200000
791.187317	879.700000
791.223389	875.400000
791.259583	863.000000
791.295715	863.400000
791.331848	865.200000
791.367981	873.100000
791.404114	888.700000
791.440247	886.000000
791.476379	893.100000
791.512451	874.700000
791.548584	873.800000
791.584778	863.200000
791.620850	879.900000
791.656982	892.300000
791.693115	897.800000
791.729187	886.000000
791.765381	883.000000
791.801514	880.600000
791.837585	885.600000
791.873718	888.900000
791.909851	898.900000
791.945923	907.000000
791.982056	874.700000
792.018188	867.300000
792.054260	872.600000
792.090393	872.300000
792.126465	864.800000
792.162598	874.200000
792.198669	859.400000
792.234741	856.200000
792.270874	854.600000
792.307007	836.600000
792.343079	842.700000
792.379150	854.500000
792.415283	843.500000
792.451355	845.500000
792.487488	826.600000
792.523560	822.000000
792.559631	806.900000
792.595764	772.600000
792.631836	742.900000
792.667908	733.400000
792.703979	711.700000
792.740051	725.900000
792.776184	757.000000
792.812256	764.000000
792.848328	774.100000
792.884399	784.400000
792.920471	787.000000
792.956543	785.800000
792.992615	788.400000
793.028748	781.500000
793.064758	784.500000
793.100830	800.600000
793.136963	815.900000
793.172974	813.900000
793.209045	807.400000
793.245178	819.400000
793.281189	803.100000
793.317261	811.300000
793.353271	809.400000
793.389404	824.800000
793.425476	816.600000
793.461487	804.000000
793.497559	801.400000
793.533630	798.700000
793.569641	796.800000
793.605713	798.900000
793.641785	802.100000
793.677795	810.800000
793.713867	802.600000
793.749878	807.100000
793.785950	817.700000
793.822021	821.600000
793.858032	806.300000
793.894104	825.300000
793.930176	812.700000
793.966187	813.100000
794.002258	803.300000
794.038269	804.000000
794.074280	804.600000
794.110352	832.300000
794.146423	811.200000
794.182373	808.500000
794.218445	805.600000
794.254517	799.300000
794.290466	784.900000
794.326538	798.000000
794.362549	799.300000
794.398560	807.800000
794.434631	809.600000
794.470581	790.600000
794.506653	785.600000
794.542664	788.100000
794.578674	789.500000
794.614685	796.700000
794.650757	793.600000
794.686707	791.800000
794.722778	782.500000
794.758789	786.000000
794.794739	790.100000
794.830811	815.100000
794.866821	834.800000
794.902771	838.500000
794.938843	827.100000
794.974792	827.800000
795.010803	826.800000
795.046814	830.700000
795.082825	817.200000
795.118835	831.300000
795.154846	814.700000
795.190796	822.700000
795.226807	795.900000
795.262817	809.200000
795.298767	809.000000
795.334778	816.100000
795.370850	807.400000
795.406799	817.800000
795.442810	799.600000
795.478821	795.500000
795.514709	795.600000
795.550720	812.100000
795.586670	793.700000
795.622681	801.100000
795.658691	800.800000
795.694641	795.300000
795.730652	787.400000
795.766663	793.900000
795.802551	798.100000
795.838562	811.600000
795.874573	802.100000
795.910522	800.100000
795.946472	794.900000
795.982483	794.300000
796.018433	793.100000
796.054382	801.500000
796.090393	794.600000
796.126282	792.000000
796.162292	784.900000
796.198242	780.100000
796.234192	780.600000
796.270203	775.800000
796.306091	779.900000
796.342041	792.900000
796.378052	785.500000
796.413940	784.900000
796.449951	791.700000
796.485901	785.700000
796.521790	792.400000
796.557800	802.700000
796.593689	800.200000
796.629639	793.500000
796.665649	795.400000
796.701599	788.200000
796.737488	788.700000
796.773437	789.800000
796.809387	793.900000
796.845337	798.400000
796.881287	796.300000
796.917175	773.700000
796.953125	774.800000
796.989075	783.100000
797.024963	784.200000
797.060913	778.600000
797.096863	782.700000
797.132751	774.600000
797.168701	762.900000
797.204590	768.400000
797.240540	771.300000
797.276489	781.300000
797.312439	787.700000
797.348328	784.600000
797.384277	778.400000
797.420166	764.100000
797.456055	765.500000
797.492004	762.100000
797.527893	768.200000
797.563843	775.700000
797.599731	767.300000
797.635620	753.300000
797.671570	765.700000
797.707520	758.300000
797.743347	758.100000
797.779297	766.200000
797.815125	761.800000
797.851074	752.400000
797.887024	743.600000
797.922913	734.200000
797.958801	742.900000
797.994690	742.000000
798.030579	746.100000
798.066467	757.600000
798.102356	743.200000
798.138245	738.200000
798.174133	732.100000
798.210083	740.400000
798.245911	749.400000
798.281799	753.500000
798.317749	742.600000
798.353577	735.800000
798.389465	735.100000
798.425293	730.900000
798.461243	732.600000
798.497131	739.900000
798.532959	741.500000
798.568848	746.600000
798.604736	733.200000
798.640564	720.900000
798.676453	719.500000
798.712402	722.700000
798.748230	727.700000
798.784119	728.600000
798.820007	726.800000
798.855835	722.300000
798.891724	715.100000
798.927551	708.300000
798.963379	723.500000
798.999268	717.400000
799.035095	712.700000
799.070984	706.900000
799.106873	700.400000
799.142700	702.000000
799.178528	691.000000
799.214417	693.900000
799.250244	709.900000
799.286133	702.200000
799.321960	702.300000
799.357788	696.900000
799.393677	686.900000
799.429504	687.200000
799.465332	690.400000
799.501221	695.900000
799.537048	696.300000
799.572876	684.600000
799.608704	683.900000
799.644531	692.200000
799.680359	691.600000
799.716248	702.200000
799.752014	709.000000
799.787903	699.300000
799.823730	695.900000
799.859558	686.200000
799.895386	689.300000
799.931213	687.700000
799.967041	682.800000
800.002869	685.000000
800.038696	699.500000
800.074463	683.100000
800.110352	687.000000
800.146179	676.200000
800.181946	689.900000
800.217773	691.500000
800.253540	691.100000
800.289429	681.100000
800.325256	674.200000
800.361023	664.500000
800.396851	668.200000
800.432678	671.900000
800.468445	676.300000
800.504272	673.500000
800.540100	657.000000
800.575867	657.600000
800.611694	663.300000
800.647461	660.400000
800.683289	663.600000
800.719116	669.100000
800.754883	667.200000
800.790649	652.500000
800.826477	644.700000
800.862244	668.900000
800.898071	653.200000
800.933838	653.400000
800.969604	646.800000
801.005432	649.200000
801.041199	648.000000
801.076965	642.600000
801.112793	629.300000
801.148560	631.900000
801.184326	632.700000
801.220154	637.000000
801.255859	627.900000
801.291687	629.900000
801.327454	622.300000
801.363281	623.200000
801.398987	621.400000
801.434814	621.100000
801.470520	630.900000
801.506287	622.000000
801.542114	610.400000
801.577820	611.600000
801.613647	610.000000
801.649414	610.200000
801.685120	614.900000
801.720886	620.200000
801.756714	611.500000
801.792419	599.700000
801.828186	591.600000
801.863892	605.400000
801.899719	596.300000
801.935486	595.100000
801.971252	602.600000
802.006958	597.500000
802.042725	594.100000
802.078430	596.800000
802.114197	592.300000
802.149963	607.300000
802.185669	594.000000
802.221436	594.800000
802.257202	595.800000
802.292908	589.200000
802.328674	597.800000
802.364441	598.300000
802.400146	594.400000
802.435913	595.400000
802.471558	590.800000
802.507324	588.200000
802.543091	577.600000
802.578796	590.400000
802.614502	592.700000
802.650269	596.900000
802.685974	579.800000
802.721741	584.500000
802.757446	590.800000
802.793152	584.300000
802.828918	595.300000
802.864624	592.700000
802.900330	593.200000
802.936035	587.700000
802.971802	586.600000
803.007446	581.900000
803.043213	573.800000
803.078857	581.600000
803.114624	570.400000
803.150330	574.300000
803.185974	567.300000
803.221741	570.900000
803.257446	583.200000
803.293152	582.000000
803.328857	575.600000
803.364563	571.100000
803.400208	564.800000
803.435974	574.100000
803.471680	564.700000
803.507324	562.600000
803.543030	572.100000
803.578735	573.000000
803.614441	567.000000
803.650146	574.900000
803.685791	565.300000
803.721497	563.900000
803.757202	554.800000
803.792847	563.200000
803.828552	554.500000
803.864258	556.500000
803.899902	552.500000
803.935608	535.200000
803.971313	542.700000
804.006958	542.500000
804.042664	538.800000
804.078308	545.800000
804.113953	542.100000
804.149658	549.100000
804.185364	536.400000
804.221008	548.400000
804.256714	537.400000
804.292297	533.400000
804.328003	533.000000
804.363708	530.600000
804.399292	530.000000
804.434998	531.200000
804.470703	521.200000
804.506287	534.600000
804.541992	528.500000
804.577637	532.900000
804.613281	515.000000
804.648926	515.800000
804.684570	520.200000
804.720215	514.000000
804.755920	511.900000
804.791565	510.500000
804.827209	517.500000
804.862854	512.900000
804.898437	506.000000
804.934143	508.500000
804.969788	506.900000
805.005371	510.400000
805.041077	510.200000
805.076721	509.500000
805.112305	499.700000
805.147949	498.300000
805.183655	493.000000
805.219238	499.800000
805.254883	499.200000
805.290466	506.200000
805.326111	501.200000
805.361755	492.900000
805.397400	496.000000
805.432983	498.000000
805.468628	491.800000
805.504211	497.700000
805.539856	492.600000
805.575500	500.300000
805.611084	489.900000
805.646729	477.700000
805.682373	481.700000
805.717957	492.200000
805.753601	495.300000
805.789246	480.500000
805.824768	489.500000
805.860413	491.200000
805.895996	475.200000
805.931641	478.200000
805.967224	484.000000
806.002869	477.700000
806.038452	488.000000
806.074036	486.000000
806.109619	474.400000
806.145264	471.600000
806.180847	473.200000
806.216431	471.000000
806.252014	476.500000
806.287659	476.400000
806.323181	483.700000
806.358826	475.100000
806.394409	461.800000
806.429993	465.000000
806.465576	480.900000
806.501160	462.300000
806.536743	459.200000
806.572327	467.100000
806.607910	465.500000
806.643494	466.800000
806.679077	459.100000
806.714661	462.800000
806.750244	463.700000
806.785828	455.800000
806.821350	458.300000
806.856934	464.700000
806.892517	457.300000
806.928101	452.600000
806.963684	453.400000
806.999268	464.400000
807.034790	444.100000
807.070374	449.100000
807.105896	439.600000
807.141479	439.300000
807.177063	445.900000
807.212585	440.100000
807.248169	439.200000
807.283752	445.300000
807.319275	440.200000
807.354858	441.600000
807.390381	438.700000
807.425903	436.000000
807.461487	435.200000
807.497070	429.000000
807.532593	431.200000
807.568115	425.600000
807.603699	424.900000
807.639221	423.400000
807.674744	427.300000
807.710266	432.900000
807.745850	433.900000
807.781372	427.000000
807.816895	424.100000
807.852417	427.400000
807.888000	424.400000
807.923523	420.900000
807.959045	424.900000
807.994629	416.900000
808.030090	414.700000
808.065613	420.600000
808.101135	422.600000
808.136658	420.400000
808.172241	416.200000
808.207764	416.900000
808.243225	411.800000
808.278809	407.600000
808.314270	415.900000
808.349792	403.100000
808.385315	401.800000
808.420837	407.600000
808.456360	412.700000
808.491882	412.600000
808.527344	410.000000
808.562866	418.400000
808.598389	409.600000
808.633850	405.400000
808.669434	401.200000
808.704895	408.700000
808.740417	411.900000
808.775940	406.000000
808.811462	401.300000
808.846924	396.600000
808.882385	395.200000
808.917847	395.400000
808.953369	395.600000
808.988892	391.300000
809.024353	398.400000
809.059875	398.900000
809.095398	391.900000
809.130798	388.900000
809.166321	387.900000
809.201843	390.200000
809.237305	392.700000
809.272766	398.900000
809.308228	385.100000
809.343750	386.200000
809.379211	387.900000
809.414734	388.900000
809.450134	396.200000
809.485657	378.100000
809.521118	384.200000
809.556580	381.400000
809.592102	382.500000
809.627502	378.100000
809.663025	378.600000
809.698486	377.300000
809.733887	374.800000
809.769409	380.100000
809.804871	369.400000
809.840271	372.600000
809.875793	379.000000
809.911194	376.800000
809.946655	368.900000
809.982178	368.000000
810.017639	372.100000
810.053040	367.100000
810.088501	365.600000
810.123901	362.300000
810.159424	359.800000
810.194885	356.800000
810.230286	363.300000
810.265747	355.600000
810.301208	351.900000
810.336609	355.100000
810.372070	346.600000
810.407532	350.100000
810.442932	354.800000
810.478394	357.700000
810.513794	353.600000
810.549255	351.200000
810.584717	348.800000
810.620117	341.900000
810.655518	354.200000
810.690979	349.500000
810.726379	348.200000
810.761841	336.300000
810.797302	338.200000
810.832642	337.600000
810.868103	349.600000
810.903564	337.000000
810.938904	347.700000
810.974365	332.600000
811.009827	339.400000
811.045166	332.800000
811.080627	327.100000
811.115967	332.900000
811.151428	342.400000
811.186829	333.400000
811.222229	332.900000
811.257629	327.600000
811.293091	332.400000
811.328430	340.200000
811.363892	336.900000
811.399292	335.600000
811.434631	327.700000
811.470093	336.300000
811.505493	326.000000
811.540833	329.100000
811.576294	332.500000
811.611694	328.400000
811.647034	324.600000
811.682434	326.700000
811.717773	327.900000
811.753235	331.400000
811.788635	323.800000
811.823975	324.100000
811.859375	332.700000
811.894775	318.500000
811.930115	320.300000
811.965515	318.500000
812.000916	322.400000
812.036255	317.300000
812.071655	321.000000
812.106995	314.900000
812.142395	315.000000
812.177795	322.600000
812.213196	318.200000
812.248474	320.600000
812.283875	310.700000
812.319214	316.100000
812.354614	312.400000
812.390015	310.800000
812.425293	313.600000
812.460693	315.700000
812.496094	309.700000
812.531433	302.300000
812.566772	305.400000
812.602173	307.000000
812.637451	310.400000
812.672852	305.100000
812.708191	308.100000
812.743530	303.700000
812.778931	296.100000
812.814270	299.700000
812.849609	306.000000
812.884949	303.900000
812.920227	293.800000
812.955627	310.100000
812.990967	301.500000
813.026306	298.400000
813.061646	289.100000
813.096985	285.500000
813.132324	282.900000
813.167664	288.200000
813.203003	294.200000
813.238281	281.300000
813.273682	282.300000
813.308960	278.800000
813.344299	280.000000
813.379639	288.700000
813.414978	283.900000
813.450256	281.900000
813.485596	287.600000
813.520874	278.600000
813.556213	281.300000
813.591614	284.700000
813.626831	276.600000
813.662170	279.300000
813.697510	290.700000
813.732788	275.300000
813.768127	280.200000
813.803467	278.500000
813.838745	276.700000
813.874084	279.900000
813.909363	278.900000
813.944641	277.900000
813.979980	267.400000
814.015320	272.400000
814.050598	271.700000
814.085876	274.100000
814.121155	273.200000
814.156494	269.500000
814.191772	272.300000
814.227051	268.000000
814.262390	269.800000
814.297668	269.500000
814.332947	270.500000
814.368225	261.700000
814.403564	267.700000
814.438782	263.100000
814.474121	265.200000
814.509338	261.100000
814.544617	272.700000
814.579956	260.800000
814.615173	272.300000
814.650513	267.200000
814.685791	260.400000
814.721008	263.200000
814.756348	265.400000
814.791626	259.600000
814.826843	260.200000
814.862122	259.800000
814.897400	257.900000
814.932678	260.200000
814.967957	259.600000
815.003235	259.700000
815.038452	253.800000
815.073730	252.200000
815.108948	263.800000
815.144226	260.000000
815.179504	263.200000
815.214722	249.300000
815.250000	247.400000
815.285278	255.900000
815.320496	249.200000
815.355774	252.600000
815.391052	253.500000
815.426270	250.800000
815.461487	250.700000
815.496765	246.300000
815.531982	242.300000
815.567261	247.800000
815.602539	255.300000
815.637695	253.800000
815.672974	252.000000
815.708191	252.900000
815.743408	253.900000
815.778687	247.100000
815.813904	255.700000
815.849121	239.600000
815.884399	239.400000
815.919556	241.600000
815.954834	241.200000
815.990051	247.400000
816.025269	248.200000
816.060486	240.300000
816.095703	238.400000
816.130920	244.100000
816.166199	239.700000
816.201416	243.800000
816.236572	248.100000
816.271851	238.900000
816.307007	246.000000
816.342224	235.600000
816.377441	237.800000
816.412659	230.500000
816.447876	241.300000
816.483093	237.400000
816.518250	237.700000
816.553467	234.100000
816.588745	238.200000
816.623901	232.000000
816.659119	227.700000
816.694275	232.200000
816.729492	228.400000
816.764709	264.000000
816.799927	226.800000
816.835083	233.500000
816.870300	226.300000
816.905457	228.800000
816.940674	233.000000
816.975830	225.900000
817.010986	225.400000
817.046204	226.800000
817.081421	223.100000
817.116577	221.800000
817.151733	232.300000
817.186951	230.700000
817.222107	227.600000
817.257324	229.200000
817.292419	228.200000
817.327637	219.500000
817.362854	224.400000
817.398010	218.900000
817.433167	222.000000
817.468323	220.800000
817.503479	221.700000
817.538635	228.300000
817.573853	224.000000
817.608948	221.300000
817.644165	217.600000
817.679321	217.000000
817.714478	215.600000
817.749634	219.700000
817.784790	231.700000
817.819946	226.500000
817.855103	210.100000
817.890198	217.800000
817.925415	210.300000
817.960571	220.100000
817.995667	218.100000
818.030823	218.700000
818.066040	213.800000
818.101135	216.000000
818.136292	214.900000
818.171448	210.000000
818.206543	214.000000
818.241699	217.200000
818.276855	215.200000
818.311951	211.800000
818.347107	210.400000
818.382263	217.000000
818.417358	221.800000
818.452515	220.500000
818.487610	220.900000
818.522766	211.400000
818.557922	221.700000
818.593018	216.800000
818.628113	215.400000
818.663269	209.300000
818.698364	213.200000
818.733521	210.600000
818.768677	215.200000
818.803711	206.900000
818.838867	207.900000
818.874023	210.900000
818.909058	207.600000
818.944214	205.100000
818.979370	212.600000
819.014404	211.400000
819.049561	205.700000
819.084595	212.500000
819.119751	201.900000
819.154846	210.600000
819.189941	205.900000
819.225037	203.700000
819.260193	199.100000
819.295227	201.700000
819.330322	196.600000
819.365479	196.500000
819.400513	227.500000
819.435608	195.700000
819.470764	193.600000
819.505798	196.100000
819.540894	197.600000
819.575989	199.300000
819.611084	207.100000
819.646179	207.200000
819.681213	201.200000
819.716309	198.900000
819.751404	197.000000
819.786438	204.200000
819.821533	196.200000
819.856628	200.000000
819.891663	203.000000
819.926758	210.000000
819.961853	205.600000
819.996887	196.800000
820.031982	202.000000
820.067017	199.500000
820.102112	228.100000
820.137207	196.500000
820.172302	213.000000
820.207275	195.600000
820.242371	195.000000
820.277405	195.700000
820.312500	196.700000
820.347534	200.700000
820.382568	203.800000
820.417664	195.900000
820.452759	195.800000
820.487732	194.200000
820.522827	195.700000
820.557861	192.300000
820.592896	194.800000
820.627930	195.600000
820.662964	192.000000
820.698059	197.500000
820.733093	193.800000
820.768127	198.500000
820.803162	194.900000
820.838196	191.600000
820.873230	196.700000
820.908264	195.100000
820.943298	192.000000
820.978333	200.000000
821.013367	196.200000
821.048401	199.600000
821.083435	200.800000
821.118469	187.000000
821.153503	199.600000
821.188477	195.500000
821.223511	188.700000
821.258484	193.900000
821.293579	195.900000
821.328613	187.900000
821.363647	192.000000
821.398621	187.400000
821.433655	190.300000
821.468628	204.700000
821.503662	193.800000
821.538696	196.900000
821.573669	189.100000
821.608704	195.000000
821.643677	191.400000
821.678650	197.500000
821.713684	202.100000
821.748718	191.500000
821.783691	192.800000
821.818726	194.600000
821.853638	196.600000
821.888672	190.500000
821.923706	192.700000
821.958618	190.500000
821.993652	191.100000
822.028687	197.900000
822.063599	199.100000
822.098633	194.300000
822.133667	189.400000
822.168579	190.800000
822.203613	195.400000
822.238586	190.100000
822.273560	194.000000
822.308533	188.800000
822.343567	189.300000
822.378479	191.300000
822.413452	191.000000
822.448425	188.400000
822.483398	198.000000
822.518372	197.100000
822.553345	189.200000
822.588318	200.200000
822.623291	190.800000
822.658203	191.500000
822.693237	192.400000
822.728210	188.500000
822.763123	193.000000
822.798096	187.000000
822.833069	191.400000
822.867981	190.600000
822.902954	193.800000
822.937927	195.100000
822.972900	202.100000
823.007874	185.600000
823.042725	196.600000
823.077698	203.600000
823.112671	188.200000
823.147583	188.800000
823.182556	193.900000
823.217529	197.600000
823.252441	189.100000
823.287415	205.400000
823.322388	193.600000
823.357239	191.300000
823.392212	198.300000
823.427185	197.300000
823.462097	187.200000
823.497009	194.500000
823.531982	188.300000
823.566895	192.600000
823.601807	187.400000
823.636719	190.600000
823.671631	194.800000
823.706604	191.600000
823.741455	194.500000
823.776428	186.300000
823.811340	196.700000
823.846252	197.800000
823.881165	199.200000
823.916138	194.000000
823.950989	201.000000
823.985901	190.300000
824.020813	194.200000
824.055725	188.900000
824.090637	186.200000
824.125610	194.000000
824.160461	194.500000
824.195374	194.400000
824.230225	196.600000
824.265198	183.300000
824.300110	190.500000
824.334961	203.000000
824.369873	183.100000
824.404785	194.700000
824.439636	198.300000
824.474548	182.400000
824.509460	182.800000
824.544312	197.300000
824.579224	194.400000
824.614075	194.600000
824.648987	189.700000
824.683899	190.900000
824.718811	189.300000
824.753662	197.300000
824.788574	196.900000
824.823364	191.900000
824.858276	187.700000
824.893188	195.400000
824.928040	196.800000
824.962952	192.700000
824.997803	194.800000
825.032654	192.200000
825.067566	194.100000
825.102417	188.000000
825.137268	189.800000
825.172119	189.600000
825.206970	188.100000
825.241882	188.000000
825.276733	187.800000
825.311646	187.200000
825.346436	186.000000
825.381348	184.300000
825.416138	190.300000
825.450989	185.600000
825.485901	181.700000
825.520691	182.400000
825.555542	182.900000
825.590454	189.600000
825.625244	182.100000
825.660095	196.100000
825.695007	193.300000
825.729797	187.900000
825.764648	185.100000
825.799438	187.600000
825.834290	189.600000
825.869202	182.300000
825.903992	189.600000
825.938843	185.400000
825.973694	183.300000
826.008484	200.600000
826.043335	184.000000
826.078186	180.300000
826.112976	193.900000
826.147827	194.000000
826.182678	197.100000
826.217468	181.300000
826.252319	191.300000
826.287109	183.300000
826.321899	193.000000
826.356750	187.500000
826.391541	182.600000
826.426392	192.700000
826.461182	186.600000
826.495972	180.500000
826.530823	177.400000
826.565613	187.600000
826.600403	181.300000
826.635254	190.300000
826.670044	179.200000
826.704834	180.200000
826.739685	180.000000
826.774475	188.900000
826.809265	187.500000
826.844055	185.800000
826.878906	192.700000
826.913635	188.100000
826.948425	189.400000
826.983215	187.700000
827.018005	190.300000
827.052856	186.100000
827.087585	187.700000
827.122375	179.500000
827.157227	184.900000
827.191956	199.500000
827.226746	181.000000
827.261536	191.600000
827.296265	179.900000
827.331116	184.400000
827.365906	190.100000
827.400635	183.700000
827.435425	178.000000
827.470215	193.300000
827.504944	184.700000
827.539734	192.300000
827.574463	186.300000
827.609253	194.200000
827.644043	187.100000
827.678772	193.300000
827.713562	184.800000
827.748352	185.200000
827.783081	183.900000
827.817871	187.600000
827.852600	184.000000
827.887329	187.700000
827.922119	178.100000
827.956848	191.400000
827.991638	200.800000
828.026367	187.400000
828.061157	187.200000
828.095886	185.900000
828.130615	200.500000
828.165344	176.500000
828.200073	187.100000
828.234863	184.300000
828.269592	186.100000
828.304321	191.200000
828.339111	187.600000
828.373779	182.700000
828.408569	191.900000
828.443298	191.000000
828.477966	184.400000
828.512756	185.200000
828.547424	180.700000
828.582214	183.000000
828.616943	184.600000
828.651672	184.500000
828.686340	189.400000
828.721130	182.900000
828.755798	185.400000
828.790527	185.700000
828.825256	186.500000
828.859924	185.800000
828.894714	193.400000
828.929443	195.600000
828.964111	184.100000
828.998840	189.100000
829.033569	183.700000
829.068237	184.100000
829.102966	183.700000
829.137634	187.700000
829.172363	187.200000
829.207092	187.000000
829.241821	183.400000
829.276489	178.200000
829.311157	187.000000
829.345825	183.500000
829.380554	190.400000
829.415283	182.300000
829.449951	179.600000
829.484619	194.500000
829.519348	193.600000
829.554016	186.800000
829.588745	186.200000
829.623413	181.600000
829.658081	197.200000
829.692749	181.600000
829.727417	190.700000
829.762146	189.000000
829.796814	182.700000
829.831482	185.200000
829.866150	186.900000
829.900879	183.500000
829.935486	188.300000
829.970154	185.000000
830.004883	196.600000
830.039490	186.800000
830.074219	182.800000
830.108887	188.900000
830.143494	184.400000
830.178223	181.000000
830.212891	183.800000
830.247498	186.800000
830.282166	193.300000
830.316772	191.500000
830.351501	183.600000
830.386169	186.100000
830.420776	184.000000
830.455444	187.000000
830.490112	182.700000
830.524719	178.800000
830.559387	188.900000
830.594055	189.700000
830.628662	185.900000
830.663330	186.700000
830.697998	194.100000
830.732605	186.300000
830.767273	188.700000
830.801941	186.200000
830.836487	195.700000
830.871155	188.500000
830.905762	188.600000
830.940430	179.800000
830.975098	182.500000
831.009644	187.200000
831.044312	194.100000
831.078979	189.400000
831.113525	178.900000
831.148193	186.100000
831.182861	186.100000
831.217407	190.500000
831.252075	202.600000
831.286621	183.900000
831.321289	182.400000
831.355896	187.200000
831.390564	193.600000
831.425110	186.400000
831.459778	193.300000
831.494324	199.400000
831.528931	190.300000
831.563599	189.400000
831.598145	180.000000
831.632751	185.900000
831.667419	186.100000
831.701965	187.800000
831.736572	189.200000
831.771179	179.600000
831.805786	183.100000
831.840393	191.600000
831.874939	180.200000
831.909546	190.900000
831.944153	178.000000
831.978760	185.400000
832.013306	181.800000
832.047913	192.600000
832.082458	195.100000
832.117065	182.700000
832.151672	194.700000
832.186218	186.700000
832.220825	189.100000
832.255432	176.700000
832.289978	183.300000
832.324585	187.800000
832.359192	188.800000
832.393677	184.100000
832.428284	187.700000
832.462830	185.100000
832.497437	185.400000
832.531982	190.400000
832.566589	186.000000
832.601135	187.000000
832.635681	179.200000
832.670227	187.000000
832.704773	195.700000
832.739380	188.500000
832.773926	186.700000
832.808472	182.000000
832.843079	187.300000
832.877563	190.700000
832.912170	184.900000
832.946716	180.000000
832.981201	191.700000
833.015808	189.300000
833.050293	185.600000
833.084839	182.900000
833.119446	184.800000
833.153992	189.800000
833.188477	185.100000
833.223022	182.100000
833.257568	186.700000
833.292114	193.000000
833.326660	196.800000
833.361145	184.200000
833.395691	178.000000
833.430237	185.800000
833.464783	190.200000
833.499329	183.800000
833.533875	180.200000
833.568359	188.800000
833.602905	191.700000
833.637390	191.500000
833.671875	183.000000
833.706421	185.200000
833.740906	181.700000
833.775452	176.700000
833.809998	182.900000
833.844482	192.700000
833.879028	186.300000
833.913513	184.500000
833.947998	186.900000
833.982544	182.500000
834.017090	182.700000
834.051514	175.600000
834.086060	188.400000
834.120544	186.400000
834.155029	186.900000
834.189575	184.000000
834.223999	189.100000
834.258545	187.000000
834.293030	186.300000
834.327515	184.900000
834.362000	182.400000
834.396545	190.700000
834.430969	185.000000
834.465454	189.900000
834.500000	179.700000
834.534424	189.500000
834.568970	177.300000
834.603455	178.300000
834.637878	183.800000
834.672363	187.900000
834.706909	187.700000
834.741333	186.800000
834.775818	179.000000
834.810242	182.600000
834.844727	185.200000
834.879211	185.400000
834.913635	186.300000
834.948181	188.500000
834.982666	187.100000
835.017090	185.200000
835.051575	188.300000
835.086060	182.900000
835.120483	189.600000
835.154907	188.900000
835.189331	185.900000
835.223816	189.600000
835.258301	179.900000
835.292786	180.700000
835.327209	191.600000
835.361694	181.900000
835.396057	184.000000
835.430542	187.900000
835.465027	187.700000
835.499390	180.500000
835.533875	207.000000
835.568359	182.600000
835.602722	180.500000
835.637207	187.600000
835.671692	182.000000
835.706055	201.800000
835.740540	187.800000
835.774902	188.600000
835.809387	187.500000
835.843811	180.400000
835.878235	193.100000
835.912659	179.500000
835.947083	183.000000
835.981506	184.800000
836.015930	179.700000
836.050354	191.200000
836.084778	195.900000
836.119202	190.900000
836.153625	200.600000
836.187988	182.200000
836.222473	182.500000
836.256897	188.500000
836.291260	186.000000
836.325684	189.200000
836.360046	184.600000
836.394470	185.900000
836.428894	194.300000
836.463318	182.200000
836.497681	190.700000
836.532104	194.300000
836.566467	187.900000
836.600891	186.700000
836.635315	192.100000
836.669678	190.300000
836.704102	189.200000
836.738525	188.600000
836.772888	178.400000
836.807251	184.300000
836.841675	187.000000
836.876038	181.600000
836.910461	182.700000
836.944763	189.800000
836.979187	181.700000
837.013611	192.200000
837.047974	179.700000
837.082336	198.200000
837.116699	188.900000
837.151062	186.400000
837.185486	180.100000
837.219849	185.500000
837.254211	188.700000
837.288574	186.000000
837.322937	181.200000
837.357300	175.700000
837.391663	197.700000
837.426086	193.000000
837.460388	186.800000
837.494751	190.600000
837.529114	183.600000
837.563477	192.800000
837.597839	188.600000
837.632141	185.900000
837.666565	183.800000
837.700928	188.300000
837.735229	189.700000
837.769592	188.800000
837.803955	190.900000
837.838257	185.300000
837.872620	182.600000
837.906982	193.800000
837.941284	186.500000
837.975647	187.300000
838.010010	193.500000
838.044312	184.800000
838.078674	183.800000
838.112976	188.500000
838.147339	190.200000
838.181702	186.500000
838.216003	195.800000
838.250366	187.300000
838.284668	189.400000
838.318970	179.800000
838.353333	187.600000
838.387634	184.600000
838.421936	187.000000
838.456299	188.600000
838.490601	194.100000
838.524902	190.000000
838.559265	191.400000
838.593567	190.600000
838.627869	182.200000
838.662170	189.300000
838.696472	179.900000
838.730774	182.700000
838.765137	191.600000
838.799377	172.300000
838.833740	188.500000
838.868042	191.900000
838.902283	178.300000
838.936646	192.600000
838.970947	188.100000
839.005188	192.500000
839.039551	179.200000
839.073792	193.500000
839.108093	185.100000
839.142395	195.200000
839.176697	180.600000
839.210937	186.400000
839.245300	196.600000
839.279541	181.100000
839.313843	185.500000
839.348145	189.000000
839.382385	192.100000
839.416687	190.000000
839.450989	189.900000
839.485229	184.800000
839.519531	182.800000
839.553833	192.000000
839.588013	187.300000
839.622314	187.100000
839.656555	188.500000
839.690857	186.700000
839.725159	180.900000
839.759460	186.300000
839.793640	184.900000
839.827942	185.900000
839.862183	183.400000
839.896423	187.400000
839.930725	197.300000
839.964966	194.200000
839.999207	192.900000
840.033508	195.600000
840.067688	183.300000
840.101990	195.100000
840.136230	187.800000
840.170471	194.800000
840.204712	183.100000
840.238953	182.600000
840.273193	188.800000
840.307434	190.700000
840.341736	183.000000
840.375916	179.900000
840.410217	182.700000
840.444397	192.400000
840.478638	189.200000
840.512878	193.200000
840.547119	187.900000
840.581360	189.400000
840.615601	196.900000
840.649780	197.400000
840.684021	184.300000
840.718262	194.400000
840.752441	192.300000
840.786682	187.700000
840.820862	187.600000
840.855103	196.100000
840.889343	186.200000
840.923584	192.500000
840.957764	188.400000
840.992004	188.300000
841.026184	199.200000
841.060425	184.900000
841.094666	183.100000
841.128845	189.900000
841.163025	187.000000
841.197266	189.200000
841.231445	186.600000
841.265686	188.500000
841.299866	181.400000
841.334045	194.000000
841.368286	185.300000
841.402405	194.200000
841.436646	192.800000
841.470825	184.800000
841.505005	186.800000
841.539185	184.100000
841.573425	185.000000
841.607544	188.000000
841.641785	187.300000
841.675964	183.500000
841.710144	186.700000
841.744324	184.200000
841.778503	185.100000
841.812683	184.200000
841.846863	195.900000
841.881042	194.100000
841.915222	183.700000
841.949402	199.700000
841.983521	179.600000
842.017700	185.600000
842.051880	189.100000
842.086060	187.400000
842.120239	187.400000
842.154419	184.300000
842.188538	188.600000
842.222717	184.100000
842.256897	196.900000
842.291016	185.300000
842.325195	188.800000
842.359375	198.000000
842.393494	193.500000
842.427673	185.800000
842.461853	190.700000
842.495911	194.600000
842.530090	189.700000
842.564209	186.500000
842.598389	188.800000
842.632568	187.000000
842.666626	191.600000
842.700806	184.200000
842.734985	185.100000
842.769043	189.800000
842.803223	186.300000
842.837402	184.500000
842.871460	184.600000
842.905640	194.800000
842.939697	182.000000
842.973877	189.000000
843.007996	193.200000
843.042175	195.800000
843.076233	185.100000
843.110413	189.000000
843.144470	196.000000
843.178589	192.900000
843.212769	185.400000
843.246826	192.300000
843.280945	185.700000
843.315125	187.000000
843.349182	184.000000
843.383301	195.600000
843.417419	200.500000
843.451538	188.400000
843.485657	185.900000
843.519714	186.900000
843.553833	188.600000
843.587952	186.000000
843.622070	184.500000
843.656128	191.600000
843.690247	185.700000
843.724304	186.200000
843.758423	189.600000
843.792542	185.100000
843.826599	187.700000
843.860718	186.600000
843.894836	181.900000
843.928894	189.100000
843.963013	190.700000
843.997070	184.400000
844.031128	180.800000
844.065247	192.600000
844.099304	190.400000
844.133362	189.000000
844.167480	188.600000
844.201599	194.800000
844.235596	188.000000
844.269714	188.400000
844.303711	190.300000
844.337830	179.100000
844.371948	189.900000
844.405945	187.800000
844.440063	181.800000
844.474121	200.200000
844.508118	185.900000
844.542236	186.700000
844.576294	186.900000
844.610352	183.800000
844.644409	185.000000
844.678406	177.900000
844.712524	192.100000
844.746582	193.900000
844.780640	187.000000
844.814636	187.900000
844.848755	196.500000
844.882751	185.600000
844.916809	192.900000
844.950867	189.000000
844.984863	195.500000
845.018921	185.400000
845.052979	184.900000
845.086975	189.000000
845.121033	181.700000
845.155090	185.200000
845.189087	194.700000
845.223145	184.800000
845.257141	188.800000
845.291199	190.800000
845.325256	194.300000
845.359253	188.700000
845.393250	198.900000
845.427307	186.100000
845.461304	189.700000
845.495361	188.500000
845.529358	199.000000
845.563354	185.500000
845.597412	184.500000
845.631409	195.200000
845.665405	196.400000
845.699463	192.800000
845.733459	184.800000
845.767456	195.500000
845.801453	186.700000
845.835449	192.000000
845.869446	192.700000
845.903503	191.700000
845.937439	182.600000
845.971497	194.200000
846.005493	181.400000
846.039429	192.200000
846.073486	197.500000
846.107483	184.300000
846.141418	186.000000
846.175476	186.700000
846.209473	193.900000
846.243408	184.200000
846.277405	191.000000
846.311401	182.100000
846.345337	189.100000
846.379395	192.200000
846.413330	185.300000
846.447327	196.300000
846.481323	182.900000
846.515259	186.000000
846.549255	188.200000
846.583252	189.600000
846.617187	182.900000
846.651184	190.100000
846.685120	185.700000
846.719055	197.300000
846.753052	193.100000
846.786987	192.300000
846.820984	181.900000
846.854980	195.600000
846.888916	182.700000
846.922852	190.300000
846.956848	196.700000
846.990723	183.800000
847.024719	188.900000
847.058716	187.300000
847.092590	195.400000
847.126587	189.400000
847.160522	184.600000
847.194458	192.900000
847.228455	184.100000
847.262390	184.500000
847.296265	186.000000
847.330261	193.800000
847.364136	185.000000
847.398132	184.700000
847.432068	187.200000
847.466003	186.300000
847.499939	187.300000
847.533875	190.700000
847.567749	186.100000
847.601746	186.500000
847.635681	190.700000
847.669556	179.600000
847.703491	192.000000
847.737427	202.300000
847.771301	181.900000
847.805237	191.100000
847.839233	187.800000
847.873108	186.500000
847.907043	184.700000
847.940918	193.300000
847.974854	187.500000
848.008789	192.900000
848.042664	186.900000
848.076538	190.600000
848.110474	186.500000
848.144348	188.300000
848.178284	182.100000
848.212219	189.300000
848.246094	186.200000
848.279968	189.800000
848.313904	189.700000
848.347778	188.300000
848.381653	186.100000
848.415588	183.400000
848.449463	185.800000
848.483337	189.700000
848.517212	194.600000
848.551086	188.400000
848.585022	183.900000
848.618835	195.900000
848.652771	185.300000
848.686646	183.200000
848.720520	197.100000
848.754395	186.800000
848.788330	193.800000
848.822144	192.200000
848.856018	186.900000
848.889954	198.100000
848.923767	184.400000
848.957642	184.000000
848.991577	191.700000
849.025391	186.000000
849.059265	187.000000
849.093079	183.100000
849.126953	182.400000
849.160828	192.200000
849.194641	189.900000
849.228577	186.000000
849.262451	188.000000
849.296265	185.500000
849.330139	183.700000
849.364014	187.800000
849.397827	192.600000
849.431702	187.300000
849.465515	193.500000
849.499329	177.900000
849.533203	183.100000
849.567078	176.900000
849.600891	190.400000
849.634766	186.400000
849.668518	192.700000
849.702393	187.600000
849.736267	180.800000
849.770020	198.600000
849.803894	193.300000
849.837769	186.700000
849.871521	188.800000
849.905396	193.400000
849.939270	184.400000
849.973022	185.800000
850.006897	191.900000
850.040710	190.600000
850.074524	190.100000
850.108337	188.300000
850.142151	191.900000
850.175964	194.400000
850.209778	188.300000
850.243530	175.800000
850.277405	192.200000
850.311218	188.000000
850.344971	186.100000
850.378845	197.500000
850.412659	185.800000
850.446411	188.900000
850.480225	187.600000
850.514038	193.700000
850.547791	191.200000
850.581665	188.700000
850.615417	184.500000
850.649231	189.200000
850.683044	187.500000
850.716858	186.700000
850.750610	188.400000
850.784424	192.600000
850.818176	183.700000
850.851929	186.000000
850.885742	184.900000
850.919495	187.600000
850.953308	194.100000
850.987122	194.500000
851.020874	181.100000
851.054626	180.600000
851.088440	190.300000
851.122192	191.100000
851.156006	188.200000
851.189697	186.400000
851.223511	181.200000
851.257263	193.100000
851.291077	190.000000
851.324829	186.100000
851.358582	184.000000
851.392334	184.800000
851.426086	185.600000
851.459900	196.900000
851.493591	187.600000
851.527344	188.100000
851.561157	186.600000
851.594849	192.200000
851.628662	190.600000
851.662415	197.100000
851.696106	190.900000
851.729858	192.900000
851.763611	182.300000
851.797363	188.900000
851.831116	183.500000
851.864868	191.600000
851.898560	193.900000
851.932312	185.700000
851.966064	189.300000
851.999817	188.300000
852.033569	188.500000
852.067261	192.500000
852.101013	184.600000
852.134766	189.000000
852.168457	178.100000
852.202209	193.300000
852.235901	185.600000
852.269592	190.200000
852.303345	197.900000
852.337036	191.800000
852.370789	188.400000
852.404541	191.200000
852.438171	184.900000
852.471924	187.300000
852.505676	182.700000
852.539307	189.500000
852.573059	183.900000
852.606812	184.400000
852.640442	187.100000
852.674194	193.400000
852.707886	197.600000
852.741577	194.600000
852.775269	183.600000
852.809021	186.900000
852.842651	190.900000
852.876404	192.600000
852.910034	188.300000
852.943787	193.000000
852.977478	191.500000
853.011108	183.600000
853.044861	185.200000
853.078552	194.700000
853.112183	189.700000
853.145874	188.500000
853.179626	179.600000
853.213257	189.600000
853.246948	184.900000
853.280640	195.900000
853.314270	187.400000
853.347961	194.400000
853.381653	190.800000
853.415283	192.200000
853.448975	185.700000
853.482605	189.900000
853.516296	187.500000
853.549988	182.100000
853.583618	189.800000
853.617310	189.100000
853.651001	190.100000
853.684631	183.000000
853.718323	185.500000
853.751953	195.800000
853.785583	179.300000
853.819275	193.400000
853.852966	190.100000
853.886536	180.000000
853.920227	184.000000
853.953918	194.300000
853.987488	187.100000
854.021179	192.500000
854.054749	195.700000
854.088440	191.900000
854.122131	184.200000
854.155701	193.000000
854.189331	184.400000
854.223022	190.600000
854.256592	191.200000
854.290283	184.700000
854.323914	192.000000
854.357483	190.100000
854.391174	190.400000
854.424744	198.600000
854.458374	188.500000
854.492065	200.000000
854.525696	186.400000
854.559265	194.700000
854.592896	198.200000
854.626465	188.300000
854.660095	187.300000
854.693787	190.000000
854.727356	185.800000
854.760986	192.500000
854.794617	188.800000
854.828186	187.400000
854.861816	189.600000
854.895447	188.300000
854.929016	189.100000
854.962585	190.800000
854.996155	196.300000
855.029785	189.600000
855.063416	190.800000
855.097046	193.700000
855.130615	183.200000
855.164185	194.100000
855.197754	187.900000
855.231384	191.800000
855.264954	187.300000
855.298523	191.000000
855.332153	190.300000
855.365723	196.600000
855.399292	184.900000
855.432922	186.800000
855.466492	190.500000
855.500061	185.600000
855.533630	184.700000
855.567200	191.300000
855.600769	192.900000
855.634338	194.500000
855.667969	190.600000
855.701477	185.000000
855.735046	185.900000
855.768616	179.900000
855.802185	191.200000
855.835754	203.200000
855.869324	181.900000
855.902893	187.700000
855.936401	195.000000
855.969971	189.200000
856.003540	182.200000
856.037109	190.900000
856.070618	188.700000
856.104187	182.000000
856.137695	185.000000
856.171265	178.900000
856.204834	189.900000
856.238403	193.200000
856.271912	184.300000
856.305481	189.400000
856.338989	182.400000
856.372559	190.700000
856.406128	190.200000
856.439636	192.300000
856.473145	187.000000
856.506653	195.000000
856.540222	189.300000
856.573792	194.900000
856.607300	194.700000
856.640808	183.200000
856.674377	189.900000
856.707825	217.200000
856.741394	192.800000
856.774902	185.500000
856.808472	179.600000
856.841980	192.900000
856.875488	196.800000
856.908936	180.200000
856.942505	187.300000
856.976013	187.700000
857.009521	184.400000
857.043030	189.100000
857.076477	188.400000
857.110046	192.700000
857.143555	189.100000
857.177063	194.200000
857.210571	186.500000
857.244080	183.100000
857.277527	191.500000
857.311035	188.600000
857.344543	191.900000
857.378052	188.200000
857.411499	194.600000
857.445068	197.500000
857.478516	188.800000
857.512024	182.800000
857.545532	186.700000
857.578979	190.400000
857.612427	189.400000
857.645874	183.800000
857.679382	189.700000
857.712891	193.200000
857.746399	187.000000
857.779846	194.600000
857.813354	193.600000
857.846741	188.100000
857.880249	184.600000
857.913757	190.100000
857.947266	189.100000
857.980652	190.800000
858.014160	185.100000
858.047546	185.500000
858.081055	186.900000
858.114563	197.900000
858.147949	181.800000
858.181458	192.600000
858.214844	185.900000
858.248352	180.900000
858.281799	192.500000
858.315308	201.000000
858.348694	191.100000
858.382141	197.400000
858.415588	189.800000
858.449036	194.600000
858.482483	190.000000
858.515930	186.100000
858.549377	188.100000
858.582825	195.500000
858.616211	190.200000
858.649658	191.500000
858.683105	182.800000
858.716553	186.900000
858.750000	183.600000
858.783386	186.800000
858.816833	180.500000
858.850281	190.200000
858.883728	191.700000
858.917114	187.200000
858.950562	197.500000
858.983948	198.000000
859.017395	193.100000
859.050781	188.100000
859.084167	184.900000
859.117615	183.700000
859.151062	193.100000
859.184448	184.900000
859.217834	188.600000
859.251282	186.400000
859.284668	184.800000
859.318054	180.100000
859.351440	185.400000
859.384888	196.600000
859.418274	180.400000
859.451721	179.700000
859.485046	191.800000
859.518494	189.900000
859.551819	185.000000
859.585266	189.500000
859.618652	192.100000
859.652039	182.900000
859.685425	184.900000
859.718811	181.800000
859.752197	177.700000
859.785583	195.100000
859.819031	196.200000
859.852356	190.400000
859.885742	184.700000
859.919067	186.600000
859.952454	186.300000
859.985901	193.400000
860.019287	186.200000
860.052612	0.000000
860.085999	0.000000
860.119324	0.000000
860.152710	0.000000
860.186096	0.000000
860.219421	0.000000
860.252808	0.000000
860.286133	0.000000
860.319519	0.000000
860.352905	0.000000
860.386292	0.000000
860.419617	0.000000
860.452942	0.000000
860.486267	0.000000
860.519653	0.000000
860.553040	0.000000
860.586365	0.000000
860.619690	0.000000
860.653076	0.000000
860.686340	0.000000
860.719727	0.000000
860.753113	0.000000
860.786377	0.000000
860.819763	0.000000
860.853027	0.000000
860.886414	0.000000
860.919739	0.000000
860.953125	0.000000
860.986389	0.000000
861.019714	0.000000
861.053040	0.000000
861.086365	0.000000
861.119690	0.000000
861.153076	0.000000
861.186340	0.000000
861.219666	0.000000
861.252930	0.000000
861.286316	0.000000
861.319641	0.000000
861.352905	0.000000
861.386230	0.000000
861.419495	0.000000
861.452820	0.000000
861.486145	0.000000
861.519470	0.000000
861.552734	0.000000
861.586060	0.000000
861.619324	0.000000
861.652649	0.000000
861.685974	0.000000
861.719238	0.000000
861.752563	0.000000
861.785828	0.000000
861.819092	0.000000
861.852417	0.000000
861.885742	0.000000
861.918945	0.000000
861.952271	0.000000
861.985535	0.000000
862.018799	0.000000
862.052124	0.000000
862.085449	0.000000
862.118652	0.000000
862.151978	0.000000
862.185181	0.000000
862.218506	0.000000
862.251770	0.000000
862.285034	0.000000
862.318298	0.000000
862.351562	0.000000
862.384827	0.000000
862.418091	0.000000
862.451355	0.000000
862.484619	0.000000
862.517883	0.000000
862.551086	0.000000
862.584351	0.000000
862.617676	0.000000
862.650940	0.000000
862.684143	0.000000
862.717407	0.000000
862.750610	0.000000
862.783875	0.000000
862.817139	0.000000
862.850342	0.000000
862.883606	0.000000
862.916870	0.000000
862.950073	0.000000
862.983337	0.000000
863.016602	0.000000
863.049805	0.000000
863.083069	0.000000
863.116211	0.000000
863.149475	0.000000
863.182739	0.000000
863.216003	0.000000
863.249146	0.000000
863.282410	0.000000
863.315613	0.000000
863.348816	0.000000
863.382080	0.000000
863.415222	0.000000
863.448486	0.000000
863.481689	0.000000
863.514893	0.000000
863.548157	0.000000
863.581360	0.000000
863.614502	0.000000
863.647766	0.000000
863.680908	0.000000
863.714172	0.000000
863.747375	0.000000
863.780579	0.000000
863.813721	0.000000
863.846985	0.000000
863.880127	0.000000
863.913330	0.000000
863.946533	0.000000
863.979675	0.000000
864.012939	0.000000
