Model Number: SPM-001-M   
Serial Number: 10090201
Firmware Version: 004.17.6
Exposure Time: 500000.000000us
Data Taken on: 03-03-2021 10:47:38.648
Wavelength	Amplitude
733.770752	0.000000
733.808716	0.000000
733.846619	0.000000
733.884583	0.000000
733.922546	0.000000
733.960449	0.000000
733.998413	0.000000
734.036377	0.000000
734.074219	0.000000
734.112183	0.000000
734.150085	0.000000
734.188049	0.000000
734.226013	0.000000
734.263916	0.000000
734.301819	0.000000
734.339783	0.000000
734.377686	0.000000
734.415588	0.000000
734.453552	0.000000
734.491455	0.000000
734.529419	0.000000
734.567322	0.000000
734.605225	0.000000
734.643127	0.000000
734.681091	0.000000
734.718994	0.000000
734.756897	0.000000
734.794800	0.000000
734.832703	0.000000
734.870667	0.000000
734.908508	0.000000
734.946472	0.000000
734.984375	0.000000
735.022278	0.000000
735.060181	0.000000
735.098083	0.000000
735.135986	0.000000
735.173889	0.000000
735.211792	0.000000
735.249695	0.000000
735.287598	0.000000
735.325439	0.000000
735.363403	0.000000
735.401306	0.000000
735.439148	0.000000
735.477051	0.000000
735.515015	0.000000
735.552856	0.000000
735.590759	0.000000
735.628662	0.000000
735.666504	0.000000
735.704407	0.000000
735.742310	0.000000
735.780212	0.000000
735.818115	0.000000
735.856018	0.000000
735.893860	0.000000
735.931763	0.000000
735.969604	0.000000
736.007507	0.000000
736.045410	0.000000
736.083252	0.000000
736.121094	0.000000
736.158997	0.000000
736.196838	0.000000
736.234741	0.000000
736.272644	0.000000
736.310486	0.000000
736.348389	0.000000
736.386230	0.000000
736.424072	0.000000
736.461975	0.000000
736.499878	0.000000
736.537720	0.000000
736.575562	0.000000
736.613403	0.000000
736.651306	0.000000
736.689148	0.000000
736.726990	0.000000
736.764893	0.000000
736.802734	0.000000
736.840576	0.000000
736.878418	0.000000
736.916321	0.000000
736.954102	0.000000
736.992004	0.000000
737.029846	0.000000
737.067688	0.000000
737.105530	0.000000
737.143372	0.000000
737.181213	0.000000
737.219116	0.000000
737.256897	0.000000
737.294739	0.000000
737.332642	0.000000
737.370422	0.000000
737.408325	0.000000
737.446167	0.000000
737.483948	0.000000
737.521790	0.000000
737.559692	0.000000
737.597473	0.000000
737.635315	0.000000
737.673157	0.000000
737.710999	0.000000
737.748840	0.000000
737.786621	0.000000
737.824463	0.000000
737.862305	0.000000
737.900085	0.000000
737.937927	0.000000
737.975769	0.000000
738.013550	0.000000
738.051392	0.000000
738.089233	0.000000
738.127014	0.000000
738.164856	0.000000
738.202698	0.000000
738.240479	0.000000
738.278320	0.000000
738.316162	0.000000
738.353943	0.000000
738.391785	0.000000
738.429565	0.000000
738.467407	0.000000
738.505188	0.000000
738.542969	0.000000
738.580811	0.000000
738.618652	0.000000
738.656372	0.000000
738.694214	0.000000
738.732056	0.000000
738.769836	0.000000
738.807617	0.000000
738.845459	0.000000
738.883240	0.000000
738.921021	0.000000
738.958862	0.000000
738.996582	0.000000
739.034424	0.000000
739.072205	0.000000
739.109985	0.000000
739.147827	0.000000
739.185547	0.000000
739.223389	0.000000
739.261169	0.000000
739.298889	0.000000
739.336731	0.000000
739.374512	0.000000
739.412292	0.000000
739.450073	0.000000
739.487854	0.000000
739.525635	0.000000
739.563416	0.000000
739.601135	0.000000
739.638977	0.000000
739.676758	0.000000
739.714478	0.000000
739.752258	0.000000
739.790100	0.000000
739.827820	0.000000
739.865601	0.000000
739.903381	0.000000
739.941101	0.000000
739.978882	190.900000
740.016724	185.700000
740.054443	191.600000
740.092224	183.000000
740.130005	183.000000
740.167725	186.000000
740.205505	183.100000
740.243225	193.600000
740.281006	188.900000
740.318787	180.800000
740.356506	192.300000
740.394287	191.700000
740.432068	184.100000
740.469727	180.700000
740.507507	191.100000
740.545288	186.900000
740.583008	188.400000
740.620789	187.000000
740.658569	179.700000
740.696228	186.700000
740.734009	192.300000
740.771790	175.500000
740.809509	190.000000
740.847229	181.800000
740.884949	184.800000
740.922729	179.900000
740.960449	185.900000
740.998169	182.100000
741.035950	182.700000
741.073669	188.000000
741.111389	186.800000
741.149170	197.000000
741.186890	197.100000
741.224609	191.300000
741.262329	187.400000
741.300110	197.000000
741.337769	182.600000
741.375549	181.800000
741.413208	188.100000
741.450989	184.500000
741.488708	185.300000
741.526367	183.600000
741.564148	190.000000
741.601868	191.700000
741.639526	187.200000
741.677307	189.700000
741.715027	189.300000
741.752686	184.000000
741.790466	195.300000
741.828186	189.700000
741.865845	182.000000
741.903564	179.900000
741.941345	186.300000
741.979004	181.700000
742.016724	191.400000
742.054382	187.600000
742.092102	192.400000
742.129822	180.300000
742.167480	185.200000
742.205200	186.400000
742.242920	187.400000
742.280640	191.200000
742.318359	183.400000
742.356079	184.700000
742.393738	189.800000
742.431396	186.700000
742.469116	190.600000
742.506775	177.900000
742.544495	189.800000
742.582214	190.600000
742.619873	187.600000
742.657593	194.500000
742.695251	191.500000
742.732971	185.700000
742.770630	189.400000
742.808289	187.500000
742.846008	186.300000
742.883728	189.300000
742.921326	186.300000
742.959045	184.100000
742.996765	187.800000
743.034424	186.400000
743.072083	185.000000
743.109802	186.000000
743.147400	180.600000
743.185120	188.700000
743.222839	187.200000
743.260437	193.300000
743.298157	189.700000
743.335754	180.200000
743.373474	184.800000
743.411133	180.300000
743.448792	188.100000
743.486450	187.300000
743.524170	179.400000
743.561768	187.300000
743.599487	192.700000
743.637146	198.000000
743.674744	186.200000
743.712463	184.500000
743.750122	188.200000
743.787720	190.600000
743.825439	183.600000
743.863037	185.100000
743.900696	186.900000
743.938416	211.200000
743.976013	186.100000
744.013672	196.300000
744.051331	191.700000
744.088928	196.500000
744.126587	193.300000
744.164307	188.300000
744.201904	183.200000
744.239563	190.400000
744.277222	188.600000
744.314819	187.500000
744.352478	193.200000
744.390137	188.300000
744.427734	189.100000
744.465393	184.500000
744.502991	183.100000
744.540649	190.000000
744.578308	187.800000
744.615906	182.600000
744.653564	176.700000
744.691223	189.700000
744.728821	180.200000
744.766418	186.000000
744.804077	188.900000
744.841675	184.300000
744.879333	181.400000
744.916992	186.200000
744.954529	185.200000
744.992187	192.000000
745.029785	185.600000
745.067444	183.700000
745.105042	188.000000
745.142639	189.700000
745.180298	197.300000
745.217896	186.600000
745.255493	185.300000
745.293152	192.800000
745.330750	192.100000
745.368347	195.000000
745.405945	191.400000
745.443604	188.500000
745.481140	192.100000
745.518799	187.100000
745.556396	191.700000
745.593994	191.700000
745.631592	186.800000
745.669189	182.400000
745.706787	189.500000
745.744385	184.500000
745.781982	189.900000
745.819580	186.500000
745.857178	184.700000
745.894775	188.200000
745.932373	188.600000
745.969971	189.100000
746.007568	179.500000
746.045166	197.400000
746.082764	192.900000
746.120300	190.400000
746.157898	190.500000
746.195557	187.200000
746.233093	180.700000
746.270691	190.300000
746.308228	188.100000
746.345825	190.600000
746.383423	191.100000
746.420959	183.000000
746.458557	183.500000
746.496155	186.100000
746.533691	187.500000
746.571289	182.000000
746.608887	187.900000
746.646423	188.300000
746.684021	187.600000
746.721619	185.200000
746.759155	188.900000
746.796753	181.100000
746.834351	182.700000
746.871826	183.000000
746.909424	193.700000
746.946960	189.900000
746.984558	186.500000
747.022156	185.900000
747.059631	196.300000
747.097229	188.800000
747.134827	185.200000
747.172363	194.800000
747.209900	192.300000
747.247498	182.800000
747.285034	195.500000
747.322571	196.000000
747.360168	186.000000
747.397644	180.700000
747.435242	191.500000
747.472778	194.900000
747.510315	186.400000
747.547913	185.400000
747.585388	195.100000
747.622925	187.500000
747.660522	179.600000
747.697998	183.300000
747.735596	187.400000
747.773132	184.900000
747.810669	187.700000
747.848206	191.300000
747.885742	182.700000
747.923279	181.800000
747.960815	190.200000
747.998352	188.500000
748.035889	193.500000
748.073425	190.300000
748.110901	185.500000
748.148437	183.300000
748.185974	187.800000
748.223511	197.900000
748.261047	190.000000
748.298584	189.200000
748.336060	186.000000
748.373596	188.500000
748.411133	206.700000
748.448608	183.600000
748.486145	190.700000
748.523682	196.000000
748.561218	194.500000
748.598755	188.300000
748.636292	191.700000
748.673706	185.500000
748.711243	194.900000
748.748718	191.000000
748.786255	187.200000
748.823792	187.800000
748.861267	182.800000
748.898804	189.900000
748.936340	190.700000
748.973816	186.300000
749.011292	193.900000
749.048828	190.800000
749.086304	190.500000
749.123840	198.300000
749.161316	182.600000
749.198792	196.900000
749.236328	192.700000
749.273743	188.700000
749.311279	185.800000
749.348816	190.800000
749.386230	188.000000
749.423767	177.800000
749.461304	190.900000
749.498718	189.800000
749.536255	194.100000
749.573730	200.400000
749.611206	194.800000
749.648682	187.800000
749.686218	187.900000
749.723633	190.800000
749.761169	185.900000
749.798645	184.100000
749.836060	186.800000
749.873596	184.700000
749.911011	188.900000
749.948547	194.100000
749.986023	188.100000
750.023437	186.900000
750.060913	180.700000
750.098450	180.600000
750.135864	186.200000
750.173340	187.600000
750.210815	192.700000
750.248291	182.500000
750.285767	187.900000
750.323242	193.600000
750.360657	188.900000
750.398132	183.000000
750.435608	191.500000
750.473022	183.600000
750.510498	184.600000
750.547974	183.700000
750.585449	185.900000
750.622925	177.800000
750.660339	196.700000
750.697815	188.200000
750.735291	186.400000
750.772644	188.700000
750.810120	189.600000
750.847595	189.600000
750.885010	183.400000
750.922485	196.800000
750.959961	185.800000
750.997375	195.900000
751.034851	192.400000
751.072266	193.200000
751.109680	181.400000
751.147156	194.600000
751.184570	190.500000
751.221985	189.800000
751.259460	180.100000
751.296875	188.100000
751.334290	188.300000
751.371765	191.900000
751.409180	190.900000
751.446594	193.200000
751.484070	192.400000
751.521423	188.800000
751.558899	190.100000
751.596375	195.200000
751.633728	195.900000
751.671204	199.400000
751.708618	185.000000
751.746033	189.300000
751.783447	182.000000
751.820801	184.000000
751.858276	190.500000
751.895691	186.700000
751.933105	186.300000
751.970520	182.800000
752.007935	185.100000
752.045349	193.100000
752.082764	187.600000
752.120178	185.600000
752.157532	183.200000
752.195007	185.700000
752.232422	189.600000
752.269775	191.200000
752.307190	190.200000
752.344543	184.200000
752.382019	185.900000
752.419434	186.800000
752.456787	191.900000
752.494202	190.700000
752.531616	189.800000
752.568970	192.500000
752.606384	189.400000
752.643799	188.300000
752.681152	194.600000
752.718567	191.800000
752.755981	180.600000
752.793335	191.800000
752.830750	179.400000
752.868164	192.800000
752.905518	184.500000
752.942932	192.500000
752.980225	184.400000
753.017639	194.300000
753.055054	187.200000
753.092407	190.200000
753.129822	192.400000
753.167175	199.500000
753.204529	187.400000
753.241943	184.500000
753.279358	182.600000
753.316650	191.500000
753.354065	188.900000
753.391479	192.300000
753.428772	196.200000
753.466187	191.000000
753.503479	182.600000
753.540894	186.500000
753.578308	182.300000
753.615601	183.200000
753.653015	186.700000
753.690369	185.900000
753.727722	183.100000
753.765076	181.400000
753.802490	181.800000
753.839783	179.600000
753.877136	185.200000
753.914551	202.700000
753.951843	182.900000
753.989258	191.300000
754.026611	189.000000
754.063904	191.600000
754.101257	184.500000
754.138611	180.500000
754.175964	188.900000
754.213318	199.500000
754.250610	180.700000
754.288025	184.900000
754.325378	181.200000
754.362671	193.400000
754.400024	187.300000
754.437378	197.400000
754.474670	196.100000
754.512085	184.900000
754.549438	188.900000
754.586731	186.000000
754.624084	187.200000
754.661438	183.700000
754.698730	197.000000
754.736084	185.700000
754.773376	188.400000
754.810730	189.800000
754.848083	187.200000
754.885315	192.700000
754.922668	181.200000
754.960022	183.300000
754.997314	193.800000
755.034668	188.400000
755.072021	188.600000
755.109253	185.100000
755.146606	195.600000
755.183960	187.000000
755.221252	197.100000
755.258545	192.400000
755.295898	193.200000
755.333191	194.100000
755.370544	190.400000
755.407776	188.000000
755.445129	187.200000
755.482422	191.200000
755.519714	184.100000
755.557068	180.300000
755.594360	179.100000
755.631653	191.600000
755.668945	196.300000
755.706299	188.100000
755.743530	198.800000
755.780884	195.200000
755.818176	193.900000
755.855408	193.300000
755.892761	190.200000
755.930054	189.100000
755.967346	190.200000
756.004639	191.500000
756.041870	189.600000
756.079224	192.500000
756.116516	186.500000
756.153748	193.800000
756.191040	196.300000
756.228394	191.300000
756.265625	185.600000
756.302917	190.200000
756.340210	186.000000
756.377441	193.600000
756.414795	196.400000
756.452087	188.500000
756.489319	183.700000
756.526611	193.200000
756.563843	190.600000
756.601135	200.400000
756.638428	196.900000
756.675659	188.900000
756.712952	194.700000
756.750244	194.400000
756.787476	192.000000
756.824768	197.200000
756.862061	188.100000
756.899292	237.400000
756.936584	193.200000
756.973816	199.500000
757.011047	203.200000
757.048340	191.500000
757.085632	191.200000
757.122864	205.400000
757.160156	188.200000
757.197327	194.000000
757.234619	196.800000
757.271912	191.400000
757.309082	196.100000
757.346375	189.000000
757.383667	196.900000
757.420837	192.100000
757.458130	193.100000
757.495422	190.000000
757.532593	193.700000
757.569885	184.400000
757.607117	186.800000
757.644348	194.600000
757.681580	203.600000
757.718811	180.200000
757.756042	190.900000
757.793335	188.100000
757.830505	194.600000
757.867798	189.800000
757.905029	188.000000
757.942200	195.200000
757.979492	187.900000
758.016724	191.100000
758.053894	190.100000
758.091187	210.300000
758.128418	192.300000
758.165588	193.000000
758.202820	202.800000
758.240112	191.300000
758.277283	203.900000
758.314514	193.900000
758.351685	191.300000
758.388916	203.700000
758.426147	201.100000
758.463379	202.700000
758.500610	198.400000
758.537842	195.000000
758.575012	201.900000
758.612244	190.900000
758.649475	207.400000
758.686646	189.200000
758.723877	203.400000
758.761108	202.800000
758.798279	194.500000
758.835510	198.600000
758.872742	202.700000
758.909851	197.900000
758.947083	199.500000
758.984253	196.900000
759.021484	200.300000
759.058716	199.700000
759.095886	202.000000
759.133057	195.100000
759.170288	201.800000
759.207458	193.800000
759.244690	208.200000
759.281860	206.100000
759.319031	197.800000
759.356262	194.400000
759.393433	195.200000
759.430603	196.000000
759.467773	196.700000
759.505005	203.900000
759.542175	204.000000
759.579346	197.700000
759.616516	200.000000
759.653687	200.600000
759.690918	196.100000
759.728027	199.900000
759.765259	201.100000
759.802429	203.300000
759.839539	202.000000
759.876770	206.500000
759.913940	210.800000
759.951111	202.100000
759.988281	200.400000
760.025452	198.500000
760.062561	198.300000
760.099792	210.600000
760.136963	205.300000
760.174072	201.500000
760.211243	194.600000
760.248413	197.900000
760.285583	197.200000
760.322754	213.100000
760.359863	207.900000
760.397034	209.600000
760.434204	200.900000
760.471375	204.100000
760.508545	200.300000
760.545715	202.800000
760.582825	197.400000
760.619995	208.400000
760.657166	197.400000
760.694275	211.200000
760.731445	205.600000
760.768555	207.600000
760.805664	207.200000
760.842834	205.600000
760.879944	206.600000
760.917114	205.800000
760.954285	203.100000
760.991394	198.800000
761.028564	209.300000
761.065674	209.100000
761.102783	200.700000
761.139954	209.600000
761.177124	209.900000
761.214172	211.600000
761.251343	204.900000
761.288452	205.800000
761.325562	208.700000
761.362732	203.800000
761.399841	205.900000
761.436951	208.700000
761.474121	201.600000
761.511169	208.200000
761.548340	211.200000
761.585449	209.300000
761.622559	210.100000
761.659668	208.800000
761.696838	214.100000
761.733887	208.800000
761.771057	206.200000
761.808167	207.400000
761.845276	214.000000
761.882385	221.100000
761.919434	210.100000
761.956604	229.900000
761.993713	207.100000
762.030762	217.300000
762.067871	209.600000
762.105042	209.200000
762.142090	216.700000
762.179199	211.800000
762.216309	216.500000
762.253418	227.800000
762.290527	222.200000
762.327637	218.900000
762.364685	208.300000
762.401794	217.000000
762.438904	217.300000
762.475952	210.900000
762.513062	209.700000
762.550110	210.500000
762.587219	224.000000
762.624329	223.300000
762.661377	216.500000
762.698486	217.100000
762.735596	216.300000
762.772644	209.700000
762.809753	208.100000
762.846863	215.200000
762.883911	219.700000
762.921021	219.400000
762.958069	215.400000
762.995117	224.100000
763.032227	224.400000
763.069336	215.200000
763.106323	212.700000
763.143433	211.700000
763.180481	220.700000
763.217590	221.100000
763.254639	216.000000
763.291687	215.900000
763.328735	225.800000
763.365845	217.700000
763.402893	217.200000
763.439941	219.900000
763.477051	223.600000
763.514038	222.300000
763.551147	217.100000
763.588196	221.300000
763.625244	219.900000
763.662292	227.800000
763.699402	229.900000
763.736389	224.600000
763.773499	234.300000
763.810486	228.400000
763.847534	225.000000
763.884644	227.000000
763.921631	221.700000
763.958679	235.300000
763.995728	224.600000
764.032776	233.900000
764.069824	220.600000
764.106873	231.400000
764.143860	235.000000
764.180969	226.300000
764.218018	234.900000
764.255005	223.800000
764.292053	225.600000
764.329102	238.800000
764.366089	237.700000
764.403137	235.900000
764.440125	227.600000
764.477173	232.200000
764.514221	233.600000
764.551208	232.700000
764.588257	226.200000
764.625305	234.900000
764.662292	240.400000
764.699341	243.100000
764.736389	236.500000
764.773376	251.100000
764.810425	239.100000
764.847473	247.000000
764.884399	241.300000
764.921448	249.400000
764.958435	246.300000
764.995483	239.100000
765.032532	255.300000
765.069458	239.700000
765.106506	237.900000
765.143555	237.800000
765.180481	243.300000
765.217529	250.700000
765.254578	236.100000
765.291504	247.400000
765.328552	242.900000
765.365540	239.500000
765.402527	255.800000
765.439575	244.400000
765.476501	238.600000
765.513550	239.600000
765.550537	245.600000
765.587463	252.600000
765.624512	242.500000
765.661499	234.900000
765.698486	253.400000
765.735474	242.700000
765.772461	245.300000
765.809448	254.800000
765.846436	251.700000
765.883423	256.600000
765.920410	251.200000
765.957397	246.100000
765.994385	251.800000
766.031311	261.400000
766.068359	255.200000
766.105286	256.000000
766.142273	261.700000
766.179260	255.100000
766.216187	249.200000
766.253174	245.900000
766.290161	257.900000
766.327148	259.700000
766.364136	259.000000
766.401123	274.000000
766.438049	252.600000
766.475037	265.100000
766.512024	261.200000
766.548950	275.100000
766.585937	269.100000
766.622864	265.400000
766.659790	264.300000
766.696777	252.400000
766.733704	268.500000
766.770691	257.800000
766.807678	272.400000
766.844604	266.300000
766.881531	265.100000
766.918518	270.700000
766.955444	273.700000
766.992432	265.900000
767.029358	270.200000
767.066284	272.900000
767.103271	268.600000
767.140198	300.100000
767.177124	282.800000
767.214050	272.400000
767.251038	274.300000
767.287964	272.400000
767.324890	268.000000
767.361816	275.100000
767.398743	279.000000
767.435730	272.400000
767.472595	277.000000
767.509583	282.000000
767.546509	270.900000
767.583374	277.300000
767.620361	269.000000
767.657288	274.700000
767.694214	275.700000
767.731140	274.400000
767.768066	277.000000
767.804993	282.200000
767.841919	272.000000
767.878845	277.400000
767.915710	286.400000
767.952698	278.800000
767.989563	283.400000
768.026489	283.600000
768.063416	276.900000
768.100281	276.800000
768.137207	288.800000
768.174133	286.800000
768.211060	286.000000
768.247986	286.300000
768.284912	284.200000
768.321777	285.700000
768.358704	282.200000
768.395630	284.900000
768.432495	280.500000
768.469421	288.400000
768.506348	289.600000
768.543152	298.700000
768.580078	292.400000
768.616943	295.000000
768.653870	296.000000
768.690796	293.900000
768.727661	293.300000
768.764587	294.600000
768.801453	286.200000
768.838318	300.300000
768.875244	295.800000
768.912109	302.800000
768.948975	294.600000
768.985901	295.600000
769.022766	294.300000
769.059631	298.900000
769.096558	294.100000
769.133362	295.100000
769.170288	297.400000
769.207214	298.300000
769.244019	302.600000
769.280945	299.600000
769.317810	307.600000
769.354675	303.400000
769.391541	312.800000
769.428406	308.100000
769.465271	317.400000
769.502136	306.300000
769.539062	310.200000
769.575867	309.500000
769.612732	312.000000
769.649597	317.700000
769.686462	318.100000
769.723328	315.800000
769.760193	312.000000
769.797058	314.200000
769.833923	322.600000
769.870728	318.100000
769.907593	321.600000
769.944519	321.800000
769.981323	324.700000
770.018188	325.600000
770.055054	325.100000
770.091858	322.900000
770.128723	333.900000
770.165588	340.200000
770.202393	323.400000
770.239258	334.800000
770.276062	331.100000
770.312927	333.200000
770.349792	340.200000
770.386597	336.900000
770.423462	346.600000
770.460327	351.700000
770.497131	338.600000
770.533997	331.500000
770.570862	347.100000
770.607605	346.600000
770.644470	343.000000
770.681335	346.000000
770.718140	347.100000
770.754944	339.300000
770.791809	340.500000
770.828613	343.000000
770.865479	345.100000
770.902222	359.200000
770.939087	349.000000
770.975952	341.700000
771.012695	347.700000
771.049561	363.200000
771.086365	352.400000
771.123169	349.000000
771.159973	353.600000
771.196838	352.500000
771.233582	357.300000
771.270447	355.700000
771.307251	358.800000
771.344055	356.400000
771.380859	361.800000
771.417664	355.700000
771.454468	366.900000
771.491272	365.300000
771.528076	366.600000
771.564880	362.900000
771.601685	374.300000
771.638428	362.600000
771.675293	372.400000
771.712097	359.500000
771.748840	377.700000
771.785645	370.800000
771.822449	375.000000
771.859253	376.800000
771.896057	375.000000
771.932861	387.200000
771.969604	377.700000
772.006409	369.600000
772.043213	384.300000
772.079956	379.800000
772.116760	372.700000
772.153503	376.700000
772.190308	389.100000
772.227112	381.600000
772.263855	373.200000
772.300659	381.100000
772.337463	389.200000
772.374207	378.000000
772.411011	373.400000
772.447754	378.900000
772.484497	395.500000
772.521301	388.600000
772.558105	386.100000
772.594849	387.600000
772.631592	391.600000
772.668396	388.400000
772.705139	396.300000
772.741882	391.800000
772.778625	401.500000
772.815430	403.900000
772.852173	397.600000
772.888916	407.100000
772.925720	406.500000
772.962463	414.500000
772.999207	408.000000
773.035950	414.800000
773.072754	409.800000
773.109436	405.500000
773.146240	405.300000
773.182922	406.300000
773.219727	413.600000
773.256470	410.400000
773.293152	399.600000
773.329956	407.200000
773.366699	413.100000
773.403381	402.800000
773.440186	411.700000
773.476929	413.900000
773.513611	406.200000
773.550354	407.000000
773.587158	407.300000
773.623840	405.100000
773.660583	412.900000
773.697327	428.400000
773.734009	413.200000
773.770813	414.100000
773.807495	410.500000
773.844238	412.300000
773.880981	430.900000
773.917664	424.100000
773.954407	430.600000
773.991150	420.400000
774.027832	425.800000
774.064575	418.200000
774.101318	428.100000
774.138000	427.600000
774.174744	423.900000
774.211487	428.000000
774.248108	417.700000
774.284851	414.400000
774.321594	425.200000
774.358276	427.000000
774.395020	438.900000
774.431702	433.300000
774.468384	426.900000
774.505127	422.800000
774.541809	434.000000
774.578491	439.400000
774.615234	443.800000
774.651917	432.600000
774.688599	438.800000
774.725342	446.500000
774.762024	443.800000
774.798706	450.400000
774.835449	450.900000
774.872070	455.900000
774.908813	453.100000
774.945496	449.300000
774.982178	448.900000
775.018860	451.800000
775.055542	453.500000
775.092224	457.400000
775.128967	465.700000
775.165588	462.200000
775.202271	454.300000
775.239014	465.400000
775.275635	466.900000
775.312317	463.800000
775.349060	465.900000
775.385681	464.900000
775.422363	461.200000
775.459045	467.500000
775.495667	471.300000
775.532410	473.000000
775.569092	476.000000
775.605713	478.100000
775.642395	475.200000
775.679016	478.200000
775.715698	478.100000
775.752380	483.900000
775.789001	475.100000
775.825684	480.600000
775.862366	480.600000
775.898987	494.400000
775.935669	485.000000
775.972351	503.600000
776.008972	498.400000
776.045654	498.500000
776.082336	495.000000
776.118958	498.200000
776.155640	501.800000
776.192322	509.000000
776.228882	511.900000
776.265564	513.000000
776.302185	509.200000
776.338867	516.200000
776.375488	502.900000
776.412109	518.200000
776.448792	520.900000
776.485413	529.900000
776.522034	517.600000
776.558716	514.700000
776.595337	515.700000
776.631958	521.800000
776.668579	524.300000
776.705261	533.900000
776.741882	528.900000
776.778503	528.900000
776.815186	524.500000
776.851746	531.900000
776.888367	534.200000
776.924988	540.500000
776.961609	532.500000
776.998291	532.900000
777.034851	527.500000
777.071472	540.000000
777.108154	540.000000
777.144714	553.900000
777.181335	551.200000
777.218018	540.000000
777.254578	549.400000
777.291199	547.800000
777.327759	555.100000
777.364380	562.600000
777.401062	570.800000
777.437622	579.700000
777.474243	564.700000
777.510864	574.300000
777.547424	567.800000
777.584045	571.600000
777.620667	573.100000
777.657227	574.000000
777.693848	574.400000
777.730469	590.600000
777.767029	579.800000
777.803650	586.000000
777.840271	581.000000
777.876831	578.000000
777.913452	590.400000
777.950012	569.800000
777.986633	573.800000
778.023193	568.800000
778.059753	571.000000
778.096375	572.400000
778.132996	589.100000
778.169556	578.600000
778.206116	578.600000
778.242737	575.700000
778.279297	584.000000
778.315857	574.400000
778.352478	584.100000
778.389038	593.400000
778.425598	591.200000
778.462219	600.100000
778.498718	596.000000
778.535339	603.100000
778.571838	604.300000
778.608459	611.200000
778.645020	601.400000
778.681580	610.500000
778.718140	607.800000
778.754761	599.800000
778.791260	608.700000
778.827881	619.800000
778.864441	616.500000
778.900940	623.300000
778.937561	621.100000
778.974121	617.000000
779.010620	606.600000
779.047241	613.800000
779.083801	622.600000
779.120300	619.700000
779.156860	620.500000
779.193359	618.000000
779.229980	618.300000
779.266541	623.600000
779.303040	622.800000
779.339600	621.400000
779.376160	613.800000
779.412659	617.400000
779.449219	611.700000
779.485779	619.400000
779.522278	616.800000
779.558838	624.400000
779.595398	622.100000
779.631897	621.500000
779.668457	613.300000
779.705017	623.600000
779.741516	614.700000
779.778076	610.200000
779.814575	618.700000
779.851074	623.800000
779.887634	617.500000
779.924133	628.300000
779.960693	615.100000
779.997253	626.200000
780.033691	634.700000
780.070251	636.400000
780.106812	646.800000
780.143250	642.500000
780.179810	636.300000
780.216370	636.600000
780.252808	643.300000
780.289368	649.200000
780.325867	646.600000
780.362366	643.900000
780.398865	659.600000
780.435364	653.400000
780.471863	661.100000
780.508423	660.000000
780.544861	664.800000
780.581421	666.200000
780.617920	656.200000
780.654419	650.800000
780.690918	656.400000
780.727417	665.800000
780.763916	661.800000
780.800415	670.700000
780.836914	657.700000
780.873352	668.500000
780.909912	658.800000
780.946411	665.900000
780.982849	677.000000
781.019348	689.200000
781.055786	682.000000
781.092346	676.700000
781.128845	684.500000
781.165283	692.800000
781.201782	698.600000
781.238281	704.200000
781.274719	705.500000
781.311218	698.500000
781.347717	707.000000
781.384155	695.200000
781.420654	700.500000
781.457092	711.600000
781.493591	708.600000
781.530090	702.900000
781.566528	707.300000
781.602966	705.700000
781.639465	707.100000
781.675903	701.500000
781.712402	709.400000
781.748901	717.600000
781.785278	707.200000
781.821777	711.100000
781.858276	712.400000
781.894714	727.700000
781.931152	723.300000
781.967651	729.900000
782.004089	725.200000
782.040527	735.000000
782.076965	735.900000
782.113403	736.200000
782.149902	741.200000
782.186340	734.200000
782.222778	753.500000
782.259277	742.200000
782.295654	739.300000
782.332092	750.000000
782.368591	751.600000
782.404968	745.200000
782.441467	747.900000
782.477905	753.800000
782.514282	745.900000
782.550781	766.600000
782.587219	766.200000
782.623596	773.100000
782.660095	774.000000
782.696472	779.600000
782.732910	779.200000
782.769348	785.800000
782.805786	803.300000
782.842224	800.500000
782.878662	791.300000
782.915039	797.600000
782.951477	797.300000
782.987915	789.800000
783.024292	801.600000
783.060730	801.800000
783.097168	795.100000
783.133545	790.800000
783.169983	786.300000
783.206421	775.200000
783.242798	773.900000
783.279236	766.900000
783.315613	766.100000
783.352051	764.500000
783.388489	757.800000
783.424866	748.300000
783.461304	755.300000
783.497681	766.400000
783.534058	763.400000
783.570496	758.400000
783.606934	759.200000
783.643250	766.600000
783.679687	775.300000
783.716125	764.400000
783.752441	778.700000
783.788879	800.900000
783.825317	808.700000
783.861633	812.300000
783.898071	818.600000
783.934448	833.000000
783.970825	846.400000
784.007263	848.100000
784.043579	851.900000
784.080017	854.900000
784.116394	847.100000
784.152710	853.300000
784.189148	855.100000
784.225525	850.200000
784.261902	844.100000
784.298279	836.600000
784.334656	836.800000
784.371033	823.200000
784.407410	829.500000
784.443787	809.000000
784.480164	795.600000
784.516541	776.800000
784.552856	780.200000
784.589233	771.700000
784.625610	772.500000
784.661987	802.400000
784.698364	790.200000
784.734741	784.100000
784.771057	784.900000
784.807434	781.500000
784.843811	800.000000
784.880127	786.800000
784.916504	802.600000
784.952881	790.700000
784.989197	762.300000
785.025574	736.200000
785.061951	707.800000
785.098267	687.900000
785.134644	647.000000
785.170959	609.400000
785.207275	581.100000
785.243652	556.200000
785.279968	522.900000
785.316345	512.100000
785.352722	509.500000
785.388977	510.300000
785.425354	510.100000
785.461731	517.300000
785.498047	536.200000
785.534363	555.100000
785.570679	581.400000
785.606995	612.000000
785.643372	644.300000
785.679687	666.800000
785.716003	682.700000
785.752380	701.000000
785.788635	729.200000
785.825012	759.600000
785.861328	783.200000
785.897644	784.400000
785.933960	806.700000
785.970337	817.200000
786.006592	835.900000
786.042908	843.600000
786.079285	856.400000
786.115540	863.400000
786.151855	864.600000
786.188171	859.600000
786.224487	858.800000
786.260803	852.900000
786.297119	865.500000
786.333435	860.700000
786.369751	851.600000
786.406006	853.200000
786.442322	834.000000
786.478638	832.000000
786.514954	843.000000
786.551270	836.100000
786.587585	847.600000
786.623840	840.900000
786.660156	834.200000
786.696472	819.700000
786.732727	815.900000
786.769043	818.100000
786.805298	812.900000
786.841614	819.900000
786.877930	828.300000
786.914124	816.200000
786.950439	836.900000
786.986755	845.700000
787.023010	857.200000
787.059326	869.200000
787.095642	870.500000
787.131836	888.600000
787.168152	870.300000
787.204468	881.300000
787.240723	894.600000
787.276978	906.200000
787.313293	907.400000
787.349548	901.500000
787.385803	904.900000
787.422058	894.400000
787.458313	892.800000
787.494629	890.300000
787.530823	888.100000
787.567139	879.500000
787.603455	868.500000
787.639648	856.400000
787.675903	860.800000
787.712219	856.400000
787.748413	853.900000
787.784729	865.700000
787.820984	856.000000
787.857178	849.000000
787.893494	847.200000
787.929749	843.400000
787.965942	855.200000
788.002258	868.500000
788.038452	881.800000
788.074707	879.000000
788.110962	885.800000
788.147217	891.400000
788.183472	896.700000
788.219727	909.400000
788.255920	929.000000
788.292175	937.500000
788.328430	936.400000
788.364624	920.100000
788.400879	917.000000
788.437134	923.900000
788.473328	923.900000
788.509583	925.800000
788.545837	921.800000
788.582031	919.500000
788.618286	914.800000
788.654480	908.800000
788.690735	923.300000
788.726990	938.600000
788.763184	935.800000
788.799377	949.800000
788.835632	938.700000
788.871826	950.700000
788.908081	944.900000
788.944336	939.000000
788.980469	960.700000
789.016724	956.700000
789.052979	953.700000
789.089111	938.000000
789.125366	948.100000
789.161621	924.200000
789.197754	943.500000
789.234009	934.900000
789.270142	934.200000
789.306396	930.800000
789.342590	922.900000
789.378784	897.900000
789.414978	892.600000
789.451233	906.900000
789.487366	912.700000
789.523621	918.200000
789.559814	914.400000
789.595947	902.900000
789.632202	911.300000
789.668335	921.200000
789.704529	939.800000
789.740784	960.800000
789.776917	962.200000
789.813110	952.500000
789.849304	966.500000
789.885498	968.600000
789.921692	985.000000
789.957886	991.500000
789.994019	997.200000
790.030212	996.400000
790.066406	999.500000
790.102539	1001.700000
790.138733	1010.000000
790.174927	1002.100000
790.211060	1018.000000
790.247253	1005.000000
790.283386	994.500000
790.319580	984.900000
790.355774	964.000000
790.391907	965.100000
790.428101	984.900000
790.464294	987.900000
790.500427	982.700000
790.536621	966.500000
790.572754	943.200000
790.608887	940.600000
790.645081	952.000000
790.681274	966.900000
790.717346	976.100000
790.753540	956.000000
790.789734	930.600000
790.825867	918.300000
790.862000	922.200000
790.898132	932.900000
790.934265	936.000000
790.970459	940.700000
791.006592	936.400000
791.042725	931.500000
791.078918	924.000000
791.114990	916.300000
791.151184	921.300000
791.187317	943.100000
791.223389	936.200000
791.259583	916.600000
791.295715	923.200000
791.331848	924.900000
791.367981	933.100000
791.404114	947.200000
791.440247	942.600000
791.476379	951.100000
791.512451	935.300000
791.548584	932.900000
791.584778	923.300000
791.620850	943.000000
791.656982	946.200000
791.693115	948.300000
791.729187	946.900000
791.765381	938.100000
791.801514	937.200000
791.837585	934.500000
791.873718	945.700000
791.909851	954.100000
791.945923	973.700000
791.982056	935.400000
792.018188	929.300000
792.054260	936.800000
792.090393	930.200000
792.126465	925.000000
792.162598	934.400000
792.198669	927.000000
792.234741	916.300000
792.270874	909.800000
792.307007	893.000000
792.343079	901.100000
792.379150	909.200000
792.415283	898.800000
792.451355	902.600000
792.487488	879.400000
792.523560	876.200000
792.559631	862.000000
792.595764	827.700000
792.631836	794.700000
792.667908	790.800000
792.703979	774.600000
792.740051	792.300000
792.776184	828.200000
792.812256	834.600000
792.848328	844.300000
792.884399	857.000000
792.920471	860.200000
792.956543	855.900000
792.992615	854.500000
793.028748	854.900000
793.064758	852.300000
793.100830	874.900000
793.136963	894.900000
793.172974	893.800000
793.209045	885.800000
793.245178	894.500000
793.281189	871.900000
793.317261	879.400000
793.353271	884.400000
793.389404	902.100000
793.425476	900.900000
793.461487	885.200000
793.497559	875.800000
793.533630	880.600000
793.569641	871.900000
793.605713	877.700000
793.641785	882.400000
793.677795	889.900000
793.713867	880.500000
793.749878	889.900000
793.785950	901.300000
793.822021	901.900000
793.858032	888.600000
793.894104	906.000000
793.930176	890.700000
793.966187	892.800000
794.002258	884.000000
794.038269	886.600000
794.074280	885.000000
794.110352	917.200000
794.146423	890.800000
794.182373	890.200000
794.218445	889.700000
794.254517	879.200000
794.290466	866.100000
794.326538	874.100000
794.362549	876.500000
794.398560	879.800000
794.434631	886.800000
794.470581	869.800000
794.506653	862.700000
794.542664	864.100000
794.578674	869.300000
794.614685	871.500000
794.650757	870.500000
794.686707	867.000000
794.722778	855.900000
794.758789	861.200000
794.794739	869.200000
794.830811	892.200000
794.866821	916.600000
794.902771	911.000000
794.938843	908.200000
794.974792	907.600000
795.010803	905.600000
795.046814	905.100000
795.082825	895.500000
795.118835	913.200000
795.154846	891.000000
795.190796	900.700000
795.226807	875.000000
795.262817	878.100000
795.298767	879.500000
795.334778	888.300000
795.370850	881.900000
795.406799	887.200000
795.442810	869.500000
795.478821	865.900000
795.514709	863.700000
795.550720	883.700000
795.586670	866.700000
795.622681	877.500000
795.658691	874.500000
795.694641	874.100000
795.730652	865.900000
795.766663	873.400000
795.802551	877.400000
795.838562	897.700000
795.874573	883.300000
795.910522	883.000000
795.946472	868.500000
795.982483	872.900000
796.018433	871.300000
796.054382	885.000000
796.090393	877.000000
796.126282	872.600000
796.162292	862.500000
796.198242	858.200000
796.234192	854.700000
796.270203	847.200000
796.306091	854.000000
796.342041	867.900000
796.378052	855.500000
796.413940	852.500000
796.449951	854.700000
796.485901	857.000000
796.521790	860.100000
796.557800	876.700000
796.593689	878.000000
796.629639	867.900000
796.665649	862.100000
796.701599	851.300000
796.737488	856.200000
796.773437	862.100000
796.809387	863.400000
796.845337	867.800000
796.881287	861.700000
796.917175	843.000000
796.953125	843.800000
796.989075	851.100000
797.024963	857.900000
797.060913	853.700000
797.096863	853.500000
797.132751	848.300000
797.168701	830.800000
797.204590	838.200000
797.240540	840.000000
797.276489	848.600000
797.312439	857.600000
797.348328	853.400000
797.384277	842.100000
797.420166	831.300000
797.456055	832.900000
797.492004	824.800000
797.527893	834.300000
797.563843	842.300000
797.599731	829.100000
797.635620	818.200000
797.671570	822.200000
797.707520	824.400000
797.743347	828.100000
797.779297	832.600000
797.815125	832.700000
797.851074	820.000000
797.887024	811.000000
797.922913	801.100000
797.958801	807.600000
797.994690	807.300000
798.030579	814.200000
798.066467	822.700000
798.102356	812.900000
798.138245	803.100000
798.174133	796.200000
798.210083	806.200000
798.245911	812.800000
798.281799	814.600000
798.317749	812.000000
798.353577	802.500000
798.389465	800.100000
798.425293	797.800000
798.461243	797.300000
798.497131	798.700000
798.532959	804.300000
798.568848	810.300000
798.604736	797.100000
798.640564	781.100000
798.676453	785.300000
798.712402	785.200000
798.748230	788.300000
798.784119	790.000000
798.820007	794.700000
798.855835	784.700000
798.891724	777.100000
798.927551	773.700000
798.963379	782.800000
798.999268	774.400000
799.035095	773.500000
799.070984	767.700000
799.106873	753.100000
799.142700	757.400000
799.178528	749.400000
799.214417	751.500000
799.250244	766.300000
799.286133	760.900000
799.321960	760.700000
799.357788	754.500000
799.393677	750.200000
799.429504	744.900000
799.465332	750.100000
799.501221	759.200000
799.537048	755.200000
799.572876	748.500000
799.608704	748.600000
799.644531	757.600000
799.680359	753.800000
799.716248	764.000000
799.752014	774.400000
799.787903	760.000000
799.823730	760.200000
799.859558	752.800000
799.895386	750.100000
799.931213	752.100000
799.967041	746.800000
800.002869	749.700000
800.038696	761.400000
800.074463	742.900000
800.110352	744.700000
800.146179	735.400000
800.181946	744.500000
800.217773	749.700000
800.253540	743.300000
800.289429	737.600000
800.325256	726.400000
800.361023	720.400000
800.396851	728.300000
800.432678	732.100000
800.468445	734.500000
800.504272	732.100000
800.540100	716.700000
800.575867	716.000000
800.611694	718.300000
800.647461	713.900000
800.683289	715.300000
800.719116	723.800000
800.754883	717.800000
800.790649	703.700000
800.826477	697.400000
800.862244	721.000000
800.898071	701.200000
800.933838	704.900000
800.969604	702.700000
801.005432	706.800000
801.041199	702.300000
801.076965	694.200000
801.112793	684.400000
801.148560	678.700000
801.184326	682.200000
801.220154	683.600000
801.255859	679.900000
801.291687	681.500000
801.327454	674.500000
801.363281	672.500000
801.398987	672.800000
801.434814	670.100000
801.470520	682.800000
801.506287	668.500000
801.542114	663.400000
801.577820	663.100000
801.613647	665.800000
801.649414	664.200000
801.685120	667.200000
801.720886	673.600000
801.756714	658.300000
801.792419	651.900000
801.828186	646.600000
801.863892	654.400000
801.899719	647.300000
801.935486	644.100000
801.971252	654.600000
802.006958	648.500000
802.042725	641.600000
802.078430	640.700000
802.114197	638.000000
802.149963	656.200000
802.185669	640.900000
802.221436	638.500000
802.257202	641.200000
802.292908	635.800000
802.328674	646.600000
802.364441	648.100000
802.400146	646.200000
802.435913	641.900000
802.471558	643.200000
802.507324	634.800000
802.543091	628.000000
802.578796	643.400000
802.614502	644.400000
802.650269	647.600000
802.685974	632.800000
802.721741	635.400000
802.757446	638.000000
802.793152	633.400000
802.828918	647.700000
802.864624	641.800000
802.900330	640.300000
802.936035	641.000000
802.971802	634.700000
803.007446	631.200000
803.043213	622.100000
803.078857	632.400000
803.114624	615.900000
803.150330	624.900000
803.185974	618.500000
803.221741	618.100000
803.257446	628.500000
803.293152	632.200000
803.328857	624.200000
803.364563	618.700000
803.400208	613.600000
803.435974	620.400000
803.471680	610.100000
803.507324	607.400000
803.543030	617.700000
803.578735	620.200000
803.614441	609.800000
803.650146	622.000000
803.685791	607.500000
803.721497	612.800000
803.757202	599.900000
803.792847	610.300000
803.828552	599.400000
803.864258	603.200000
803.899902	596.000000
803.935608	582.100000
803.971313	586.500000
804.006958	587.600000
804.042664	585.700000
804.078308	591.200000
804.113953	584.200000
804.149658	592.900000
804.185364	580.800000
804.221008	588.900000
804.256714	575.300000
804.292297	575.700000
804.328003	576.900000
804.363708	568.700000
804.399292	568.600000
804.434998	568.500000
804.470703	560.700000
804.506287	572.900000
804.541992	565.600000
804.577637	569.700000
804.613281	557.100000
804.648926	553.800000
804.684570	554.700000
804.720215	547.300000
804.755920	550.800000
804.791565	549.200000
804.827209	557.300000
804.862854	552.700000
804.898437	542.900000
804.934143	545.100000
804.969788	542.800000
805.005371	544.300000
805.041077	545.800000
805.076721	544.200000
805.112305	532.000000
805.147949	534.200000
805.183655	529.400000
805.219238	536.600000
805.254883	534.700000
805.290466	540.600000
805.326111	534.400000
805.361755	523.100000
805.397400	526.200000
805.432983	528.300000
805.468628	524.100000
805.504211	532.400000
805.539856	528.200000
805.575500	531.800000
805.611084	526.400000
805.646729	510.300000
805.682373	518.600000
805.717957	525.700000
805.753601	526.100000
805.789246	512.700000
805.824768	522.600000
805.860413	524.200000
805.895996	512.700000
805.931641	513.000000
805.967224	519.100000
806.002869	513.000000
806.038452	523.400000
806.074036	520.800000
806.109619	509.900000
806.145264	506.700000
806.180847	508.300000
806.216431	504.300000
806.252014	509.400000
806.287659	511.200000
806.323181	518.000000
806.358826	512.200000
806.394409	494.500000
806.429993	498.100000
806.465576	512.800000
806.501160	498.000000
806.536743	491.400000
806.572327	499.700000
806.607910	495.100000
806.643494	495.600000
806.679077	490.700000
806.714661	491.000000
806.750244	489.600000
806.785828	486.500000
806.821350	485.600000
806.856934	494.100000
806.892517	488.000000
806.928101	481.200000
806.963684	482.000000
806.999268	494.300000
807.034790	474.100000
807.070374	479.700000
807.105896	475.100000
807.141479	471.400000
807.177063	479.200000
807.212585	471.000000
807.248169	471.900000
807.283752	477.900000
807.319275	471.800000
807.354858	476.700000
807.390381	470.600000
807.425903	469.300000
807.461487	464.800000
807.497070	457.400000
807.532593	459.700000
807.568115	458.400000
807.603699	455.300000
807.639221	450.800000
807.674744	454.200000
807.710266	461.200000
807.745850	461.700000
807.781372	453.400000
807.816895	451.600000
807.852417	457.000000
807.888000	450.100000
807.923523	447.600000
807.959045	452.400000
807.994629	441.900000
808.030090	441.900000
808.065613	448.300000
808.101135	447.600000
808.136658	447.100000
808.172241	442.700000
808.207764	442.200000
808.243225	440.700000
808.278809	436.300000
808.314270	441.700000
808.349792	431.400000
808.385315	429.700000
808.420837	436.800000
808.456360	441.600000
808.491882	442.600000
808.527344	438.000000
808.562866	446.500000
808.598389	437.600000
808.633850	434.000000
808.669434	427.600000
808.704895	435.400000
808.740417	440.300000
808.775940	433.700000
808.811462	433.200000
808.846924	424.500000
808.882385	422.200000
808.917847	420.400000
808.953369	424.500000
808.988892	419.700000
809.024353	428.600000
809.059875	424.900000
809.095398	418.600000
809.130798	414.600000
809.166321	414.500000
809.201843	411.800000
809.237305	413.800000
809.272766	421.400000
809.308228	408.600000
809.343750	408.800000
809.379211	410.600000
809.414734	407.900000
809.450134	418.500000
809.485657	400.600000
809.521118	407.800000
809.556580	404.200000
809.592102	404.800000
809.627502	400.800000
809.663025	400.400000
809.698486	396.700000
809.733887	395.300000
809.769409	397.600000
809.804871	388.000000
809.840271	389.200000
809.875793	394.400000
809.911194	397.300000
809.946655	390.400000
809.982178	386.000000
810.017639	393.600000
810.053040	385.700000
810.088501	386.000000
810.123901	382.500000
810.159424	381.700000
810.194885	378.000000
810.230286	383.300000
810.265747	376.400000
810.301208	373.900000
810.336609	376.500000
810.372070	369.000000
810.407532	372.800000
810.442932	373.500000
810.478394	378.700000
810.513794	375.000000
810.549255	373.400000
810.584717	370.300000
810.620117	364.200000
810.655518	371.800000
810.690979	369.400000
810.726379	367.700000
810.761841	355.900000
810.797302	356.800000
810.832642	356.300000
810.868103	367.400000
810.903564	357.400000
810.938904	363.600000
810.974365	352.000000
811.009827	356.300000
811.045166	349.700000
811.080627	344.200000
811.115967	351.200000
811.151428	355.200000
811.186829	349.100000
811.222229	348.500000
811.257629	343.000000
811.293091	350.200000
811.328430	357.200000
811.363892	349.700000
811.399292	352.700000
811.434631	346.100000
811.470093	350.500000
811.505493	341.300000
811.540833	342.600000
811.576294	347.100000
811.611694	341.600000
811.647034	339.300000
811.682434	340.200000
811.717773	342.700000
811.753235	347.400000
811.788635	338.800000
811.823975	338.100000
811.859375	346.800000
811.894775	333.800000
811.930115	334.500000
811.965515	334.500000
812.000916	338.800000
812.036255	334.200000
812.071655	340.200000
812.106995	330.100000
812.142395	332.000000
812.177795	338.800000
812.213196	338.700000
812.248474	336.600000
812.283875	327.700000
812.319214	332.500000
812.354614	330.900000
812.390015	326.400000
812.425293	327.100000
812.460693	328.900000
812.496094	325.200000
812.531433	320.000000
812.566772	320.400000
812.602173	325.300000
812.637451	325.000000
812.672852	318.700000
812.708191	323.100000
812.743530	316.200000
812.778931	309.400000
812.814270	312.500000
812.849609	320.800000
812.884949	314.800000
812.920227	308.100000
812.955627	326.300000
812.990967	315.500000
813.026306	311.500000
813.061646	301.100000
813.096985	297.500000
813.132324	295.400000
813.167664	300.800000
813.203003	305.600000
813.238281	293.600000
813.273682	294.300000
813.308960	290.000000
813.344299	292.000000
813.379639	301.400000
813.414978	292.400000
813.450256	290.800000
813.485596	296.300000
813.520874	287.600000
813.556213	293.300000
813.591614	295.400000
813.626831	289.300000
813.662170	289.500000
813.697510	300.400000
813.732788	284.400000
813.768127	290.900000
813.803467	289.400000
813.838745	284.600000
813.874084	288.000000
813.909363	288.500000
813.944641	288.400000
813.979980	280.000000
814.015320	285.000000
814.050598	280.300000
814.085876	285.900000
814.121155	281.200000
814.156494	278.500000
814.191772	280.000000
814.227051	276.900000
814.262390	278.600000
814.297668	278.700000
814.332947	280.900000
814.368225	271.600000
814.403564	274.300000
814.438782	272.800000
814.474121	274.000000
814.509338	270.700000
814.544617	280.400000
814.579956	269.400000
814.615173	280.700000
814.650513	275.700000
814.685791	270.000000
814.721008	273.600000
814.756348	270.400000
814.791626	268.500000
814.826843	267.400000
814.862122	268.100000
814.897400	266.600000
814.932678	266.900000
814.967957	266.600000
815.003235	267.900000
815.038452	260.700000
815.073730	259.400000
815.108948	269.900000
815.144226	266.700000
815.179504	269.900000
815.214722	255.800000
815.250000	255.700000
815.285278	263.100000
815.320496	257.400000
815.355774	259.200000
815.391052	262.400000
815.426270	259.900000
815.461487	256.700000
815.496765	253.300000
815.531982	249.400000
815.567261	256.000000
815.602539	263.700000
815.637695	258.500000
815.672974	260.400000
815.708191	261.500000
815.743408	259.100000
815.778687	253.800000
815.813904	264.000000
815.849121	245.400000
815.884399	247.700000
815.919556	250.100000
815.954834	251.000000
815.990051	253.500000
816.025269	255.000000
816.060486	245.600000
816.095703	245.400000
816.130920	249.600000
816.166199	244.700000
816.201416	250.100000
816.236572	253.200000
816.271851	244.500000
816.307007	253.500000
816.342224	239.900000
816.377441	246.700000
816.412659	237.900000
816.447876	247.600000
816.483093	243.200000
816.518250	243.400000
816.553467	240.200000
816.588745	245.400000
816.623901	235.800000
816.659119	232.300000
816.694275	236.800000
816.729492	235.100000
816.764709	269.300000
816.799927	230.200000
816.835083	235.000000
816.870300	230.600000
816.905457	234.700000
816.940674	236.200000
816.975830	230.000000
817.010986	227.500000
817.046204	231.300000
817.081421	227.100000
817.116577	226.300000
817.151733	235.200000
817.186951	235.100000
817.222107	231.000000
817.257324	233.800000
817.292419	232.200000
817.327637	223.400000
817.362854	228.200000
817.398010	220.500000
817.433167	225.300000
817.468323	224.800000
817.503479	225.900000
817.538635	233.400000
817.573853	229.400000
817.608948	227.000000
817.644165	222.300000
817.679321	220.500000
817.714478	221.400000
817.749634	224.800000
817.784790	235.400000
817.819946	230.800000
817.855103	212.400000
817.890198	223.200000
817.925415	214.700000
817.960571	223.700000
817.995667	223.300000
818.030823	223.600000
818.066040	216.800000
818.101135	221.500000
818.136292	217.700000
818.171448	214.400000
818.206543	218.500000
818.241699	222.000000
818.276855	218.900000
818.311951	216.600000
818.347107	214.300000
818.382263	220.700000
818.417358	223.200000
818.452515	224.000000
818.487610	224.400000
818.522766	213.300000
818.557922	222.800000
818.593018	219.800000
818.628113	216.400000
818.663269	212.300000
818.698364	214.800000
818.733521	213.100000
818.768677	217.000000
818.803711	210.100000
818.838867	209.500000
818.874023	211.900000
818.909058	209.200000
818.944214	208.700000
818.979370	214.400000
819.014404	213.000000
819.049561	208.400000
819.084595	214.900000
819.119751	205.800000
819.154846	212.300000
819.189941	210.000000
819.225037	204.000000
819.260193	200.500000
819.295227	203.400000
819.330322	200.500000
819.365479	199.900000
819.400513	233.100000
819.435608	197.700000
819.470764	195.800000
819.505798	200.100000
819.540894	202.400000
819.575989	199.800000
819.611084	209.700000
819.646179	209.800000
819.681213	205.400000
819.716309	202.000000
819.751404	201.200000
819.786438	205.700000
819.821533	198.800000
819.856628	202.200000
819.891663	205.600000
819.926758	211.900000
819.961853	207.600000
819.996887	197.000000
820.031982	206.700000
820.067017	199.900000
820.102112	228.400000
820.137207	197.800000
820.172302	213.300000
820.207275	195.100000
820.242371	196.000000
820.277405	195.700000
820.312500	197.400000
820.347534	200.900000
820.382568	203.900000
820.417664	196.100000
820.452759	197.800000
820.487732	195.100000
820.522827	196.200000
820.557861	192.300000
820.592896	196.800000
820.627930	196.200000
820.662964	193.800000
820.698059	198.100000
820.733093	194.600000
820.768127	201.400000
820.803162	196.700000
820.838196	193.400000
820.873230	197.200000
820.908264	196.200000
820.943298	194.400000
820.978333	201.400000
821.013367	197.700000
821.048401	199.500000
821.083435	202.500000
821.118469	188.200000
821.153503	200.900000
821.188477	198.500000
821.223511	190.000000
821.258484	197.600000
821.293579	197.400000
821.328613	190.000000
821.363647	193.700000
821.398621	189.200000
821.433655	191.500000
821.468628	207.500000
821.503662	193.900000
821.538696	197.900000
821.573669	189.800000
821.608704	199.900000
821.643677	192.600000
821.678650	197.300000
821.713684	203.900000
821.748718	192.600000
821.783691	195.000000
821.818726	196.300000
821.853638	196.600000
821.888672	193.000000
821.923706	193.100000
821.958618	192.900000
821.993652	191.700000
822.028687	199.000000
822.063599	199.700000
822.098633	195.300000
822.133667	191.000000
822.168579	194.200000
822.203613	195.200000
822.238586	191.000000
822.273560	196.300000
822.308533	191.700000
822.343567	189.300000
822.378479	192.700000
822.413452	192.300000
822.448425	190.700000
822.483398	197.500000
822.518372	197.700000
822.553345	190.500000
822.588318	201.600000
822.623291	191.600000
822.658203	190.000000
822.693237	193.800000
822.728210	188.500000
822.763123	194.600000
822.798096	188.200000
822.833069	192.400000
822.867981	191.700000
822.902954	193.300000
822.937927	195.600000
822.972900	203.200000
823.007874	185.600000
823.042725	197.600000
823.077698	204.600000
823.112671	189.900000
823.147583	191.100000
823.182556	196.000000
823.217529	198.700000
823.252441	190.900000
823.287415	204.500000
823.322388	195.800000
823.357239	191.500000
823.392212	201.600000
823.427185	197.200000
823.462097	189.800000
823.497009	195.700000
823.531982	190.600000
823.566895	191.900000
823.601807	189.300000
823.636719	191.900000
823.671631	196.600000
823.706604	190.600000
823.741455	197.000000
823.776428	185.000000
823.811340	196.600000
823.846252	197.800000
823.881165	200.200000
823.916138	193.000000
823.950989	202.800000
823.985901	188.800000
824.020813	193.300000
824.055725	190.600000
824.090637	186.700000
824.125610	193.700000
824.160461	193.100000
824.195374	193.600000
824.230225	199.100000
824.265198	184.800000
824.300110	190.400000
824.334961	201.600000
824.369873	182.800000
824.404785	194.000000
824.439636	198.900000
824.474548	183.200000
824.509460	182.100000
824.544312	197.900000
824.579224	193.900000
824.614075	193.500000
824.648987	191.800000
824.683899	192.300000
824.718811	189.500000
824.753662	198.100000
824.788574	196.800000
824.823364	193.900000
824.858276	188.700000
824.893188	196.300000
824.928040	196.400000
824.962952	195.000000
824.997803	194.300000
825.032654	193.400000
825.067566	195.100000
825.102417	189.800000
825.137268	190.100000
825.172119	193.800000
825.206970	187.900000
825.241882	189.800000
825.276733	187.200000
825.311646	188.700000
825.346436	184.500000
825.381348	185.200000
825.416138	189.800000
825.450989	186.300000
825.485901	181.500000
825.520691	182.700000
825.555542	183.100000
825.590454	188.900000
825.625244	182.700000
825.660095	196.000000
825.695007	193.000000
825.729797	188.100000
825.764648	185.700000
825.799438	188.200000
825.834290	190.000000
825.869202	183.000000
825.903992	190.300000
825.938843	186.300000
825.973694	183.800000
826.008484	201.700000
826.043335	183.900000
826.078186	179.600000
826.112976	195.000000
826.147827	193.700000
826.182678	198.300000
826.217468	182.100000
826.252319	193.000000
826.287109	182.300000
826.321899	193.600000
826.356750	186.200000
826.391541	182.700000
826.426392	193.800000
826.461182	188.300000
826.495972	181.600000
826.530823	179.200000
826.565613	188.700000
826.600403	182.700000
826.635254	190.300000
826.670044	179.500000
826.704834	179.300000
826.739685	183.000000
826.774475	188.700000
826.809265	187.700000
826.844055	184.700000
826.878906	192.500000
826.913635	188.900000
826.948425	189.700000
826.983215	188.300000
827.018005	193.400000
827.052856	185.900000
827.087585	190.100000
827.122375	179.000000
827.157227	187.000000
827.191956	198.900000
827.226746	184.000000
827.261536	189.700000
827.296265	180.300000
827.331116	184.200000
827.365906	191.600000
827.400635	182.000000
827.435425	178.700000
827.470215	192.900000
827.504944	184.600000
827.539734	190.500000
827.574463	186.000000
827.609253	193.400000
827.644043	187.500000
827.678772	191.100000
827.713562	184.500000
827.748352	185.400000
827.783081	183.600000
827.817871	186.500000
827.852600	182.000000
827.887329	188.100000
827.922119	178.800000
827.956848	189.700000
827.991638	198.500000
828.026367	188.400000
828.061157	187.700000
828.095886	187.400000
828.130615	199.900000
828.165344	177.300000
828.200073	186.200000
828.234863	184.300000
828.269592	186.800000
828.304321	191.800000
828.339111	187.200000
828.373779	183.400000
828.408569	191.900000
828.443298	191.300000
828.477966	183.700000
828.512756	188.700000
828.547424	182.100000
828.582214	185.100000
828.616943	185.600000
828.651672	185.700000
828.686340	190.400000
828.721130	184.800000
828.755798	185.900000
828.790527	188.500000
828.825256	188.300000
828.859924	188.000000
828.894714	192.900000
828.929443	195.900000
828.964111	182.800000
828.998840	183.900000
829.033569	182.400000
829.068237	183.500000
829.102966	184.400000
829.137634	187.500000
829.172363	187.300000
829.207092	187.800000
829.241821	181.800000
829.276489	179.400000
829.311157	186.500000
829.345825	185.400000
829.380554	191.800000
829.415283	181.200000
829.449951	179.200000
829.484619	194.400000
829.519348	192.600000
829.554016	187.000000
829.588745	185.900000
829.623413	180.400000
829.658081	197.800000
829.692749	180.800000
829.727417	192.400000
829.762146	187.300000
829.796814	183.700000
829.831482	185.600000
829.866150	188.500000
829.900879	183.100000
829.935486	188.800000
829.970154	184.600000
830.004883	195.300000
830.039490	186.300000
830.074219	183.400000
830.108887	187.100000
830.143494	185.800000
830.178223	180.500000
830.212891	185.400000
830.247498	186.200000
830.282166	194.500000
830.316772	193.600000
830.351501	184.700000
830.386169	185.900000
830.420776	183.800000
830.455444	186.500000
830.490112	184.100000
830.524719	177.400000
830.559387	189.800000
830.594055	188.700000
830.628662	186.500000
830.663330	186.400000
830.697998	195.700000
830.732605	186.000000
830.767273	188.200000
830.801941	185.900000
830.836487	195.900000
830.871155	187.200000
830.905762	187.500000
830.940430	180.100000
830.975098	183.100000
831.009644	186.700000
831.044312	194.500000
831.078979	188.700000
831.113525	178.100000
831.148193	186.500000
831.182861	184.400000
831.217407	188.600000
831.252075	202.100000
831.286621	183.700000
831.321289	184.100000
831.355896	184.300000
831.390564	193.700000
831.425110	187.300000
831.459778	193.700000
831.494324	198.900000
831.528931	190.400000
831.563599	190.100000
831.598145	179.600000
831.632751	186.800000
831.667419	185.200000
831.701965	189.700000
831.736572	190.100000
831.771179	180.200000
831.805786	184.900000
831.840393	193.000000
831.874939	179.300000
831.909546	190.500000
831.944153	179.400000
831.978760	185.900000
832.013306	180.900000
832.047913	193.500000
832.082458	194.500000
832.117065	184.300000
832.151672	194.700000
832.186218	188.000000
832.220825	189.400000
832.255432	178.800000
832.289978	183.500000
832.324585	189.200000
832.359192	188.000000
832.393677	185.200000
832.428284	187.200000
832.462830	185.400000
832.497437	185.100000
832.531982	190.100000
832.566589	184.700000
832.601135	187.500000
832.635681	177.500000
832.670227	186.900000
832.704773	194.500000
832.739380	188.100000
832.773926	187.700000
832.808472	182.900000
832.843079	186.300000
832.877563	188.400000
832.912170	182.800000
832.946716	179.800000
832.981201	191.700000
833.015808	190.100000
833.050293	185.600000
833.084839	182.800000
833.119446	182.900000
833.153992	189.800000
833.188477	185.900000
833.223022	181.700000
833.257568	187.200000
833.292114	192.000000
833.326660	197.000000
833.361145	184.800000
833.395691	179.500000
833.430237	186.000000
833.464783	189.100000
833.499329	184.900000
833.533875	181.100000
833.568359	189.400000
833.602905	192.700000
833.637390	191.300000
833.671875	182.500000
833.706421	185.700000
833.740906	183.900000
833.775452	177.300000
833.809998	185.000000
833.844482	193.500000
833.879028	185.600000
833.913513	182.900000
833.947998	188.500000
833.982544	182.500000
834.017090	183.600000
834.051514	176.200000
834.086060	189.300000
834.120544	185.000000
834.155029	188.700000
834.189575	183.500000
834.223999	188.500000
834.258545	186.300000
834.293030	187.700000
834.327515	185.400000
834.362000	184.100000
834.396545	189.500000
834.430969	184.900000
834.465454	190.900000
834.500000	179.200000
834.534424	190.100000
834.568970	176.800000
834.603455	178.400000
834.637878	184.200000
834.672363	187.200000
834.706909	186.600000
834.741333	186.000000
834.775818	178.800000
834.810242	182.200000
834.844727	186.700000
834.879211	184.700000
834.913635	187.800000
834.948181	188.800000
834.982666	187.900000
835.017090	184.600000
835.051575	190.000000
835.086060	184.000000
835.120483	190.300000
835.154907	189.800000
835.189331	185.700000
835.223816	189.400000
835.258301	181.600000
835.292786	181.000000
835.327209	189.900000
835.361694	182.200000
835.396057	183.100000
835.430542	187.600000
835.465027	187.300000
835.499390	182.600000
835.533875	207.000000
835.568359	184.600000
835.602722	178.400000
835.637207	188.400000
835.671692	179.900000
835.706055	202.300000
835.740540	187.700000
835.774902	187.200000
835.809387	186.700000
835.843811	180.400000
835.878235	194.100000
835.912659	180.800000
835.947083	183.400000
835.981506	186.500000
836.015930	179.600000
836.050354	191.800000
836.084778	195.100000
836.119202	192.900000
836.153625	199.700000
836.187988	183.500000
836.222473	182.000000
836.256897	187.000000
836.291260	185.700000
836.325684	186.800000
836.360046	182.400000
836.394470	186.500000
836.428894	192.000000
836.463318	183.600000
836.497681	190.200000
836.532104	193.200000
836.566467	187.900000
836.600891	185.600000
836.635315	191.300000
836.669678	188.200000
836.704102	189.500000
836.738525	188.000000
836.772888	178.600000
836.807251	183.900000
836.841675	188.500000
836.876038	181.900000
836.910461	183.200000
836.944763	189.700000
836.979187	182.500000
837.013611	193.400000
837.047974	180.100000
837.082336	198.200000
837.116699	191.000000
837.151062	187.300000
837.185486	180.400000
837.219849	185.800000
837.254211	190.000000
837.288574	184.700000
837.322937	182.000000
837.357300	175.500000
837.391663	199.000000
837.426086	193.100000
837.460388	187.600000
837.494751	191.800000
837.529114	184.700000
837.563477	192.700000
837.597839	189.400000
837.632141	185.000000
837.666565	184.100000
837.700928	188.600000
837.735229	189.400000
837.769592	188.500000
837.803955	192.200000
837.838257	183.800000
837.872620	182.700000
837.906982	192.200000
837.941284	187.000000
837.975647	186.800000
838.010010	193.200000
838.044312	184.500000
838.078674	184.000000
838.112976	186.800000
838.147339	190.100000
838.181702	185.000000
838.216003	196.900000
838.250366	188.200000
838.284668	190.300000
838.318970	178.600000
838.353333	187.200000
838.387634	185.700000
838.421936	187.900000
838.456299	187.300000
838.490601	194.400000
838.524902	190.400000
838.559265	192.900000
838.593567	190.900000
838.627869	180.900000
838.662170	190.500000
838.696472	180.300000
838.730774	183.600000
838.765137	191.900000
838.799377	172.800000
838.833740	188.100000
838.868042	193.500000
838.902283	178.600000
838.936646	192.800000
838.970947	188.300000
839.005188	192.100000
839.039551	180.500000
839.073792	194.200000
839.108093	185.900000
839.142395	197.900000
839.176697	180.800000
839.210937	187.700000
839.245300	198.100000
839.279541	182.800000
839.313843	185.600000
839.348145	190.100000
839.382385	191.100000
839.416687	191.900000
839.450989	188.800000
839.485229	186.600000
839.519531	182.400000
839.553833	192.700000
839.588013	185.700000
839.622314	187.800000
839.656555	189.000000
839.690857	186.600000
839.725159	181.300000
839.759460	185.900000
839.793640	184.100000
839.827942	186.700000
839.862183	181.400000
839.896423	187.500000
839.930725	195.800000
839.964966	195.300000
839.999207	192.200000
840.033508	194.300000
840.067688	184.100000
840.101990	194.800000
840.136230	184.900000
840.170471	194.600000
840.204712	182.700000
840.238953	183.100000
840.273193	189.100000
840.307434	191.000000
840.341736	182.100000
840.375916	180.800000
840.410217	183.900000
840.444397	192.500000
840.478638	190.200000
840.512878	192.600000
840.547119	187.900000
840.581360	190.200000
840.615601	195.200000
840.649780	196.000000
840.684021	187.400000
840.718262	195.700000
840.752441	193.500000
840.786682	188.200000
840.820862	189.700000
840.855103	194.100000
840.889343	188.400000
840.923584	192.400000
840.957764	190.100000
840.992004	188.400000
841.026184	201.900000
841.060425	185.100000
841.094666	184.200000
841.128845	190.400000
841.163025	189.500000
841.197266	191.200000
841.231445	189.100000
841.265686	189.800000
841.299866	184.200000
841.334045	195.900000
841.368286	187.000000
841.402405	194.900000
841.436646	192.200000
841.470825	184.300000
841.505005	186.200000
841.539185	183.300000
841.573425	183.500000
841.607544	186.600000
841.641785	188.000000
841.675964	181.800000
841.710144	188.600000
841.744324	182.000000
841.778503	185.300000
841.812683	184.100000
841.846863	195.000000
841.881042	193.900000
841.915222	185.200000
841.949402	202.800000
841.983521	179.200000
842.017700	187.200000
842.051880	189.300000
842.086060	188.400000
842.120239	188.000000
842.154419	185.200000
842.188538	188.300000
842.222717	183.500000
842.256897	196.900000
842.291016	186.300000
842.325195	191.300000
842.359375	198.700000
842.393494	194.700000
842.427673	188.000000
842.461853	190.400000
842.495911	195.900000
842.530090	189.300000
842.564209	186.800000
842.598389	190.900000
842.632568	188.700000
842.666626	191.300000
842.700806	184.600000
842.734985	184.100000
842.769043	190.800000
842.803223	185.900000
842.837402	187.600000
842.871460	185.500000
842.905640	197.300000
842.939697	183.800000
842.973877	190.900000
843.007996	193.300000
843.042175	197.200000
843.076233	184.100000
843.110413	189.600000
843.144470	196.600000
843.178589	192.500000
843.212769	183.600000
843.246826	192.700000
843.280945	186.100000
843.315125	187.800000
843.349182	183.500000
843.383301	194.500000
843.417419	199.400000
843.451538	188.400000
843.485657	184.800000
843.519714	186.900000
843.553833	189.600000
843.587952	185.000000
843.622070	182.500000
843.656128	191.100000
843.690247	184.400000
843.724304	186.500000
843.758423	189.600000
843.792542	186.400000
843.826599	188.800000
843.860718	186.200000
843.894836	180.100000
843.928894	188.300000
843.963013	190.200000
843.997070	185.000000
844.031128	181.400000
844.065247	193.800000
844.099304	192.200000
844.133362	189.400000
844.167480	191.700000
844.201599	194.600000
844.235596	190.600000
844.269714	189.600000
844.303711	189.800000
844.337830	179.400000
844.371948	192.200000
844.405945	187.700000
844.440063	182.100000
844.474121	201.900000
844.508118	186.500000
844.542236	185.900000
844.576294	188.200000
844.610352	183.200000
844.644409	187.500000
844.678406	180.600000
844.712524	192.900000
844.746582	194.200000
844.780640	188.700000
844.814636	187.700000
844.848755	198.500000
844.882751	185.800000
844.916809	192.900000
844.950867	190.700000
844.984863	196.600000
845.018921	185.700000
845.052979	184.600000
845.086975	188.600000
845.121033	182.300000
845.155090	183.500000
845.189087	195.900000
845.223145	184.800000
845.257141	188.700000
845.291199	192.600000
845.325256	195.100000
845.359253	189.400000
845.393250	198.500000
845.427307	186.500000
845.461304	189.800000
845.495361	188.600000
845.529358	198.800000
845.563354	185.500000
845.597412	182.600000
845.631409	196.100000
845.665405	195.000000
845.699463	193.800000
845.733459	186.600000
845.767456	195.900000
845.801453	187.800000
845.835449	195.800000
845.869446	194.000000
845.903503	192.600000
845.937439	183.600000
845.971497	194.500000
846.005493	181.900000
846.039429	193.100000
846.073486	198.700000
846.107483	187.200000
846.141418	187.700000
846.175476	188.500000
846.209473	195.100000
846.243408	184.700000
846.277405	188.500000
846.311401	185.000000
846.345337	188.600000
846.379395	193.300000
846.413330	185.900000
846.447327	197.100000
846.481323	182.700000
846.515259	185.000000
846.549255	188.000000
846.583252	189.900000
846.617187	182.300000
846.651184	190.100000
846.685120	187.700000
846.719055	195.600000
846.753052	193.100000
846.786987	193.000000
846.820984	181.600000
846.854980	195.200000
846.888916	184.500000
846.922852	190.900000
846.956848	195.700000
846.990723	184.800000
847.024719	189.600000
847.058716	188.300000
847.092590	195.400000
847.126587	190.200000
847.160522	186.700000
847.194458	193.200000
847.228455	184.500000
847.262390	184.200000
847.296265	186.400000
847.330261	195.900000
847.364136	185.100000
847.398132	185.100000
847.432068	187.800000
847.466003	188.600000
847.499939	187.100000
847.533875	190.700000
847.567749	187.000000
847.601746	186.900000
847.635681	191.500000
847.669556	179.000000
847.703491	194.000000
847.737427	203.000000
847.771301	184.800000
847.805237	190.100000
847.839233	189.500000
847.873108	188.800000
847.907043	187.500000
847.940918	194.900000
847.974854	190.500000
848.008789	193.100000
848.042664	188.100000
848.076538	191.100000
848.110474	189.000000
848.144348	189.700000
848.178284	183.500000
848.212219	188.400000
848.246094	187.000000
848.279968	189.300000
848.313904	192.000000
848.347778	187.600000
848.381653	186.400000
848.415588	184.000000
848.449463	186.800000
848.483337	190.300000
848.517212	195.000000
848.551086	188.000000
848.585022	183.500000
848.618835	196.800000
848.652771	186.600000
848.686646	185.000000
848.720520	197.000000
848.754395	187.400000
848.788330	193.100000
848.822144	192.300000
848.856018	187.000000
848.889954	196.800000
848.923767	184.100000
848.957642	184.900000
848.991577	193.000000
849.025391	185.800000
849.059265	188.300000
849.093079	185.900000
849.126953	184.400000
849.160828	193.200000
849.194641	190.300000
849.228577	186.000000
849.262451	188.200000
849.296265	186.500000
849.330139	183.000000
849.364014	189.400000
849.397827	191.300000
849.431702	189.900000
849.465515	192.300000
849.499329	180.600000
849.533203	184.400000
849.567078	179.800000
849.600891	191.200000
849.634766	188.600000
849.668518	192.800000
849.702393	190.000000
849.736267	181.600000
849.770020	201.100000
849.803894	191.800000
849.837769	189.800000
849.871521	188.700000
849.905396	194.300000
849.939270	184.100000
849.973022	186.900000
850.006897	191.700000
850.040710	192.200000
850.074524	191.900000
850.108337	187.000000
850.142151	192.900000
850.175964	194.300000
850.209778	187.600000
850.243530	176.400000
850.277405	193.500000
850.311218	188.900000
850.344971	184.900000
850.378845	196.800000
850.412659	184.200000
850.446411	188.600000
850.480225	187.500000
850.514038	194.900000
850.547791	190.400000
850.581665	187.000000
850.615417	184.800000
850.649231	188.200000
850.683044	187.900000
850.716858	188.800000
850.750610	189.200000
850.784424	193.300000
850.818176	185.500000
850.851929	187.300000
850.885742	184.100000
850.919495	188.300000
850.953308	195.000000
850.987122	196.900000
851.020874	184.200000
851.054626	181.200000
851.088440	192.800000
851.122192	192.500000
851.156006	190.000000
851.189697	188.400000
851.223511	184.000000
851.257263	192.500000
851.291077	193.000000
851.324829	186.900000
851.358582	184.900000
851.392334	186.500000
851.426086	187.200000
851.459900	196.300000
851.493591	189.300000
851.527344	190.400000
851.561157	188.800000
851.594849	190.100000
851.628662	191.000000
851.662415	197.400000
851.696106	192.100000
851.729858	192.600000
851.763611	183.500000
851.797363	190.000000
851.831116	185.100000
851.864868	191.200000
851.898560	193.100000
851.932312	185.200000
851.966064	191.400000
851.999817	188.700000
852.033569	187.600000
852.067261	192.700000
852.101013	185.700000
852.134766	188.500000
852.168457	178.800000
852.202209	192.900000
852.235901	185.700000
852.269592	189.900000
852.303345	196.700000
852.337036	192.300000
852.370789	189.500000
852.404541	192.900000
852.438171	184.300000
852.471924	187.700000
852.505676	182.600000
852.539307	190.100000
852.573059	184.700000
852.606812	186.700000
852.640442	188.000000
852.674194	194.200000
852.707886	198.700000
852.741577	196.300000
852.775269	184.000000
852.809021	190.200000
852.842651	190.500000
852.876404	193.300000
852.910034	189.100000
852.943787	194.000000
852.977478	191.800000
853.011108	184.800000
853.044861	186.200000
853.078552	195.500000
853.112183	190.800000
853.145874	191.200000
853.179626	180.000000
853.213257	190.100000
853.246948	186.100000
853.280640	197.200000
853.314270	187.500000
853.347961	195.700000
853.381653	191.100000
853.415283	193.300000
853.448975	184.800000
853.482605	191.700000
853.516296	187.800000
853.549988	182.800000
853.583618	189.600000
853.617310	190.700000
853.651001	190.900000
853.684631	185.100000
853.718323	185.600000
853.751953	196.200000
853.785583	181.100000
853.819275	192.600000
853.852966	189.400000
853.886536	180.500000
853.920227	182.900000
853.953918	193.500000
853.987488	187.700000
854.021179	191.900000
854.054749	196.100000
854.088440	189.400000
854.122131	185.000000
854.155701	193.300000
854.189331	184.400000
854.223022	192.100000
854.256592	192.400000
854.290283	185.100000
854.323914	192.800000
854.357483	190.300000
854.391174	192.900000
854.424744	197.900000
854.458374	190.400000
854.492065	200.300000
854.525696	190.900000
854.559265	194.900000
854.592896	199.400000
854.626465	190.200000
854.660095	189.800000
854.693787	191.000000
854.727356	187.900000
854.760986	193.200000
854.794617	191.400000
854.828186	187.300000
854.861816	191.200000
854.895447	190.600000
854.929016	192.100000
854.962585	190.600000
854.996155	196.600000
855.029785	192.700000
855.063416	191.300000
855.097046	193.300000
855.130615	184.200000
855.164185	195.100000
855.197754	189.100000
855.231384	191.900000
855.264954	187.800000
855.298523	192.100000
855.332153	189.000000
855.365723	197.100000
855.399292	184.900000
855.432922	187.100000
855.466492	190.800000
855.500061	185.000000
855.533630	187.200000
855.567200	192.000000
855.600769	193.200000
855.634338	194.200000
855.667969	189.600000
855.701477	185.000000
855.735046	185.900000
855.768616	180.700000
855.802185	192.000000
855.835754	203.600000
855.869324	180.900000
855.902893	187.500000
855.936401	196.000000
855.969971	189.800000
856.003540	182.100000
856.037109	192.400000
856.070618	189.100000
856.104187	182.800000
856.137695	186.100000
856.171265	178.600000
856.204834	188.700000
856.238403	195.200000
856.271912	186.700000
856.305481	191.900000
856.338989	182.700000
856.372559	192.200000
856.406128	191.500000
856.439636	193.700000
856.473145	185.900000
856.506653	197.000000
856.540222	189.600000
856.573792	196.000000
856.607300	193.100000
856.640808	183.300000
856.674377	189.500000
856.707825	219.500000
856.741394	193.700000
856.774902	186.000000
856.808472	180.200000
856.841980	193.500000
856.875488	195.200000
856.908936	183.500000
856.942505	186.800000
856.976013	188.900000
857.009521	183.300000
857.043030	189.900000
857.076477	188.700000
857.110046	194.600000
857.143555	188.800000
857.177063	195.100000
857.210571	186.400000
857.244080	183.600000
857.277527	192.100000
857.311035	186.800000
857.344543	192.100000
857.378052	189.600000
857.411499	194.400000
857.445068	198.600000
857.478516	188.400000
857.512024	183.500000
857.545532	186.100000
857.578979	192.300000
857.612427	187.500000
857.645874	186.100000
857.679382	190.500000
857.712891	193.000000
857.746399	189.100000
857.779846	194.600000
857.813354	194.800000
857.846741	189.700000
857.880249	185.800000
857.913757	190.900000
857.947266	191.100000
857.980652	192.700000
858.014160	187.100000
858.047546	187.500000
858.081055	187.600000
858.114563	198.100000
858.147949	184.400000
858.181458	191.900000
858.214844	188.600000
858.248352	180.500000
858.281799	195.300000
858.315308	201.300000
858.348694	193.900000
858.382141	198.600000
858.415588	192.900000
858.449036	193.700000
858.482483	192.500000
858.515930	186.400000
858.549377	187.900000
858.582825	196.200000
858.616211	193.200000
858.649658	190.700000
858.683105	184.200000
858.716553	186.800000
858.750000	184.300000
858.783386	187.600000
858.816833	181.600000
858.850281	190.400000
858.883728	192.800000
858.917114	188.500000
858.950562	198.600000
858.983948	198.600000
859.017395	194.600000
859.050781	187.600000
859.084167	185.600000
859.117615	182.600000
859.151062	192.000000
859.184448	184.900000
859.217834	186.900000
859.251282	188.000000
859.284668	185.500000
859.318054	179.900000
859.351440	187.400000
859.384888	197.000000
859.418274	181.100000
859.451721	180.000000
859.485046	192.600000
859.518494	190.500000
859.551819	185.100000
859.585266	192.100000
859.618652	192.900000
859.652039	183.700000
859.685425	185.500000
859.718811	182.500000
859.752197	178.300000
859.785583	197.100000
859.819031	196.900000
859.852356	192.400000
859.885742	185.500000
859.919067	188.800000
859.952454	187.200000
859.985901	193.900000
860.019287	187.200000
860.052612	0.000000
860.085999	0.000000
860.119324	0.000000
860.152710	0.000000
860.186096	0.000000
860.219421	0.000000
860.252808	0.000000
860.286133	0.000000
860.319519	0.000000
860.352905	0.000000
860.386292	0.000000
860.419617	0.000000
860.452942	0.000000
860.486267	0.000000
860.519653	0.000000
860.553040	0.000000
860.586365	0.000000
860.619690	0.000000
860.653076	0.000000
860.686340	0.000000
860.719727	0.000000
860.753113	0.000000
860.786377	0.000000
860.819763	0.000000
860.853027	0.000000
860.886414	0.000000
860.919739	0.000000
860.953125	0.000000
860.986389	0.000000
861.019714	0.000000
861.053040	0.000000
861.086365	0.000000
861.119690	0.000000
861.153076	0.000000
861.186340	0.000000
861.219666	0.000000
861.252930	0.000000
861.286316	0.000000
861.319641	0.000000
861.352905	0.000000
861.386230	0.000000
861.419495	0.000000
861.452820	0.000000
861.486145	0.000000
861.519470	0.000000
861.552734	0.000000
861.586060	0.000000
861.619324	0.000000
861.652649	0.000000
861.685974	0.000000
861.719238	0.000000
861.752563	0.000000
861.785828	0.000000
861.819092	0.000000
861.852417	0.000000
861.885742	0.000000
861.918945	0.000000
861.952271	0.000000
861.985535	0.000000
862.018799	0.000000
862.052124	0.000000
862.085449	0.000000
862.118652	0.000000
862.151978	0.000000
862.185181	0.000000
862.218506	0.000000
862.251770	0.000000
862.285034	0.000000
862.318298	0.000000
862.351562	0.000000
862.384827	0.000000
862.418091	0.000000
862.451355	0.000000
862.484619	0.000000
862.517883	0.000000
862.551086	0.000000
862.584351	0.000000
862.617676	0.000000
862.650940	0.000000
862.684143	0.000000
862.717407	0.000000
862.750610	0.000000
862.783875	0.000000
862.817139	0.000000
862.850342	0.000000
862.883606	0.000000
862.916870	0.000000
862.950073	0.000000
862.983337	0.000000
863.016602	0.000000
863.049805	0.000000
863.083069	0.000000
863.116211	0.000000
863.149475	0.000000
863.182739	0.000000
863.216003	0.000000
863.249146	0.000000
863.282410	0.000000
863.315613	0.000000
863.348816	0.000000
863.382080	0.000000
863.415222	0.000000
863.448486	0.000000
863.481689	0.000000
863.514893	0.000000
863.548157	0.000000
863.581360	0.000000
863.614502	0.000000
863.647766	0.000000
863.680908	0.000000
863.714172	0.000000
863.747375	0.000000
863.780579	0.000000
863.813721	0.000000
863.846985	0.000000
863.880127	0.000000
863.913330	0.000000
863.946533	0.000000
863.979675	0.000000
864.012939	0.000000
