Model Number: SPM-001-M   
Serial Number: 10090201
Firmware Version: 004.17.6
Exposure Time: 500000.000000us
Data Taken on: 03-03-2021 10:48:35.647
Wavelength	Amplitude
733.770752	0.000000
733.808716	0.000000
733.846619	0.000000
733.884583	0.000000
733.922546	0.000000
733.960449	0.000000
733.998413	0.000000
734.036377	0.000000
734.074219	0.000000
734.112183	0.000000
734.150085	0.000000
734.188049	0.000000
734.226013	0.000000
734.263916	0.000000
734.301819	0.000000
734.339783	0.000000
734.377686	0.000000
734.415588	0.000000
734.453552	0.000000
734.491455	0.000000
734.529419	0.000000
734.567322	0.000000
734.605225	0.000000
734.643127	0.000000
734.681091	0.000000
734.718994	0.000000
734.756897	0.000000
734.794800	0.000000
734.832703	0.000000
734.870667	0.000000
734.908508	0.000000
734.946472	0.000000
734.984375	0.000000
735.022278	0.000000
735.060181	0.000000
735.098083	0.000000
735.135986	0.000000
735.173889	0.000000
735.211792	0.000000
735.249695	0.000000
735.287598	0.000000
735.325439	0.000000
735.363403	0.000000
735.401306	0.000000
735.439148	0.000000
735.477051	0.000000
735.515015	0.000000
735.552856	0.000000
735.590759	0.000000
735.628662	0.000000
735.666504	0.000000
735.704407	0.000000
735.742310	0.000000
735.780212	0.000000
735.818115	0.000000
735.856018	0.000000
735.893860	0.000000
735.931763	0.000000
735.969604	0.000000
736.007507	0.000000
736.045410	0.000000
736.083252	0.000000
736.121094	0.000000
736.158997	0.000000
736.196838	0.000000
736.234741	0.000000
736.272644	0.000000
736.310486	0.000000
736.348389	0.000000
736.386230	0.000000
736.424072	0.000000
736.461975	0.000000
736.499878	0.000000
736.537720	0.000000
736.575562	0.000000
736.613403	0.000000
736.651306	0.000000
736.689148	0.000000
736.726990	0.000000
736.764893	0.000000
736.802734	0.000000
736.840576	0.000000
736.878418	0.000000
736.916321	0.000000
736.954102	0.000000
736.992004	0.000000
737.029846	0.000000
737.067688	0.000000
737.105530	0.000000
737.143372	0.000000
737.181213	0.000000
737.219116	0.000000
737.256897	0.000000
737.294739	0.000000
737.332642	0.000000
737.370422	0.000000
737.408325	0.000000
737.446167	0.000000
737.483948	0.000000
737.521790	0.000000
737.559692	0.000000
737.597473	0.000000
737.635315	0.000000
737.673157	0.000000
737.710999	0.000000
737.748840	0.000000
737.786621	0.000000
737.824463	0.000000
737.862305	0.000000
737.900085	0.000000
737.937927	0.000000
737.975769	0.000000
738.013550	0.000000
738.051392	0.000000
738.089233	0.000000
738.127014	0.000000
738.164856	0.000000
738.202698	0.000000
738.240479	0.000000
738.278320	0.000000
738.316162	0.000000
738.353943	0.000000
738.391785	0.000000
738.429565	0.000000
738.467407	0.000000
738.505188	0.000000
738.542969	0.000000
738.580811	0.000000
738.618652	0.000000
738.656372	0.000000
738.694214	0.000000
738.732056	0.000000
738.769836	0.000000
738.807617	0.000000
738.845459	0.000000
738.883240	0.000000
738.921021	0.000000
738.958862	0.000000
738.996582	0.000000
739.034424	0.000000
739.072205	0.000000
739.109985	0.000000
739.147827	0.000000
739.185547	0.000000
739.223389	0.000000
739.261169	0.000000
739.298889	0.000000
739.336731	0.000000
739.374512	0.000000
739.412292	0.000000
739.450073	0.000000
739.487854	0.000000
739.525635	0.000000
739.563416	0.000000
739.601135	0.000000
739.638977	0.000000
739.676758	0.000000
739.714478	0.000000
739.752258	0.000000
739.790100	0.000000
739.827820	0.000000
739.865601	0.000000
739.903381	0.000000
739.941101	0.000000
739.978882	191.200000
740.016724	187.100000
740.054443	191.800000
740.092224	185.500000
740.130005	184.800000
740.167725	186.000000
740.205505	185.200000
740.243225	194.800000
740.281006	188.400000
740.318787	179.500000
740.356506	193.000000
740.394287	193.500000
740.432068	183.700000
740.469727	180.700000
740.507507	190.200000
740.545288	188.300000
740.583008	188.500000
740.620789	189.000000
740.658569	178.500000
740.696228	187.900000
740.734009	191.400000
740.771790	176.800000
740.809509	189.700000
740.847229	183.300000
740.884949	183.000000
740.922729	181.400000
740.960449	184.700000
740.998169	183.000000
741.035950	183.000000
741.073669	190.400000
741.111389	186.300000
741.149170	197.400000
741.186890	197.900000
741.224609	191.900000
741.262329	187.300000
741.300110	197.700000
741.337769	182.100000
741.375549	181.200000
741.413208	187.900000
741.450989	184.000000
741.488708	183.600000
741.526367	185.600000
741.564148	190.400000
741.601868	191.200000
741.639526	185.900000
741.677307	188.200000
741.715027	189.500000
741.752686	183.800000
741.790466	196.700000
741.828186	192.000000
741.865845	183.400000
741.903564	179.200000
741.941345	187.700000
741.979004	183.900000
742.016724	190.500000
742.054382	187.700000
742.092102	193.500000
742.129822	181.300000
742.167480	186.400000
742.205200	186.900000
742.242920	190.100000
742.280640	190.200000
742.318359	184.400000
742.356079	185.300000
742.393738	191.600000
742.431396	186.200000
742.469116	192.300000
742.506775	176.200000
742.544495	191.000000
742.582214	192.600000
742.619873	187.100000
742.657593	193.400000
742.695251	191.900000
742.732971	186.300000
742.770630	190.500000
742.808289	186.500000
742.846008	188.000000
742.883728	187.400000
742.921326	186.900000
742.959045	182.600000
742.996765	190.000000
743.034424	184.800000
743.072083	185.900000
743.109802	185.800000
743.147400	182.900000
743.185120	189.200000
743.222839	188.300000
743.260437	192.100000
743.298157	189.800000
743.335754	179.700000
743.373474	187.800000
743.411133	179.800000
743.448792	187.700000
743.486450	187.200000
743.524170	180.500000
743.561768	188.900000
743.599487	193.400000
743.637146	199.600000
743.674744	186.600000
743.712463	186.200000
743.750122	190.000000
743.787720	189.700000
743.825439	184.400000
743.863037	185.800000
743.900696	187.300000
743.938416	213.500000
743.976013	186.700000
744.013672	197.200000
744.051331	192.100000
744.088928	197.800000
744.126587	193.500000
744.164307	189.400000
744.201904	184.300000
744.239563	192.300000
744.277222	190.200000
744.314819	188.000000
744.352478	194.100000
744.390137	190.800000
744.427734	189.000000
744.465393	186.300000
744.502991	183.200000
744.540649	191.400000
744.578308	185.700000
744.615906	183.200000
744.653564	176.800000
744.691223	191.800000
744.728821	179.900000
744.766418	189.200000
744.804077	189.500000
744.841675	185.800000
744.879333	181.000000
744.916992	187.000000
744.954529	184.700000
744.992187	192.900000
745.029785	186.200000
745.067444	184.400000
745.105042	187.200000
745.142639	190.600000
745.180298	196.900000
745.217896	186.800000
745.255493	185.000000
745.293152	192.100000
745.330750	191.300000
745.368347	195.900000
745.405945	190.100000
745.443604	188.200000
745.481140	191.600000
745.518799	185.800000
745.556396	192.400000
745.593994	193.100000
745.631592	187.200000
745.669189	183.800000
745.706787	190.000000
745.744385	184.900000
745.781982	191.900000
745.819580	185.300000
745.857178	187.900000
745.894775	187.500000
745.932373	189.100000
745.969971	189.800000
746.007568	180.400000
746.045166	196.300000
746.082764	193.500000
746.120300	190.300000
746.157898	192.200000
746.195557	187.700000
746.233093	183.700000
746.270691	189.900000
746.308228	190.600000
746.345825	192.400000
746.383423	193.100000
746.420959	183.500000
746.458557	186.300000
746.496155	184.500000
746.533691	187.900000
746.571289	182.000000
746.608887	187.900000
746.646423	187.400000
746.684021	189.000000
746.721619	183.300000
746.759155	190.700000
746.796753	179.800000
746.834351	181.200000
746.871826	182.800000
746.909424	195.200000
746.946960	189.200000
746.984558	187.100000
747.022156	184.600000
747.059631	196.300000
747.097229	188.800000
747.134827	186.600000
747.172363	195.100000
747.209900	192.300000
747.247498	182.800000
747.285034	195.700000
747.322571	193.300000
747.360168	186.900000
747.397644	179.500000
747.435242	192.000000
747.472778	194.800000
747.510315	185.800000
747.547913	185.200000
747.585388	194.300000
747.622925	189.200000
747.660522	181.600000
747.697998	186.000000
747.735596	186.900000
747.773132	185.700000
747.810669	187.400000
747.848206	191.500000
747.885742	182.500000
747.923279	182.500000
747.960815	189.500000
747.998352	189.700000
748.035889	192.100000
748.073425	192.100000
748.110901	184.400000
748.148437	183.200000
748.185974	186.400000
748.223511	198.800000
748.261047	188.900000
748.298584	191.700000
748.336060	185.300000
748.373596	191.000000
748.411133	205.700000
748.448608	182.700000
748.486145	190.900000
748.523682	195.400000
748.561218	192.700000
748.598755	188.000000
748.636292	189.700000
748.673706	187.700000
748.711243	194.700000
748.748718	190.700000
748.786255	187.400000
748.823792	187.000000
748.861267	183.300000
748.898804	190.200000
748.936340	188.600000
748.973816	186.300000
749.011292	194.000000
749.048828	190.300000
749.086304	190.300000
749.123840	200.100000
749.161316	182.500000
749.198792	199.100000
749.236328	194.400000
749.273743	189.300000
749.311279	186.600000
749.348816	191.800000
749.386230	188.200000
749.423767	177.100000
749.461304	189.800000
749.498718	189.800000
749.536255	195.100000
749.573730	200.100000
749.611206	195.200000
749.648682	188.300000
749.686218	188.000000
749.723633	192.600000
749.761169	186.200000
749.798645	184.500000
749.836060	187.200000
749.873596	183.600000
749.911011	188.400000
749.948547	194.200000
749.986023	188.100000
750.023437	186.300000
750.060913	182.500000
750.098450	181.700000
750.135864	188.200000
750.173340	188.000000
750.210815	194.600000
750.248291	182.000000
750.285767	189.300000
750.323242	193.300000
750.360657	190.300000
750.398132	181.900000
750.435608	192.100000
750.473022	183.300000
750.510498	184.100000
750.547974	182.600000
750.585449	186.200000
750.622925	176.800000
750.660339	198.200000
750.697815	186.200000
750.735291	187.700000
750.772644	187.200000
750.810120	189.600000
750.847595	190.500000
750.885010	183.700000
750.922485	195.400000
750.959961	186.600000
750.997375	194.700000
751.034851	192.200000
751.072266	193.100000
751.109680	181.500000
751.147156	192.900000
751.184570	192.000000
751.221985	190.700000
751.259460	180.400000
751.296875	188.700000
751.334290	188.200000
751.371765	191.700000
751.409180	191.900000
751.446594	194.200000
751.484070	191.100000
751.521423	190.000000
751.558899	189.100000
751.596375	196.000000
751.633728	196.900000
751.671204	200.300000
751.708618	183.200000
751.746033	191.100000
751.783447	182.700000
751.820801	184.000000
751.858276	191.400000
751.895691	187.400000
751.933105	185.800000
751.970520	183.200000
752.007935	185.600000
752.045349	192.400000
752.082764	187.200000
752.120178	187.400000
752.157532	183.500000
752.195007	185.200000
752.232422	190.400000
752.269775	193.100000
752.307190	191.300000
752.344543	183.800000
752.382019	187.200000
752.419434	186.000000
752.456787	189.400000
752.494202	192.800000
752.531616	187.900000
752.568970	192.400000
752.606384	188.700000
752.643799	191.100000
752.681152	196.000000
752.718567	192.100000
752.755981	180.300000
752.793335	190.600000
752.830750	178.800000
752.868164	193.200000
752.905518	183.300000
752.942932	192.600000
752.980225	182.900000
753.017639	194.300000
753.055054	186.400000
753.092407	190.900000
753.129822	193.700000
753.167175	198.400000
753.204529	188.600000
753.241943	185.300000
753.279358	182.200000
753.316650	191.300000
753.354065	191.500000
753.391479	194.500000
753.428772	197.400000
753.466187	191.100000
753.503479	182.000000
753.540894	188.100000
753.578308	183.500000
753.615601	183.400000
753.653015	187.500000
753.690369	186.600000
753.727722	185.200000
753.765076	181.800000
753.802490	184.700000
753.839783	180.500000
753.877136	186.100000
753.914551	202.500000
753.951843	184.300000
753.989258	192.700000
754.026611	189.600000
754.063904	191.200000
754.101257	184.600000
754.138611	179.800000
754.175964	188.800000
754.213318	198.600000
754.250610	180.600000
754.288025	184.800000
754.325378	181.900000
754.362671	192.600000
754.400024	186.400000
754.437378	195.500000
754.474670	198.800000
754.512085	183.500000
754.549438	188.500000
754.586731	186.100000
754.624084	187.600000
754.661438	181.900000
754.698730	196.000000
754.736084	184.300000
754.773376	187.700000
754.810730	190.600000
754.848083	186.300000
754.885315	192.400000
754.922668	181.000000
754.960022	181.400000
754.997314	192.700000
755.034668	188.000000
755.072021	187.700000
755.109253	185.500000
755.146606	195.000000
755.183960	184.800000
755.221252	195.900000
755.258545	191.900000
755.295898	193.100000
755.333191	194.900000
755.370544	191.900000
755.407776	188.200000
755.445129	186.800000
755.482422	191.900000
755.519714	185.000000
755.557068	182.100000
755.594360	178.900000
755.631653	191.000000
755.668945	194.800000
755.706299	190.200000
755.743530	199.200000
755.780884	195.700000
755.818176	192.300000
755.855408	193.200000
755.892761	188.900000
755.930054	188.500000
755.967346	189.700000
756.004639	192.800000
756.041870	187.500000
756.079224	194.600000
756.116516	183.400000
756.153748	193.000000
756.191040	194.700000
756.228394	191.200000
756.265625	182.900000
756.302917	188.500000
756.340210	185.100000
756.377441	194.800000
756.414795	192.800000
756.452087	188.400000
756.489319	182.200000
756.526611	192.900000
756.563843	187.700000
756.601135	200.500000
756.638428	197.600000
756.675659	187.500000
756.712952	192.400000
756.750244	193.800000
756.787476	190.200000
756.824768	196.400000
756.862061	186.700000
756.899292	236.900000
756.936584	194.300000
756.973816	201.000000
757.011047	202.700000
757.048340	191.000000
757.085632	189.800000
757.122864	206.400000
757.160156	188.700000
757.197327	192.800000
757.234619	195.700000
757.271912	189.600000
757.309082	195.100000
757.346375	187.300000
757.383667	197.600000
757.420837	192.400000
757.458130	193.000000
757.495422	189.400000
757.532593	193.400000
757.569885	184.800000
757.607117	187.300000
757.644348	192.800000
757.681580	205.600000
757.718811	179.600000
757.756042	192.600000
757.793335	186.800000
757.830505	194.800000
757.867798	187.800000
757.905029	189.000000
757.942200	191.400000
757.979492	188.400000
758.016724	188.800000
758.053894	189.400000
758.091187	207.500000
758.128418	192.500000
758.165588	190.400000
758.202820	203.200000
758.240112	189.100000
758.277283	203.300000
758.314514	193.000000
758.351685	190.200000
758.388916	201.600000
758.426147	201.400000
758.463379	200.800000
758.500610	195.600000
758.537842	192.400000
758.575012	200.500000
758.612244	188.500000
758.649475	206.900000
758.686646	187.100000
758.723877	200.700000
758.761108	200.900000
758.798279	194.400000
758.835510	196.000000
758.872742	201.200000
758.909851	196.200000
758.947083	198.700000
758.984253	196.400000
759.021484	199.800000
759.058716	199.600000
759.095886	198.500000
759.133057	195.800000
759.170288	200.100000
759.207458	193.000000
759.244690	205.900000
759.281860	206.100000
759.319031	196.200000
759.356262	194.600000
759.393433	193.700000
759.430603	195.700000
759.467773	195.600000
759.505005	202.800000
759.542175	201.700000
759.579346	197.800000
759.616516	196.400000
759.653687	201.400000
759.690918	193.900000
759.728027	199.800000
759.765259	198.800000
759.802429	201.800000
759.839539	199.000000
759.876770	205.500000
759.913940	208.000000
759.951111	200.800000
759.988281	199.000000
760.025452	197.700000
760.062561	194.700000
760.099792	208.000000
760.136963	201.100000
760.174072	199.200000
760.211243	193.300000
760.248413	195.700000
760.285583	195.800000
760.322754	210.600000
760.359863	205.700000
760.397034	207.800000
760.434204	198.900000
760.471375	202.400000
760.508545	198.400000
760.545715	200.900000
760.582825	196.300000
760.619995	206.300000
760.657166	195.100000
760.694275	207.400000
760.731445	204.300000
760.768555	203.400000
760.805664	205.900000
760.842834	204.000000
760.879944	205.000000
760.917114	203.200000
760.954285	202.500000
760.991394	196.100000
761.028564	207.700000
761.065674	206.100000
761.102783	199.300000
761.139954	207.200000
761.177124	208.000000
761.214172	209.400000
761.251343	203.000000
761.288452	203.500000
761.325562	206.600000
761.362732	198.800000
761.399841	202.300000
761.436951	204.200000
761.474121	199.300000
761.511169	203.300000
761.548340	209.200000
761.585449	206.300000
761.622559	208.700000
761.659668	206.200000
761.696838	210.700000
761.733887	205.200000
761.771057	203.900000
761.808167	201.600000
761.845276	209.200000
761.882385	217.100000
761.919434	206.300000
761.956604	223.500000
761.993713	201.500000
762.030762	213.000000
762.067871	206.200000
762.105042	205.600000
762.142090	215.100000
762.179199	206.900000
762.216309	213.100000
762.253418	221.600000
762.290527	218.300000
762.327637	212.500000
762.364685	205.400000
762.401794	213.900000
762.438904	212.400000
762.475952	204.500000
762.513062	205.800000
762.550110	204.400000
762.587219	221.300000
762.624329	218.600000
762.661377	212.900000
762.698486	212.800000
762.735596	212.600000
762.772644	206.000000
762.809753	203.100000
762.846863	211.700000
762.883911	215.100000
762.921021	214.500000
762.958069	212.100000
762.995117	219.800000
763.032227	220.300000
763.069336	213.600000
763.106323	208.600000
763.143433	207.800000
763.180481	216.100000
763.217590	217.400000
763.254639	213.400000
763.291687	213.800000
763.328735	221.200000
763.365845	213.100000
763.402893	210.400000
763.439941	217.300000
763.477051	217.700000
763.514038	221.300000
763.551147	213.200000
763.588196	217.300000
763.625244	213.700000
763.662292	222.900000
763.699402	225.200000
763.736389	220.500000
763.773499	228.900000
763.810486	222.400000
763.847534	218.400000
763.884644	221.100000
763.921631	214.700000
763.958679	229.600000
763.995728	218.600000
764.032776	227.600000
764.069824	213.500000
764.106873	224.000000
764.143860	230.300000
764.180969	222.100000
764.218018	227.300000
764.255005	219.200000
764.292053	222.400000
764.329102	232.600000
764.366089	231.100000
764.403137	229.300000
764.440125	220.000000
764.477173	226.500000
764.514221	227.200000
764.551208	227.000000
764.588257	220.600000
764.625305	231.100000
764.662292	233.100000
764.699341	238.500000
764.736389	229.200000
764.773376	245.000000
764.810425	231.900000
764.847473	239.200000
764.884399	234.400000
764.921448	243.200000
764.958435	240.900000
764.995483	233.500000
765.032532	247.500000
765.069458	231.900000
765.106506	234.100000
765.143555	231.200000
765.180481	237.500000
765.217529	243.500000
765.254578	230.800000
765.291504	237.700000
765.328552	236.200000
765.365540	231.200000
765.402527	249.000000
765.439575	234.400000
765.476501	232.800000
765.513550	230.800000
765.550537	237.500000
765.587463	244.800000
765.624512	236.700000
765.661499	227.000000
765.698486	244.700000
765.735474	233.900000
765.772461	237.900000
765.809448	245.700000
765.846436	242.600000
765.883423	246.400000
765.920410	242.600000
765.957397	237.100000
765.994385	244.100000
766.031311	251.000000
766.068359	246.800000
766.105286	246.100000
766.142273	252.000000
766.179260	246.000000
766.216187	241.800000
766.253174	236.500000
766.290161	246.600000
766.327148	248.100000
766.364136	249.600000
766.401123	262.500000
766.438049	242.800000
766.475037	255.900000
766.512024	252.500000
766.548950	265.500000
766.585937	261.300000
766.622864	255.100000
766.659790	254.400000
766.696777	243.700000
766.733704	258.100000
766.770691	247.100000
766.807678	261.500000
766.844604	257.800000
766.881531	255.600000
766.918518	262.300000
766.955444	260.900000
766.992432	255.500000
767.029358	259.000000
767.066284	262.000000
767.103271	258.400000
767.140198	288.600000
767.177124	272.500000
767.214050	262.000000
767.251038	262.800000
767.287964	261.300000
767.324890	257.500000
767.361816	263.700000
767.398743	266.600000
767.435730	261.500000
767.472595	264.800000
767.509583	272.200000
767.546509	256.900000
767.583374	265.000000
767.620361	256.200000
767.657288	263.200000
767.694214	262.100000
767.731140	264.600000
767.768066	262.100000
767.804993	268.900000
767.841919	258.900000
767.878845	266.900000
767.915710	272.600000
767.952698	266.700000
767.989563	268.100000
768.026489	271.700000
768.063416	262.000000
768.100281	263.600000
768.137207	276.100000
768.174133	273.300000
768.211060	271.900000
768.247986	272.300000
768.284912	270.800000
768.321777	272.600000
768.358704	268.100000
768.395630	273.500000
768.432495	266.900000
768.469421	273.600000
768.506348	278.100000
768.543152	284.900000
768.580078	279.200000
768.616943	280.100000
768.653870	282.300000
768.690796	279.000000
768.727661	278.500000
768.764587	280.100000
768.801453	274.700000
768.838318	284.300000
768.875244	282.100000
768.912109	287.300000
768.948975	279.600000
768.985901	281.600000
769.022766	279.800000
769.059631	285.000000
769.096558	281.000000
769.133362	280.300000
769.170288	284.600000
769.207214	282.300000
769.244019	288.300000
769.280945	285.700000
769.317810	293.600000
769.354675	286.000000
769.391541	297.200000
769.428406	292.000000
769.465271	301.400000
769.502136	289.100000
769.539062	294.800000
769.575867	291.100000
769.612732	296.600000
769.649597	299.300000
769.686462	301.900000
769.723328	294.100000
769.760193	293.400000
769.797058	294.500000
769.833923	305.500000
769.870728	298.300000
769.907593	305.000000
769.944519	302.400000
769.981323	305.900000
770.018188	305.700000
770.055054	303.500000
770.091858	302.200000
770.128723	313.200000
770.165588	318.100000
770.202393	306.100000
770.239258	315.800000
770.276062	313.200000
770.312927	312.400000
770.349792	320.200000
770.386597	318.100000
770.423462	327.200000
770.460327	332.600000
770.497131	316.600000
770.533997	310.300000
770.570862	325.400000
770.607605	329.100000
770.644470	325.200000
770.681335	326.100000
770.718140	325.100000
770.754944	321.000000
770.791809	320.200000
770.828613	325.100000
770.865479	325.700000
770.902222	337.500000
770.939087	328.900000
770.975952	320.500000
771.012695	324.700000
771.049561	340.600000
771.086365	328.500000
771.123169	327.300000
771.159973	331.100000
771.196838	331.900000
771.233582	332.000000
771.270447	331.600000
771.307251	335.300000
771.344055	335.100000
771.380859	337.900000
771.417664	332.600000
771.454468	340.400000
771.491272	341.500000
771.528076	342.300000
771.564880	341.500000
771.601685	348.600000
771.638428	338.700000
771.675293	345.400000
771.712097	339.000000
771.748840	354.100000
771.785645	346.700000
771.822449	351.700000
771.859253	352.800000
771.896057	349.200000
771.932861	360.400000
771.969604	351.700000
772.006409	344.200000
772.043213	357.400000
772.079956	353.600000
772.116760	344.700000
772.153503	350.600000
772.190308	359.200000
772.227112	353.600000
772.263855	348.900000
772.300659	352.300000
772.337463	360.300000
772.374207	350.900000
772.411011	349.200000
772.447754	350.900000
772.484497	366.700000
772.521301	357.800000
772.558105	358.900000
772.594849	360.100000
772.631592	364.200000
772.668396	364.100000
772.705139	368.800000
772.741882	362.300000
772.778625	374.200000
772.815430	373.800000
772.852173	369.500000
772.888916	375.300000
772.925720	376.700000
772.962463	383.400000
772.999207	376.000000
773.035950	378.000000
773.072754	379.100000
773.109436	372.100000
773.146240	378.000000
773.182922	373.500000
773.219727	384.500000
773.256470	378.800000
773.293152	371.100000
773.329956	375.100000
773.366699	380.300000
773.403381	369.300000
773.440186	379.800000
773.476929	380.600000
773.513611	377.400000
773.550354	376.800000
773.587158	378.000000
773.623840	369.300000
773.660583	380.100000
773.697327	392.700000
773.734009	382.200000
773.770813	383.700000
773.807495	380.200000
773.844238	380.500000
773.880981	394.700000
773.917664	389.100000
773.954407	398.100000
773.991150	386.900000
774.027832	397.100000
774.064575	386.700000
774.101318	395.100000
774.138000	398.800000
774.174744	393.600000
774.211487	393.900000
774.248108	382.500000
774.284851	385.500000
774.321594	393.100000
774.358276	398.400000
774.395020	402.900000
774.431702	400.000000
774.468384	391.900000
774.505127	390.300000
774.541809	400.500000
774.578491	407.900000
774.615234	405.000000
774.651917	399.700000
774.688599	404.300000
774.725342	411.900000
774.762024	406.000000
774.798706	411.000000
774.835449	412.500000
774.872070	419.400000
774.908813	417.400000
774.945496	415.300000
774.982178	413.700000
775.018860	416.600000
775.055542	419.100000
775.092224	420.600000
775.128967	425.700000
775.165588	427.200000
775.202271	416.700000
775.239014	428.000000
775.275635	426.700000
775.312317	423.500000
775.349060	428.700000
775.385681	431.000000
775.422363	419.300000
775.459045	428.400000
775.495667	429.500000
775.532410	436.700000
775.569092	438.600000
775.605713	436.400000
775.642395	434.100000
775.679016	440.200000
775.715698	439.900000
775.752380	442.400000
775.789001	435.900000
775.825684	438.200000
775.862366	441.200000
775.898987	451.000000
775.935669	441.300000
775.972351	462.200000
776.008972	456.900000
776.045654	458.100000
776.082336	452.800000
776.118958	457.000000
776.155640	457.700000
776.192322	462.900000
776.228882	465.400000
776.265564	465.100000
776.302185	460.200000
776.338867	470.000000
776.375488	459.500000
776.412109	471.300000
776.448792	475.000000
776.485413	481.700000
776.522034	473.300000
776.558716	471.000000
776.595337	470.100000
776.631958	473.900000
776.668579	477.700000
776.705261	484.800000
776.741882	479.900000
776.778503	478.000000
776.815186	479.700000
776.851746	484.900000
776.888367	485.600000
776.924988	492.400000
776.961609	486.900000
776.998291	485.600000
777.034851	481.300000
777.071472	493.100000
777.108154	489.600000
777.144714	498.500000
777.181335	498.700000
777.218018	487.600000
777.254578	501.100000
777.291199	497.600000
777.327759	504.600000
777.364380	511.700000
777.401062	517.800000
777.437622	526.200000
777.474243	514.000000
777.510864	521.000000
777.547424	512.600000
777.584045	514.500000
777.620667	515.400000
777.657227	517.800000
777.693848	521.400000
777.730469	532.400000
777.767029	525.400000
777.803650	529.200000
777.840271	522.500000
777.876831	527.100000
777.913452	536.200000
777.950012	517.100000
777.986633	520.500000
778.023193	518.200000
778.059753	520.100000
778.096375	518.600000
778.132996	538.900000
778.169556	526.700000
778.206116	529.800000
778.242737	524.300000
778.279297	529.500000
778.315857	520.400000
778.352478	531.500000
778.389038	538.000000
778.425598	533.600000
778.462219	540.200000
778.498718	536.300000
778.535339	540.800000
778.571838	544.700000
778.608459	547.600000
778.645020	540.500000
778.681580	548.500000
778.718140	545.200000
778.754761	542.400000
778.791260	544.500000
778.827881	556.500000
778.864441	554.000000
778.900940	557.600000
778.937561	554.100000
778.974121	555.100000
779.010620	541.800000
779.047241	550.500000
779.083801	558.900000
779.120300	560.100000
779.156860	560.600000
779.193359	556.600000
779.229980	556.300000
779.266541	560.700000
779.303040	564.500000
779.339600	553.200000
779.376160	545.900000
779.412659	553.300000
779.449219	547.400000
779.485779	557.100000
779.522278	553.400000
779.558838	560.400000
779.595398	561.400000
779.631897	555.200000
779.668457	551.500000
779.705017	563.600000
779.741516	558.300000
779.778076	553.100000
779.814575	555.700000
779.851074	560.900000
779.887634	557.900000
779.924133	568.400000
779.960693	557.000000
779.997253	564.000000
780.033691	566.600000
780.070251	566.800000
780.106812	582.600000
780.143250	575.700000
780.179810	572.600000
780.216370	571.500000
780.252808	578.400000
780.289368	583.300000
780.325867	582.400000
780.362366	577.400000
780.398865	591.600000
780.435364	581.000000
780.471863	596.000000
780.508423	588.700000
780.544861	593.200000
780.581421	597.200000
780.617920	584.300000
780.654419	578.700000
780.690918	590.100000
780.727417	593.300000
780.763916	595.000000
780.800415	601.600000
780.836914	591.100000
780.873352	596.100000
780.909912	591.500000
780.946411	596.800000
780.982849	603.200000
781.019348	614.400000
781.055786	611.500000
781.092346	603.800000
781.128845	615.500000
781.165283	614.700000
781.201782	630.100000
781.238281	630.400000
781.274719	632.200000
781.311218	624.400000
781.347717	632.300000
781.384155	619.500000
781.420654	624.300000
781.457092	633.400000
781.493591	628.300000
781.530090	622.400000
781.566528	630.800000
781.602966	631.600000
781.639465	624.700000
781.675903	623.300000
781.712402	632.500000
781.748901	640.900000
781.785278	630.500000
781.821777	636.100000
781.858276	636.800000
781.894714	649.100000
781.931152	646.000000
781.967651	655.500000
782.004089	647.000000
782.040527	654.900000
782.076965	658.900000
782.113403	657.300000
782.149902	660.100000
782.186340	656.000000
782.222778	666.600000
782.259277	660.000000
782.295654	664.400000
782.332092	666.000000
782.368591	664.200000
782.404968	661.800000
782.441467	669.300000
782.477905	674.500000
782.514282	664.800000
782.550781	682.600000
782.587219	679.400000
782.623596	687.800000
782.660095	689.800000
782.696472	695.100000
782.732910	698.100000
782.769348	700.100000
782.805786	718.500000
782.842224	719.500000
782.878662	711.400000
782.915039	710.900000
782.951477	710.200000
782.987915	705.100000
783.024292	720.900000
783.060730	724.900000
783.097168	715.400000
783.133545	710.300000
783.169983	706.500000
783.206421	697.900000
783.242798	702.400000
783.279236	687.700000
783.315613	682.500000
783.352051	681.400000
783.388489	672.900000
783.424866	667.900000
783.461304	674.700000
783.497681	684.400000
783.534058	682.600000
783.570496	679.900000
783.606934	678.600000
783.643250	689.000000
783.679687	697.000000
783.716125	687.500000
783.752441	701.200000
783.788879	717.200000
783.825317	730.500000
783.861633	731.400000
783.898071	730.500000
783.934448	741.000000
783.970825	752.200000
784.007263	754.000000
784.043579	755.700000
784.080017	762.600000
784.116394	753.000000
784.152710	755.900000
784.189148	762.300000
784.225525	758.100000
784.261902	752.800000
784.298279	747.100000
784.334656	748.900000
784.371033	732.800000
784.407410	737.200000
784.443787	719.100000
784.480164	703.900000
784.516541	688.200000
784.552856	696.900000
784.589233	689.400000
784.625610	685.100000
784.661987	713.800000
784.698364	702.900000
784.734741	696.800000
784.771057	700.300000
784.807434	701.900000
784.843811	717.000000
784.880127	709.300000
784.916504	730.100000
784.952881	722.200000
784.989197	703.300000
785.025574	687.000000
785.061951	669.700000
785.098267	657.500000
785.134644	619.000000
785.170959	587.500000
785.207275	562.600000
785.243652	537.000000
785.279968	497.400000
785.316345	483.200000
785.352722	468.200000
785.388977	457.300000
785.425354	450.500000
785.461731	456.800000
785.498047	464.300000
785.534363	475.700000
785.570679	499.100000
785.606995	520.900000
785.643372	550.700000
785.679687	574.600000
785.716003	586.500000
785.752380	607.800000
785.788635	630.200000
785.825012	665.300000
785.861328	686.500000
785.897644	688.500000
785.933960	710.300000
785.970337	720.300000
786.006592	741.300000
786.042908	748.600000
786.079285	759.900000
786.115540	770.100000
786.151855	771.000000
786.188171	771.300000
786.224487	765.600000
786.260803	762.600000
786.297119	772.200000
786.333435	767.200000
786.369751	756.200000
786.406006	760.900000
786.442322	741.500000
786.478638	740.300000
786.514954	755.000000
786.551270	754.000000
786.587585	760.800000
786.623840	751.600000
786.660156	743.300000
786.696472	732.500000
786.732727	728.800000
786.769043	732.700000
786.805298	724.400000
786.841614	725.800000
786.877930	736.100000
786.914124	727.700000
786.950439	745.000000
786.986755	749.400000
787.023010	765.300000
787.059326	775.200000
787.095642	775.700000
787.131836	788.800000
787.168152	773.700000
787.204468	782.500000
787.240723	795.600000
787.276978	802.200000
787.313293	807.000000
787.349548	802.500000
787.385803	802.800000
787.422058	793.400000
787.458313	789.900000
787.494629	790.700000
787.530823	791.800000
787.567139	779.000000
787.603455	775.800000
787.639648	763.300000
787.675903	769.300000
787.712219	765.900000
787.748413	762.300000
787.784729	772.700000
787.820984	759.500000
787.857178	752.200000
787.893494	748.300000
787.929749	743.400000
787.965942	756.900000
788.002258	769.100000
788.038452	780.600000
788.074707	774.300000
788.110962	784.200000
788.147217	785.400000
788.183472	788.600000
788.219727	798.800000
788.255920	819.500000
788.292175	830.000000
788.328430	830.000000
788.364624	812.400000
788.400879	811.600000
788.437134	810.300000
788.473328	811.200000
788.509583	813.600000
788.545837	809.500000
788.582031	805.400000
788.618286	801.100000
788.654480	799.700000
788.690735	810.900000
788.726990	826.200000
788.763184	825.500000
788.799377	837.400000
788.835632	826.800000
788.871826	838.000000
788.908081	832.200000
788.944336	826.200000
788.980469	846.300000
789.016724	838.800000
789.052979	842.400000
789.089111	832.400000
789.125366	843.500000
789.161621	822.100000
789.197754	835.900000
789.234009	831.500000
789.270142	821.900000
789.306396	822.000000
789.342590	820.900000
789.378784	799.100000
789.414978	792.500000
789.451233	807.000000
789.487366	810.200000
789.523621	827.100000
789.559814	813.700000
789.595947	806.800000
789.632202	815.500000
789.668335	822.700000
789.704529	840.500000
789.740784	860.400000
789.776917	866.100000
789.813110	854.600000
789.849304	864.200000
789.885498	868.400000
789.921692	878.000000
789.957886	885.300000
789.994019	884.400000
790.030212	885.900000
790.066406	886.900000
790.102539	880.200000
790.138733	889.500000
790.174927	881.200000
790.211060	893.400000
790.247253	886.200000
790.283386	881.000000
790.319580	871.200000
790.355774	852.500000
790.391907	853.200000
790.428101	865.700000
790.464294	868.400000
790.500427	872.000000
790.536621	848.100000
790.572754	832.300000
790.608887	834.300000
790.645081	845.200000
790.681274	858.100000
790.717346	860.500000
790.753540	858.700000
790.789734	835.100000
790.825867	815.000000
790.862000	821.100000
790.898132	830.300000
790.934265	832.100000
790.970459	831.700000
791.006592	828.800000
791.042725	826.400000
791.078918	820.400000
791.114990	817.300000
791.151184	821.200000
791.187317	833.200000
791.223389	829.800000
791.259583	812.500000
791.295715	820.300000
791.331848	821.000000
791.367981	828.700000
791.404114	836.300000
791.440247	838.800000
791.476379	840.900000
791.512451	827.700000
791.548584	827.400000
791.584778	815.500000
791.620850	829.700000
791.656982	843.500000
791.693115	842.400000
791.729187	837.200000
791.765381	829.600000
791.801514	832.600000
791.837585	837.700000
791.873718	844.600000
791.909851	850.700000
791.945923	858.600000
791.982056	829.000000
792.018188	827.200000
792.054260	822.800000
792.090393	823.300000
792.126465	818.900000
792.162598	822.200000
792.198669	807.100000
792.234741	808.900000
792.270874	802.900000
792.307007	788.200000
792.343079	788.200000
792.379150	798.500000
792.415283	784.200000
792.451355	791.300000
792.487488	770.500000
792.523560	770.300000
792.559631	760.300000
792.595764	726.900000
792.631836	701.000000
792.667908	680.700000
792.703979	663.000000
792.740051	680.600000
792.776184	705.500000
792.812256	709.100000
792.848328	717.600000
792.884399	721.800000
792.920471	724.200000
792.956543	721.800000
792.992615	724.500000
793.028748	724.000000
793.064758	727.000000
793.100830	740.000000
793.136963	756.000000
793.172974	756.500000
793.209045	749.000000
793.245178	753.500000
793.281189	741.500000
793.317261	746.400000
793.353271	747.800000
793.389404	759.500000
793.425476	757.800000
793.461487	741.500000
793.497559	736.400000
793.533630	735.900000
793.569641	732.800000
793.605713	737.800000
793.641785	744.500000
793.677795	755.000000
793.713867	743.600000
793.749878	748.000000
793.785950	759.700000
793.822021	763.100000
793.858032	750.100000
793.894104	763.100000
793.930176	752.900000
793.966187	757.400000
794.002258	749.000000
794.038269	751.900000
794.074280	748.800000
794.110352	774.800000
794.146423	759.700000
794.182373	751.500000
794.218445	750.700000
794.254517	739.100000
794.290466	726.300000
794.326538	740.000000
794.362549	737.800000
794.398560	745.400000
794.434631	750.200000
794.470581	728.500000
794.506653	728.800000
794.542664	732.900000
794.578674	736.800000
794.614685	739.800000
794.650757	733.200000
794.686707	731.400000
794.722778	722.200000
794.758789	728.500000
794.794739	729.700000
794.830811	754.300000
794.866821	768.900000
794.902771	769.300000
794.938843	763.000000
794.974792	764.000000
795.010803	763.000000
795.046814	769.300000
795.082825	751.700000
795.118835	770.100000
795.154846	748.700000
795.190796	759.000000
795.226807	736.600000
795.262817	745.700000
795.298767	746.600000
795.334778	753.900000
795.370850	741.200000
795.406799	748.800000
795.442810	735.300000
795.478821	736.900000
795.514709	731.400000
795.550720	754.700000
795.586670	734.000000
795.622681	741.200000
795.658691	745.400000
795.694641	742.900000
795.730652	732.100000
795.766663	740.100000
795.802551	740.200000
795.838562	753.800000
795.874573	739.700000
795.910522	740.600000
795.946472	731.000000
795.982483	735.900000
796.018433	735.000000
796.054382	747.900000
796.090393	737.700000
796.126282	734.300000
796.162292	726.500000
796.198242	717.000000
796.234192	721.200000
796.270203	715.800000
796.306091	719.100000
796.342041	732.500000
796.378052	718.900000
796.413940	719.500000
796.449951	726.300000
796.485901	722.800000
796.521790	726.700000
796.557800	742.300000
796.593689	736.100000
796.629639	729.600000
796.665649	727.200000
796.701599	725.900000
796.737488	721.900000
796.773437	727.700000
796.809387	727.000000
796.845337	733.100000
796.881287	725.100000
796.917175	710.900000
796.953125	712.400000
796.989075	721.400000
797.024963	722.600000
797.060913	720.000000
797.096863	722.200000
797.132751	714.900000
797.168701	703.200000
797.204590	703.500000
797.240540	709.500000
797.276489	716.900000
797.312439	724.100000
797.348328	722.200000
797.384277	712.500000
797.420166	702.800000
797.456055	705.000000
797.492004	700.500000
797.527893	705.100000
797.563843	715.900000
797.599731	706.000000
797.635620	693.000000
797.671570	700.100000
797.707520	699.300000
797.743347	699.100000
797.779297	706.600000
797.815125	701.200000
797.851074	692.900000
797.887024	689.500000
797.922913	681.200000
797.958801	687.200000
797.994690	684.100000
798.030579	694.000000
798.066467	700.200000
798.102356	691.800000
798.138245	682.300000
798.174133	682.900000
798.210083	688.900000
798.245911	697.600000
798.281799	695.600000
798.317749	689.700000
798.353577	684.600000
798.389465	683.900000
798.425293	680.800000
798.461243	681.000000
798.497131	686.000000
798.532959	688.200000
798.568848	696.400000
798.604736	683.500000
798.640564	669.200000
798.676453	669.400000
798.712402	670.400000
798.748230	674.200000
798.784119	674.200000
798.820007	674.900000
798.855835	672.800000
798.891724	662.900000
798.927551	660.100000
798.963379	663.900000
798.999268	660.000000
799.035095	653.000000
799.070984	652.800000
799.106873	645.600000
799.142700	648.500000
799.178528	640.600000
799.214417	642.000000
799.250244	654.700000
799.286133	645.500000
799.321960	647.800000
799.357788	644.400000
799.393677	641.800000
799.429504	636.500000
799.465332	636.700000
799.501221	644.800000
799.537048	638.800000
799.572876	635.600000
799.608704	632.900000
799.644531	642.400000
799.680359	640.200000
799.716248	655.800000
799.752014	656.300000
799.787903	650.800000
799.823730	646.300000
799.859558	635.700000
799.895386	636.900000
799.931213	636.900000
799.967041	628.400000
800.002869	633.500000
800.038696	651.300000
800.074463	628.600000
800.110352	635.000000
800.146179	624.400000
800.181946	632.900000
800.217773	636.500000
800.253540	637.600000
800.289429	630.000000
800.325256	626.800000
800.361023	617.000000
800.396851	621.400000
800.432678	624.900000
800.468445	628.000000
800.504272	628.000000
800.540100	618.000000
800.575867	613.000000
800.611694	617.900000
800.647461	615.600000
800.683289	621.100000
800.719116	622.800000
800.754883	618.400000
800.790649	604.300000
800.826477	598.900000
800.862244	619.500000
800.898071	606.300000
800.933838	605.500000
800.969604	607.000000
801.005432	604.100000
801.041199	605.300000
801.076965	595.600000
801.112793	587.200000
801.148560	577.600000
801.184326	582.100000
801.220154	584.300000
801.255859	583.000000
801.291687	581.600000
801.327454	573.000000
801.363281	575.600000
801.398987	578.200000
801.434814	576.800000
801.470520	585.300000
801.506287	573.100000
801.542114	570.900000
801.577820	570.900000
801.613647	567.700000
801.649414	567.100000
801.685120	572.600000
801.720886	579.200000
801.756714	571.000000
801.792419	563.300000
801.828186	557.000000
801.863892	567.100000
801.899719	557.600000
801.935486	557.000000
801.971252	561.500000
802.006958	559.500000
802.042725	553.600000
802.078430	551.800000
802.114197	550.700000
802.149963	570.100000
802.185669	554.400000
802.221436	554.800000
802.257202	557.600000
802.292908	550.300000
802.328674	556.500000
802.364441	558.500000
802.400146	557.200000
802.435913	558.500000
802.471558	552.900000
802.507324	552.900000
802.543091	543.600000
802.578796	559.900000
802.614502	555.100000
802.650269	560.700000
802.685974	543.200000
802.721741	551.900000
802.757446	555.500000
802.793152	551.200000
802.828918	562.200000
802.864624	558.100000
802.900330	557.000000
802.936035	555.100000
802.971802	549.900000
803.007446	545.500000
803.043213	539.900000
803.078857	549.200000
803.114624	532.200000
803.150330	541.600000
803.185974	533.900000
803.221741	536.000000
803.257446	545.900000
803.293152	546.500000
803.328857	540.100000
803.364563	535.700000
803.400208	531.500000
803.435974	540.500000
803.471680	530.900000
803.507324	525.200000
803.543030	533.000000
803.578735	538.000000
803.614441	526.200000
803.650146	541.600000
803.685791	528.700000
803.721497	530.200000
803.757202	514.800000
803.792847	526.700000
803.828552	520.500000
803.864258	521.600000
803.899902	517.300000
803.935608	503.300000
803.971313	511.300000
804.006958	508.200000
804.042664	504.800000
804.078308	511.600000
804.113953	505.300000
804.149658	513.000000
804.185364	502.300000
804.221008	512.600000
804.256714	503.700000
804.292297	498.900000
804.328003	496.900000
804.363708	492.800000
804.399292	494.400000
804.434998	494.900000
804.470703	487.300000
804.506287	499.000000
804.541992	492.400000
804.577637	496.000000
804.613281	482.600000
804.648926	475.600000
804.684570	485.700000
804.720215	477.700000
804.755920	480.000000
804.791565	474.300000
804.827209	483.500000
804.862854	476.000000
804.898437	474.200000
804.934143	474.200000
804.969788	473.300000
805.005371	473.700000
805.041077	476.400000
805.076721	478.000000
805.112305	466.800000
805.147949	467.100000
805.183655	462.700000
805.219238	466.600000
805.254883	466.600000
805.290466	472.800000
805.326111	467.200000
805.361755	456.600000
805.397400	461.800000
805.432983	463.600000
805.468628	459.500000
805.504211	467.300000
805.539856	462.700000
805.575500	466.600000
805.611084	457.700000
805.646729	448.600000
805.682373	455.800000
805.717957	464.800000
805.753601	465.300000
805.789246	447.300000
805.824768	459.000000
805.860413	459.900000
805.895996	446.500000
805.931641	446.400000
805.967224	454.900000
806.002869	449.900000
806.038452	459.800000
806.074036	458.400000
806.109619	443.400000
806.145264	445.800000
806.180847	446.500000
806.216431	444.100000
806.252014	447.500000
806.287659	448.300000
806.323181	454.600000
806.358826	447.400000
806.394409	429.000000
806.429993	434.200000
806.465576	447.900000
806.501160	436.300000
806.536743	431.400000
806.572327	442.200000
806.607910	433.300000
806.643494	434.800000
806.679077	430.900000
806.714661	433.600000
806.750244	431.000000
806.785828	427.800000
806.821350	431.300000
806.856934	434.600000
806.892517	432.700000
806.928101	426.300000
806.963684	424.500000
806.999268	434.900000
807.034790	417.400000
807.070374	428.300000
807.105896	419.500000
807.141479	414.700000
807.177063	420.100000
807.212585	415.800000
807.248169	415.600000
807.283752	420.000000
807.319275	415.400000
807.354858	420.900000
807.390381	413.800000
807.425903	412.900000
807.461487	410.300000
807.497070	405.900000
807.532593	408.500000
807.568115	403.000000
807.603699	401.100000
807.639221	397.500000
807.674744	403.600000
807.710266	407.100000
807.745850	410.500000
807.781372	403.900000
807.816895	400.700000
807.852417	401.800000
807.888000	400.200000
807.923523	398.200000
807.959045	399.100000
807.994629	389.600000
808.030090	393.600000
808.065613	396.200000
808.101135	400.400000
808.136658	395.500000
808.172241	394.900000
808.207764	393.300000
808.243225	387.100000
808.278809	383.300000
808.314270	391.700000
808.349792	380.400000
808.385315	381.400000
808.420837	383.600000
808.456360	390.500000
808.491882	390.300000
808.527344	388.400000
808.562866	398.300000
808.598389	387.100000
808.633850	381.200000
808.669434	378.900000
808.704895	386.300000
808.740417	393.700000
808.775940	384.400000
808.811462	380.100000
808.846924	374.600000
808.882385	372.800000
808.917847	371.000000
808.953369	376.000000
808.988892	370.800000
809.024353	378.200000
809.059875	378.800000
809.095398	373.600000
809.130798	366.700000
809.166321	368.000000
809.201843	367.400000
809.237305	372.400000
809.272766	378.500000
809.308228	362.700000
809.343750	363.900000
809.379211	366.300000
809.414734	366.900000
809.450134	374.900000
809.485657	360.000000
809.521118	367.400000
809.556580	363.800000
809.592102	362.700000
809.627502	358.500000
809.663025	355.300000
809.698486	355.800000
809.733887	350.200000
809.769409	357.800000
809.804871	345.100000
809.840271	351.200000
809.875793	352.300000
809.911194	356.500000
809.946655	347.700000
809.982178	347.100000
810.017639	350.000000
810.053040	348.300000
810.088501	343.600000
810.123901	346.100000
810.159424	341.300000
810.194885	339.000000
810.230286	343.400000
810.265747	337.800000
810.301208	335.100000
810.336609	339.000000
810.372070	329.600000
810.407532	335.100000
810.442932	336.300000
810.478394	342.100000
810.513794	334.500000
810.549255	336.800000
810.584717	330.100000
810.620117	326.700000
810.655518	336.100000
810.690979	333.600000
810.726379	331.300000
810.761841	321.700000
810.797302	324.000000
810.832642	322.400000
810.868103	332.900000
810.903564	322.600000
810.938904	330.200000
810.974365	319.700000
811.009827	323.800000
811.045166	319.700000
811.080627	311.400000
811.115967	318.300000
811.151428	326.300000
811.186829	318.500000
811.222229	319.200000
811.257629	310.100000
811.293091	316.000000
811.328430	324.000000
811.363892	321.700000
811.399292	321.300000
811.434631	314.700000
811.470093	317.100000
811.505493	310.600000
811.540833	311.100000
811.576294	316.700000
811.611694	312.200000
811.647034	310.100000
811.682434	310.500000
811.717773	313.400000
811.753235	316.200000
811.788635	308.400000
811.823975	311.800000
811.859375	320.600000
811.894775	302.800000
811.930115	307.200000
811.965515	305.200000
812.000916	308.300000
812.036255	303.300000
812.071655	310.200000
812.106995	301.500000
812.142395	305.000000
812.177795	309.200000
812.213196	308.100000
812.248474	307.300000
812.283875	300.200000
812.319214	302.900000
812.354614	305.500000
812.390015	299.800000
812.425293	300.800000
812.460693	302.000000
812.496094	301.600000
812.531433	294.400000
812.566772	296.000000
812.602173	297.200000
812.637451	297.500000
812.672852	293.800000
812.708191	299.500000
812.743530	293.100000
812.778931	286.900000
812.814270	287.900000
812.849609	296.900000
812.884949	293.200000
812.920227	283.800000
812.955627	300.700000
812.990967	291.600000
813.026306	287.900000
813.061646	276.500000
813.096985	276.200000
813.132324	272.600000
813.167664	277.600000
813.203003	282.000000
813.238281	271.700000
813.273682	271.000000
813.308960	269.200000
813.344299	269.800000
813.379639	279.600000
813.414978	272.500000
813.450256	271.900000
813.485596	274.700000
813.520874	269.300000
813.556213	270.600000
813.591614	275.100000
813.626831	265.600000
813.662170	270.800000
813.697510	279.600000
813.732788	263.500000
813.768127	269.700000
813.803467	270.900000
813.838745	263.900000
813.874084	269.000000
813.909363	266.000000
813.944641	268.300000
813.979980	259.300000
814.015320	265.600000
814.050598	260.000000
814.085876	265.900000
814.121155	262.300000
814.156494	261.100000
814.191772	261.400000
814.227051	257.300000
814.262390	259.100000
814.297668	260.100000
814.332947	261.600000
814.368225	254.900000
814.403564	259.300000
814.438782	254.600000
814.474121	257.200000
814.509338	254.200000
814.544617	263.100000
814.579956	252.200000
814.615173	263.500000
814.650513	261.400000
814.685791	253.300000
814.721008	256.200000
814.756348	255.300000
814.791626	253.300000
814.826843	253.100000
814.862122	254.300000
814.897400	250.500000
814.932678	252.400000
814.967957	254.500000
815.003235	252.100000
815.038452	246.500000
815.073730	242.000000
815.108948	253.600000
815.144226	251.400000
815.179504	257.300000
815.214722	239.800000
815.250000	240.800000
815.285278	248.200000
815.320496	243.900000
815.355774	244.300000
815.391052	247.600000
815.426270	243.900000
815.461487	242.900000
815.496765	238.600000
815.531982	237.300000
815.567261	238.200000
815.602539	250.900000
815.637695	242.800000
815.672974	246.000000
815.708191	245.900000
815.743408	246.600000
815.778687	238.100000
815.813904	250.700000
815.849121	231.400000
815.884399	234.800000
815.919556	236.100000
815.954834	237.400000
815.990051	238.700000
816.025269	244.600000
816.060486	232.800000
816.095703	234.900000
816.130920	238.100000
816.166199	233.900000
816.201416	236.500000
816.236572	243.800000
816.271851	233.600000
816.307007	241.500000
816.342224	230.100000
816.377441	235.300000
816.412659	227.300000
816.447876	236.500000
816.483093	231.500000
816.518250	233.800000
816.553467	231.600000
816.588745	235.700000
816.623901	228.400000
816.659119	221.300000
816.694275	228.000000
816.729492	222.800000
816.764709	260.600000
816.799927	221.500000
816.835083	226.900000
816.870300	222.400000
816.905457	225.900000
816.940674	228.600000
816.975830	222.800000
817.010986	219.500000
817.046204	222.800000
817.081421	216.900000
817.116577	217.400000
817.151733	227.200000
817.186951	228.900000
817.222107	221.700000
817.257324	225.900000
817.292419	221.500000
817.327637	216.100000
817.362854	219.200000
817.398010	213.400000
817.433167	217.600000
817.468323	217.200000
817.503479	216.800000
817.538635	227.300000
817.573853	219.400000
817.608948	219.000000
817.644165	213.900000
817.679321	214.500000
817.714478	214.400000
817.749634	216.900000
817.784790	228.300000
817.819946	225.200000
817.855103	205.300000
817.890198	215.500000
817.925415	207.800000
817.960571	217.300000
817.995667	215.500000
818.030823	217.200000
818.066040	210.100000
818.101135	214.500000
818.136292	214.800000
818.171448	209.200000
818.206543	212.700000
818.241699	215.900000
818.276855	213.400000
818.311951	212.600000
818.347107	208.500000
818.382263	214.400000
818.417358	219.100000
818.452515	218.800000
818.487610	218.400000
818.522766	208.000000
818.557922	220.500000
818.593018	214.900000
818.628113	212.900000
818.663269	205.500000
818.698364	212.200000
818.733521	207.400000
818.768677	212.100000
818.803711	203.900000
818.838867	207.500000
818.874023	207.100000
818.909058	205.500000
818.944214	203.000000
818.979370	210.600000
819.014404	206.700000
819.049561	204.900000
819.084595	208.400000
819.119751	202.000000
819.154846	207.600000
819.189941	206.400000
819.225037	199.000000
819.260193	197.200000
819.295227	199.000000
819.330322	195.200000
819.365479	193.200000
819.400513	228.300000
819.435608	191.700000
819.470764	191.200000
819.505798	194.300000
819.540894	197.900000
819.575989	194.500000
819.611084	205.200000
819.646179	204.200000
819.681213	202.000000
819.716309	198.500000
819.751404	197.900000
819.786438	203.200000
819.821533	194.500000
819.856628	198.100000
819.891663	203.100000
819.926758	209.800000
819.961853	206.700000
819.996887	196.000000
820.031982	201.500000
820.067017	197.000000
820.102112	226.500000
820.137207	195.400000
820.172302	212.300000
820.207275	194.900000
820.242371	193.500000
820.277405	194.500000
820.312500	196.200000
820.347534	198.600000
820.382568	201.000000
820.417664	194.800000
820.452759	194.700000
820.487732	192.500000
820.522827	192.600000
820.557861	191.300000
820.592896	193.400000
820.627930	193.900000
820.662964	190.900000
820.698059	197.800000
820.733093	192.200000
820.768127	199.300000
820.803162	193.400000
820.838196	192.600000
820.873230	194.500000
820.908264	195.500000
820.943298	189.700000
820.978333	199.500000
821.013367	193.500000
821.048401	199.300000
821.083435	199.100000
821.118469	187.000000
821.153503	196.900000
821.188477	194.800000
821.223511	184.900000
821.258484	193.400000
821.293579	194.600000
821.328613	185.700000
821.363647	191.400000
821.398621	188.900000
821.433655	189.000000
821.468628	206.700000
821.503662	192.000000
821.538696	196.400000
821.573669	188.000000
821.608704	197.500000
821.643677	189.000000
821.678650	196.900000
821.713684	202.000000
821.748718	191.100000
821.783691	192.900000
821.818726	193.400000
821.853638	193.700000
821.888672	191.300000
821.923706	191.000000
821.958618	188.000000
821.993652	191.600000
822.028687	196.600000
822.063599	199.600000
822.098633	192.500000
822.133667	188.900000
822.168579	190.700000
822.203613	194.100000
822.238586	188.700000
822.273560	196.300000
822.308533	188.400000
822.343567	189.500000
822.378479	191.300000
822.413452	190.600000
822.448425	187.100000
822.483398	196.200000
822.518372	195.700000
822.553345	189.000000
822.588318	198.600000
822.623291	191.000000
822.658203	188.900000
822.693237	190.800000
822.728210	185.600000
822.763123	193.800000
822.798096	185.500000
822.833069	192.500000
822.867981	191.000000
822.902954	193.900000
822.937927	192.900000
822.972900	204.100000
823.007874	182.800000
823.042725	197.300000
823.077698	203.200000
823.112671	186.700000
823.147583	189.600000
823.182556	194.900000
823.217529	195.500000
823.252441	188.200000
823.287415	205.800000
823.322388	194.200000
823.357239	192.000000
823.392212	199.300000
823.427185	196.200000
823.462097	188.100000
823.497009	195.000000
823.531982	189.700000
823.566895	191.900000
823.601807	186.900000
823.636719	189.900000
823.671631	195.100000
823.706604	190.000000
823.741455	194.200000
823.776428	186.700000
823.811340	195.900000
823.846252	197.900000
823.881165	198.600000
823.916138	192.300000
823.950989	200.800000
823.985901	188.600000
824.020813	191.500000
824.055725	190.600000
824.090637	184.200000
824.125610	194.100000
824.160461	191.400000
824.195374	193.700000
824.230225	194.900000
824.265198	185.100000
824.300110	186.100000
824.334961	201.400000
824.369873	181.900000
824.404785	194.600000
824.439636	197.200000
824.474548	184.900000
824.509460	179.700000
824.544312	197.100000
824.579224	192.300000
824.614075	193.800000
824.648987	189.500000
824.683899	190.000000
824.718811	187.400000
824.753662	197.100000
824.788574	195.200000
824.823364	193.200000
824.858276	186.200000
824.893188	195.600000
824.928040	194.000000
824.962952	194.100000
824.997803	193.800000
825.032654	193.100000
825.067566	194.600000
825.102417	188.900000
825.137268	188.500000
825.172119	192.400000
825.206970	187.100000
825.241882	187.800000
825.276733	186.800000
825.311646	188.100000
825.346436	185.300000
825.381348	184.300000
825.416138	190.100000
825.450989	185.600000
825.485901	182.700000
825.520691	182.500000
825.555542	184.400000
825.590454	190.000000
825.625244	181.900000
825.660095	194.200000
825.695007	193.400000
825.729797	187.400000
825.764648	184.300000
825.799438	187.400000
825.834290	189.800000
825.869202	181.900000
825.903992	189.900000
825.938843	184.800000
825.973694	184.400000
826.008484	200.300000
826.043335	183.200000
826.078186	178.800000
826.112976	194.100000
826.147827	192.100000
826.182678	198.200000
826.217468	181.900000
826.252319	192.600000
826.287109	181.600000
826.321899	195.100000
826.356750	184.900000
826.391541	183.300000
826.426392	192.000000
826.461182	187.300000
826.495972	181.800000
826.530823	180.200000
826.565613	186.400000
826.600403	182.400000
826.635254	189.100000
826.670044	181.100000
826.704834	178.900000
826.739685	183.500000
826.774475	188.100000
826.809265	188.500000
826.844055	184.300000
826.878906	192.800000
826.913635	188.100000
826.948425	190.400000
826.983215	189.100000
827.018005	193.100000
827.052856	184.300000
827.087585	190.900000
827.122375	180.100000
827.157227	185.800000
827.191956	200.000000
827.226746	182.600000
827.261536	191.000000
827.296265	181.900000
827.331116	185.700000
827.365906	189.800000
827.400635	183.200000
827.435425	180.300000
827.470215	192.400000
827.504944	184.900000
827.539734	192.900000
827.574463	185.900000
827.609253	194.700000
827.644043	185.800000
827.678772	193.500000
827.713562	183.900000
827.748352	186.700000
827.783081	182.400000
827.817871	187.900000
827.852600	180.600000
827.887329	189.100000
827.922119	177.100000
827.956848	190.000000
827.991638	199.300000
828.026367	189.600000
828.061157	185.600000
828.095886	187.400000
828.130615	199.200000
828.165344	178.000000
828.200073	187.500000
828.234863	185.600000
828.269592	185.700000
828.304321	193.000000
828.339111	185.900000
828.373779	185.200000
828.408569	191.300000
828.443298	191.900000
828.477966	184.300000
828.512756	188.100000
828.547424	182.200000
828.582214	185.100000
828.616943	185.900000
828.651672	187.200000
828.686340	190.300000
828.721130	184.500000
828.755798	186.400000
828.790527	187.000000
828.825256	187.800000
828.859924	187.900000
828.894714	191.600000
828.929443	195.500000
828.964111	183.800000
828.998840	185.000000
829.033569	185.300000
829.068237	185.900000
829.102966	185.100000
829.137634	187.800000
829.172363	189.000000
829.207092	188.200000
829.241821	183.600000
829.276489	180.400000
829.311157	187.700000
829.345825	183.400000
829.380554	193.400000
829.415283	181.700000
829.449951	181.600000
829.484619	195.400000
829.519348	195.700000
829.554016	186.200000
829.588745	188.100000
829.623413	180.000000
829.658081	198.300000
829.692749	180.600000
829.727417	192.500000
829.762146	186.800000
829.796814	182.900000
829.831482	183.500000
829.866150	188.000000
829.900879	182.200000
829.935486	189.400000
829.970154	182.700000
830.004883	197.600000
830.039490	186.100000
830.074219	184.600000
830.108887	185.800000
830.143494	186.600000
830.178223	181.600000
830.212891	185.700000
830.247498	186.200000
830.282166	195.800000
830.316772	193.000000
830.351501	185.600000
830.386169	186.600000
830.420776	185.500000
830.455444	186.900000
830.490112	184.900000
830.524719	179.000000
830.559387	189.000000
830.594055	189.100000
830.628662	187.500000
830.663330	187.000000
830.697998	195.300000
830.732605	186.600000
830.767273	189.700000
830.801941	186.800000
830.836487	195.200000
830.871155	189.900000
830.905762	187.800000
830.940430	180.500000
830.975098	184.200000
831.009644	187.700000
831.044312	193.700000
831.078979	190.600000
831.113525	178.700000
831.148193	187.600000
831.182861	183.900000
831.217407	190.800000
831.252075	201.900000
831.286621	184.000000
831.321289	182.100000
831.355896	187.300000
831.390564	193.900000
831.425110	187.300000
831.459778	192.800000
831.494324	198.800000
831.528931	189.400000
831.563599	190.100000
831.598145	179.900000
831.632751	186.200000
831.667419	184.000000
831.701965	189.500000
831.736572	189.900000
831.771179	181.400000
831.805786	183.400000
831.840393	192.000000
831.874939	178.900000
831.909546	190.900000
831.944153	178.700000
831.978760	186.400000
832.013306	180.700000
832.047913	194.700000
832.082458	194.900000
832.117065	183.100000
832.151672	194.500000
832.186218	188.500000
832.220825	190.100000
832.255432	179.200000
832.289978	184.100000
832.324585	191.200000
832.359192	190.400000
832.393677	185.400000
832.428284	188.400000
832.462830	185.300000
832.497437	185.900000
832.531982	191.200000
832.566589	186.000000
832.601135	188.200000
832.635681	179.500000
832.670227	187.100000
832.704773	194.600000
832.739380	189.600000
832.773926	189.400000
832.808472	183.300000
832.843079	188.200000
832.877563	189.500000
832.912170	184.500000
832.946716	179.400000
832.981201	193.000000
833.015808	189.100000
833.050293	185.900000
833.084839	180.800000
833.119446	185.100000
833.153992	190.500000
833.188477	186.900000
833.223022	183.300000
833.257568	188.700000
833.292114	191.600000
833.326660	198.100000
833.361145	182.700000
833.395691	178.200000
833.430237	185.800000
833.464783	191.700000
833.499329	182.600000
833.533875	181.700000
833.568359	188.100000
833.602905	192.600000
833.637390	190.300000
833.671875	184.100000
833.706421	184.600000
833.740906	183.600000
833.775452	175.300000
833.809998	184.700000
833.844482	193.200000
833.879028	186.600000
833.913513	184.600000
833.947998	189.400000
833.982544	182.400000
834.017090	185.000000
834.051514	176.600000
834.086060	190.100000
834.120544	186.200000
834.155029	188.400000
834.189575	184.700000
834.223999	190.000000
834.258545	189.000000
834.293030	189.100000
834.327515	186.500000
834.362000	183.500000
834.396545	191.800000
834.430969	185.200000
834.465454	191.800000
834.500000	179.100000
834.534424	190.800000
834.568970	178.200000
834.603455	180.600000
834.637878	184.300000
834.672363	188.600000
834.706909	186.100000
834.741333	188.700000
834.775818	179.500000
834.810242	182.100000
834.844727	187.000000
834.879211	186.500000
834.913635	186.400000
834.948181	188.200000
834.982666	186.700000
835.017090	185.200000
835.051575	189.200000
835.086060	184.400000
835.120483	187.800000
835.154907	190.900000
835.189331	185.400000
835.223816	188.900000
835.258301	180.100000
835.292786	183.000000
835.327209	190.800000
835.361694	182.700000
835.396057	182.100000
835.430542	189.400000
835.465027	187.100000
835.499390	182.400000
835.533875	206.100000
835.568359	184.800000
835.602722	178.800000
835.637207	189.600000
835.671692	181.400000
835.706055	203.900000
835.740540	190.100000
835.774902	188.600000
835.809387	187.700000
835.843811	181.600000
835.878235	194.400000
835.912659	181.200000
835.947083	184.900000
835.981506	186.900000
836.015930	181.400000
836.050354	191.500000
836.084778	196.000000
836.119202	192.400000
836.153625	201.000000
836.187988	182.500000
836.222473	184.600000
836.256897	186.900000
836.291260	186.500000
836.325684	188.200000
836.360046	186.100000
836.394470	184.700000
836.428894	195.900000
836.463318	182.400000
836.497681	192.600000
836.532104	192.900000
836.566467	188.800000
836.600891	183.900000
836.635315	193.500000
836.669678	188.600000
836.704102	191.200000
836.738525	186.400000
836.772888	178.600000
836.807251	181.900000
836.841675	190.200000
836.876038	180.800000
836.910461	184.200000
836.944763	189.100000
836.979187	182.400000
837.013611	192.100000
837.047974	179.300000
837.082336	196.500000
837.116699	190.300000
837.151062	186.100000
837.185486	180.500000
837.219849	184.800000
837.254211	189.700000
837.288574	185.100000
837.322937	182.500000
837.357300	173.800000
837.391663	199.900000
837.426086	192.400000
837.460388	188.200000
837.494751	191.100000
837.529114	184.300000
837.563477	191.600000
837.597839	189.900000
837.632141	187.200000
837.666565	185.300000
837.700928	190.300000
837.735229	191.100000
837.769592	190.100000
837.803955	193.000000
837.838257	186.700000
837.872620	185.100000
837.906982	194.600000
837.941284	188.600000
837.975647	187.100000
838.010010	192.800000
838.044312	186.800000
838.078674	183.200000
838.112976	188.400000
838.147339	189.500000
838.181702	187.800000
838.216003	195.100000
838.250366	188.800000
838.284668	191.000000
838.318970	180.100000
838.353333	185.700000
838.387634	185.600000
838.421936	186.400000
838.456299	188.500000
838.490601	193.500000
838.524902	190.800000
838.559265	191.800000
838.593567	192.000000
838.627869	180.900000
838.662170	190.500000
838.696472	178.700000
838.730774	182.500000
838.765137	190.700000
838.799377	172.600000
838.833740	186.700000
838.868042	193.800000
838.902283	177.600000
838.936646	192.800000
838.970947	188.100000
839.005188	193.700000
839.039551	179.600000
839.073792	194.200000
839.108093	183.100000
839.142395	196.600000
839.176697	180.500000
839.210937	189.400000
839.245300	196.500000
839.279541	181.200000
839.313843	185.600000
839.348145	190.500000
839.382385	191.600000
839.416687	192.700000
839.450989	191.800000
839.485229	186.800000
839.519531	183.300000
839.553833	192.900000
839.588013	187.000000
839.622314	188.000000
839.656555	190.400000
839.690857	186.300000
839.725159	181.000000
839.759460	185.200000
839.793640	185.700000
839.827942	185.600000
839.862183	183.400000
839.896423	188.200000
839.930725	197.900000
839.964966	194.500000
839.999207	194.700000
840.033508	194.900000
840.067688	185.200000
840.101990	193.400000
840.136230	188.500000
840.170471	194.200000
840.204712	182.700000
840.238953	181.700000
840.273193	189.200000
840.307434	189.300000
840.341736	183.100000
840.375916	180.000000
840.410217	184.000000
840.444397	189.500000
840.478638	190.500000
840.512878	191.900000
840.547119	187.200000
840.581360	189.100000
840.615601	196.100000
840.649780	194.900000
840.684021	188.000000
840.718262	196.000000
840.752441	194.100000
840.786682	188.000000
840.820862	190.100000
840.855103	194.600000
840.889343	188.000000
840.923584	192.900000
840.957764	189.500000
840.992004	189.700000
841.026184	200.600000
841.060425	185.800000
841.094666	184.500000
841.128845	191.300000
841.163025	189.300000
841.197266	189.800000
841.231445	190.200000
841.265686	188.700000
841.299866	182.800000
841.334045	195.600000
841.368286	187.000000
841.402405	197.000000
841.436646	190.500000
841.470825	185.100000
841.505005	186.800000
841.539185	186.000000
841.573425	184.500000
841.607544	189.200000
841.641785	185.800000
841.675964	183.500000
841.710144	187.800000
841.744324	184.400000
841.778503	184.900000
841.812683	184.400000
841.846863	196.100000
841.881042	195.200000
841.915222	183.700000
841.949402	202.600000
841.983521	177.900000
842.017700	185.800000
842.051880	188.100000
842.086060	190.100000
842.120239	186.400000
842.154419	185.900000
842.188538	186.700000
842.222717	185.400000
842.256897	197.000000
842.291016	185.800000
842.325195	187.600000
842.359375	199.600000
842.393494	194.000000
842.427673	188.300000
842.461853	189.500000
842.495911	197.100000
842.530090	188.600000
842.564209	187.400000
842.598389	188.300000
842.632568	189.100000
842.666626	191.300000
842.700806	184.400000
842.734985	185.200000
842.769043	192.400000
842.803223	185.200000
842.837402	187.200000
842.871460	186.700000
842.905640	196.200000
842.939697	184.100000
842.973877	188.500000
843.007996	194.400000
843.042175	197.700000
843.076233	186.400000
843.110413	190.300000
843.144470	196.800000
843.178589	191.900000
843.212769	186.600000
843.246826	192.300000
843.280945	187.100000
843.315125	185.700000
843.349182	185.600000
843.383301	193.500000
843.417419	202.000000
843.451538	187.800000
843.485657	186.300000
843.519714	186.800000
843.553833	190.500000
843.587952	184.900000
843.622070	184.400000
843.656128	189.600000
843.690247	185.900000
843.724304	185.300000
843.758423	189.800000
843.792542	185.500000
843.826599	188.500000
843.860718	184.100000
843.894836	181.200000
843.928894	187.600000
843.963013	190.000000
843.997070	183.400000
844.031128	182.300000
844.065247	192.600000
844.099304	193.100000
844.133362	188.300000
844.167480	191.500000
844.201599	195.000000
844.235596	189.300000
844.269714	188.800000
844.303711	190.400000
844.337830	179.500000
844.371948	190.800000
844.405945	186.400000
844.440063	183.500000
844.474121	200.500000
844.508118	188.600000
844.542236	186.300000
844.576294	188.000000
844.610352	184.000000
844.644409	187.600000
844.678406	179.100000
844.712524	194.000000
844.746582	194.700000
844.780640	188.900000
844.814636	188.600000
844.848755	198.500000
844.882751	186.200000
844.916809	192.500000
844.950867	191.200000
844.984863	197.200000
845.018921	187.200000
845.052979	185.500000
845.086975	189.100000
845.121033	181.700000
845.155090	184.200000
845.189087	195.000000
845.223145	185.200000
845.257141	187.700000
845.291199	192.600000
845.325256	195.200000
845.359253	189.500000
845.393250	198.300000
845.427307	188.400000
845.461304	189.200000
845.495361	188.900000
845.529358	198.000000
845.563354	185.900000
845.597412	184.000000
845.631409	197.300000
845.665405	194.600000
845.699463	194.600000
845.733459	185.900000
845.767456	195.700000
845.801453	186.300000
845.835449	195.900000
845.869446	191.300000
845.903503	193.400000
845.937439	183.200000
845.971497	195.000000
846.005493	180.400000
846.039429	192.800000
846.073486	197.900000
846.107483	185.800000
846.141418	188.600000
846.175476	189.000000
846.209473	195.300000
846.243408	184.500000
846.277405	189.400000
846.311401	185.500000
846.345337	188.600000
846.379395	194.900000
846.413330	186.700000
846.447327	197.600000
846.481323	184.500000
846.515259	187.200000
846.549255	189.900000
846.583252	190.800000
846.617187	185.700000
846.651184	190.500000
846.685120	186.100000
846.719055	195.800000
846.753052	195.600000
846.786987	194.400000
846.820984	184.600000
846.854980	195.300000
846.888916	183.900000
846.922852	190.600000
846.956848	196.800000
846.990723	183.400000
847.024719	191.700000
847.058716	187.200000
847.092590	196.500000
847.126587	188.600000
847.160522	187.200000
847.194458	192.500000
847.228455	186.400000
847.262390	183.500000
847.296265	186.700000
847.330261	192.900000
847.364136	185.900000
847.398132	184.000000
847.432068	189.700000
847.466003	187.300000
847.499939	187.700000
847.533875	190.100000
847.567749	187.600000
847.601746	186.900000
847.635681	191.700000
847.669556	179.500000
847.703491	195.100000
847.737427	202.900000
847.771301	184.600000
847.805237	190.300000
847.839233	191.000000
847.873108	187.800000
847.907043	187.900000
847.940918	194.700000
847.974854	190.300000
848.008789	192.400000
848.042664	189.400000
848.076538	192.100000
848.110474	188.400000
848.144348	190.300000
848.178284	182.400000
848.212219	189.200000
848.246094	188.200000
848.279968	189.400000
848.313904	191.700000
848.347778	189.300000
848.381653	187.500000
848.415588	185.600000
848.449463	186.900000
848.483337	192.700000
848.517212	194.800000
848.551086	190.400000
848.585022	183.700000
848.618835	198.800000
848.652771	184.600000
848.686646	185.400000
848.720520	196.800000
848.754395	189.200000
848.788330	192.600000
848.822144	193.200000
848.856018	186.600000
848.889954	198.600000
848.923767	183.300000
848.957642	186.900000
848.991577	191.200000
849.025391	185.700000
849.059265	186.700000
849.093079	185.200000
849.126953	182.200000
849.160828	195.000000
849.194641	188.600000
849.228577	186.400000
849.262451	187.300000
849.296265	187.300000
849.330139	183.900000
849.364014	191.000000
849.397827	190.500000
849.431702	189.600000
849.465515	193.300000
849.499329	181.000000
849.533203	182.900000
849.567078	179.000000
849.600891	190.900000
849.634766	187.300000
849.668518	193.000000
849.702393	188.500000
849.736267	182.800000
849.770020	201.600000
849.803894	192.100000
849.837769	189.400000
849.871521	190.300000
849.905396	195.000000
849.939270	184.800000
849.973022	187.000000
850.006897	192.900000
850.040710	193.200000
850.074524	193.900000
850.108337	188.200000
850.142151	193.800000
850.175964	194.400000
850.209778	190.300000
850.243530	177.500000
850.277405	195.600000
850.311218	188.300000
850.344971	186.800000
850.378845	195.700000
850.412659	185.900000
850.446411	188.500000
850.480225	189.000000
850.514038	191.700000
850.547791	191.700000
850.581665	188.900000
850.615417	186.900000
850.649231	188.700000
850.683044	188.000000
850.716858	186.600000
850.750610	190.200000
850.784424	191.600000
850.818176	184.800000
850.851929	184.300000
850.885742	186.600000
850.919495	187.200000
850.953308	196.100000
850.987122	195.900000
851.020874	183.300000
851.054626	181.100000
851.088440	193.900000
851.122192	191.600000
851.156006	189.000000
851.189697	187.700000
851.223511	183.500000
851.257263	191.300000
851.291077	192.300000
851.324829	187.500000
851.358582	187.500000
851.392334	187.200000
851.426086	187.100000
851.459900	196.800000
851.493591	190.800000
851.527344	190.800000
851.561157	189.100000
851.594849	191.400000
851.628662	189.600000
851.662415	198.600000
851.696106	191.300000
851.729858	194.200000
851.763611	183.500000
851.797363	189.500000
851.831116	182.900000
851.864868	191.600000
851.898560	192.200000
851.932312	188.000000
851.966064	191.200000
851.999817	189.200000
852.033569	187.100000
852.067261	193.600000
852.101013	184.000000
852.134766	189.000000
852.168457	177.800000
852.202209	193.300000
852.235901	184.200000
852.269592	193.300000
852.303345	196.100000
852.337036	192.900000
852.370789	188.900000
852.404541	191.700000
852.438171	184.000000
852.471924	188.200000
852.505676	180.400000
852.539307	191.200000
852.573059	185.000000
852.606812	186.900000
852.640442	188.000000
852.674194	195.100000
852.707886	198.000000
852.741577	196.300000
852.775269	183.700000
852.809021	190.000000
852.842651	191.200000
852.876404	193.500000
852.910034	190.200000
852.943787	195.300000
852.977478	191.300000
853.011108	185.400000
853.044861	184.900000
853.078552	195.000000
853.112183	191.100000
853.145874	190.000000
853.179626	179.400000
853.213257	190.400000
853.246948	186.700000
853.280640	197.900000
853.314270	188.700000
853.347961	195.200000
853.381653	191.800000
853.415283	195.300000
853.448975	185.600000
853.482605	191.700000
853.516296	188.800000
853.549988	183.800000
853.583618	191.300000
853.617310	191.100000
853.651001	192.500000
853.684631	183.500000
853.718323	186.900000
853.751953	195.800000
853.785583	181.700000
853.819275	192.400000
853.852966	191.800000
853.886536	178.700000
853.920227	184.300000
853.953918	192.500000
853.987488	188.900000
854.021179	192.100000
854.054749	196.000000
854.088440	190.400000
854.122131	185.600000
854.155701	191.600000
854.189331	186.000000
854.223022	189.800000
854.256592	191.500000
854.290283	184.400000
854.323914	192.900000
854.357483	191.000000
854.391174	190.900000
854.424744	197.100000
854.458374	190.200000
854.492065	200.200000
854.525696	188.700000
854.559265	194.500000
854.592896	200.100000
854.626465	188.000000
854.660095	189.700000
854.693787	190.100000
854.727356	188.100000
854.760986	193.200000
854.794617	191.600000
854.828186	187.200000
854.861816	192.700000
854.895447	188.300000
854.929016	192.300000
854.962585	192.400000
854.996155	197.600000
855.029785	192.900000
855.063416	192.000000
855.097046	193.800000
855.130615	184.700000
855.164185	197.000000
855.197754	190.100000
855.231384	192.800000
855.264954	188.500000
855.298523	192.800000
855.332153	189.400000
855.365723	197.300000
855.399292	184.900000
855.432922	187.300000
855.466492	190.900000
855.500061	186.300000
855.533630	185.500000
855.567200	192.200000
855.600769	193.100000
855.634338	194.000000
855.667969	189.700000
855.701477	185.800000
855.735046	185.200000
855.768616	182.600000
855.802185	190.300000
855.835754	204.800000
855.869324	180.200000
855.902893	188.600000
855.936401	195.100000
855.969971	191.400000
856.003540	181.900000
856.037109	193.900000
856.070618	187.500000
856.104187	184.100000
856.137695	185.700000
856.171265	181.000000
856.204834	188.300000
856.238403	193.900000
856.271912	186.000000
856.305481	191.600000
856.338989	180.500000
856.372559	192.700000
856.406128	188.900000
856.439636	194.400000
856.473145	188.100000
856.506653	195.800000
856.540222	188.600000
856.573792	197.200000
856.607300	191.700000
856.640808	185.300000
856.674377	191.100000
856.707825	218.600000
856.741394	194.100000
856.774902	186.400000
856.808472	180.300000
856.841980	192.000000
856.875488	197.700000
856.908936	181.900000
856.942505	188.100000
856.976013	188.000000
857.009521	184.900000
857.043030	188.700000
857.076477	189.500000
857.110046	195.100000
857.143555	190.200000
857.177063	191.700000
857.210571	188.000000
857.244080	182.900000
857.277527	192.700000
857.311035	189.100000
857.344543	194.200000
857.378052	186.800000
857.411499	195.200000
857.445068	196.900000
857.478516	189.100000
857.512024	183.100000
857.545532	187.300000
857.578979	189.900000
857.612427	189.000000
857.645874	183.200000
857.679382	190.700000
857.712891	191.900000
857.746399	190.400000
857.779846	193.000000
857.813354	195.500000
857.846741	188.600000
857.880249	185.000000
857.913757	188.900000
857.947266	191.000000
857.980652	192.300000
858.014160	187.700000
858.047546	186.300000
858.081055	189.500000
858.114563	196.600000
858.147949	183.400000
858.181458	193.500000
858.214844	190.100000
858.248352	180.800000
858.281799	194.100000
858.315308	200.300000
858.348694	193.500000
858.382141	197.900000
858.415588	193.700000
858.449036	195.200000
858.482483	191.500000
858.515930	185.900000
858.549377	189.900000
858.582825	197.300000
858.616211	193.800000
858.649658	191.500000
858.683105	183.900000
858.716553	187.600000
858.750000	184.300000
858.783386	188.200000
858.816833	182.400000
858.850281	190.700000
858.883728	191.000000
858.917114	189.700000
858.950562	197.800000
858.983948	197.900000
859.017395	192.800000
859.050781	188.400000
859.084167	184.600000
859.117615	184.800000
859.151062	190.700000
859.184448	186.700000
859.217834	186.300000
859.251282	187.900000
859.284668	184.400000
859.318054	181.000000
859.351440	185.400000
859.384888	196.700000
859.418274	180.100000
859.451721	181.600000
859.485046	192.300000
859.518494	191.100000
859.551819	184.400000
859.585266	192.200000
859.618652	191.000000
859.652039	183.700000
859.685425	183.100000
859.718811	181.700000
859.752197	177.300000
859.785583	195.900000
859.819031	196.900000
859.852356	193.300000
859.885742	184.600000
859.919067	189.100000
859.952454	185.700000
859.985901	195.400000
860.019287	185.800000
860.052612	0.000000
860.085999	0.000000
860.119324	0.000000
860.152710	0.000000
860.186096	0.000000
860.219421	0.000000
860.252808	0.000000
860.286133	0.000000
860.319519	0.000000
860.352905	0.000000
860.386292	0.000000
860.419617	0.000000
860.452942	0.000000
860.486267	0.000000
860.519653	0.000000
860.553040	0.000000
860.586365	0.000000
860.619690	0.000000
860.653076	0.000000
860.686340	0.000000
860.719727	0.000000
860.753113	0.000000
860.786377	0.000000
860.819763	0.000000
860.853027	0.000000
860.886414	0.000000
860.919739	0.000000
860.953125	0.000000
860.986389	0.000000
861.019714	0.000000
861.053040	0.000000
861.086365	0.000000
861.119690	0.000000
861.153076	0.000000
861.186340	0.000000
861.219666	0.000000
861.252930	0.000000
861.286316	0.000000
861.319641	0.000000
861.352905	0.000000
861.386230	0.000000
861.419495	0.000000
861.452820	0.000000
861.486145	0.000000
861.519470	0.000000
861.552734	0.000000
861.586060	0.000000
861.619324	0.000000
861.652649	0.000000
861.685974	0.000000
861.719238	0.000000
861.752563	0.000000
861.785828	0.000000
861.819092	0.000000
861.852417	0.000000
861.885742	0.000000
861.918945	0.000000
861.952271	0.000000
861.985535	0.000000
862.018799	0.000000
862.052124	0.000000
862.085449	0.000000
862.118652	0.000000
862.151978	0.000000
862.185181	0.000000
862.218506	0.000000
862.251770	0.000000
862.285034	0.000000
862.318298	0.000000
862.351562	0.000000
862.384827	0.000000
862.418091	0.000000
862.451355	0.000000
862.484619	0.000000
862.517883	0.000000
862.551086	0.000000
862.584351	0.000000
862.617676	0.000000
862.650940	0.000000
862.684143	0.000000
862.717407	0.000000
862.750610	0.000000
862.783875	0.000000
862.817139	0.000000
862.850342	0.000000
862.883606	0.000000
862.916870	0.000000
862.950073	0.000000
862.983337	0.000000
863.016602	0.000000
863.049805	0.000000
863.083069	0.000000
863.116211	0.000000
863.149475	0.000000
863.182739	0.000000
863.216003	0.000000
863.249146	0.000000
863.282410	0.000000
863.315613	0.000000
863.348816	0.000000
863.382080	0.000000
863.415222	0.000000
863.448486	0.000000
863.481689	0.000000
863.514893	0.000000
863.548157	0.000000
863.581360	0.000000
863.614502	0.000000
863.647766	0.000000
863.680908	0.000000
863.714172	0.000000
863.747375	0.000000
863.780579	0.000000
863.813721	0.000000
863.846985	0.000000
863.880127	0.000000
863.913330	0.000000
863.946533	0.000000
863.979675	0.000000
864.012939	0.000000
