Model Number: SPM-001-M   
Serial Number: 10090201
Firmware Version: 004.17.6
Exposure Time: 500000.000000us
Data Taken on: 03-03-2021 10:49:12.147
Wavelength	Amplitude
733.770752	0.000000
733.808716	0.000000
733.846619	0.000000
733.884583	0.000000
733.922546	0.000000
733.960449	0.000000
733.998413	0.000000
734.036377	0.000000
734.074219	0.000000
734.112183	0.000000
734.150085	0.000000
734.188049	0.000000
734.226013	0.000000
734.263916	0.000000
734.301819	0.000000
734.339783	0.000000
734.377686	0.000000
734.415588	0.000000
734.453552	0.000000
734.491455	0.000000
734.529419	0.000000
734.567322	0.000000
734.605225	0.000000
734.643127	0.000000
734.681091	0.000000
734.718994	0.000000
734.756897	0.000000
734.794800	0.000000
734.832703	0.000000
734.870667	0.000000
734.908508	0.000000
734.946472	0.000000
734.984375	0.000000
735.022278	0.000000
735.060181	0.000000
735.098083	0.000000
735.135986	0.000000
735.173889	0.000000
735.211792	0.000000
735.249695	0.000000
735.287598	0.000000
735.325439	0.000000
735.363403	0.000000
735.401306	0.000000
735.439148	0.000000
735.477051	0.000000
735.515015	0.000000
735.552856	0.000000
735.590759	0.000000
735.628662	0.000000
735.666504	0.000000
735.704407	0.000000
735.742310	0.000000
735.780212	0.000000
735.818115	0.000000
735.856018	0.000000
735.893860	0.000000
735.931763	0.000000
735.969604	0.000000
736.007507	0.000000
736.045410	0.000000
736.083252	0.000000
736.121094	0.000000
736.158997	0.000000
736.196838	0.000000
736.234741	0.000000
736.272644	0.000000
736.310486	0.000000
736.348389	0.000000
736.386230	0.000000
736.424072	0.000000
736.461975	0.000000
736.499878	0.000000
736.537720	0.000000
736.575562	0.000000
736.613403	0.000000
736.651306	0.000000
736.689148	0.000000
736.726990	0.000000
736.764893	0.000000
736.802734	0.000000
736.840576	0.000000
736.878418	0.000000
736.916321	0.000000
736.954102	0.000000
736.992004	0.000000
737.029846	0.000000
737.067688	0.000000
737.105530	0.000000
737.143372	0.000000
737.181213	0.000000
737.219116	0.000000
737.256897	0.000000
737.294739	0.000000
737.332642	0.000000
737.370422	0.000000
737.408325	0.000000
737.446167	0.000000
737.483948	0.000000
737.521790	0.000000
737.559692	0.000000
737.597473	0.000000
737.635315	0.000000
737.673157	0.000000
737.710999	0.000000
737.748840	0.000000
737.786621	0.000000
737.824463	0.000000
737.862305	0.000000
737.900085	0.000000
737.937927	0.000000
737.975769	0.000000
738.013550	0.000000
738.051392	0.000000
738.089233	0.000000
738.127014	0.000000
738.164856	0.000000
738.202698	0.000000
738.240479	0.000000
738.278320	0.000000
738.316162	0.000000
738.353943	0.000000
738.391785	0.000000
738.429565	0.000000
738.467407	0.000000
738.505188	0.000000
738.542969	0.000000
738.580811	0.000000
738.618652	0.000000
738.656372	0.000000
738.694214	0.000000
738.732056	0.000000
738.769836	0.000000
738.807617	0.000000
738.845459	0.000000
738.883240	0.000000
738.921021	0.000000
738.958862	0.000000
738.996582	0.000000
739.034424	0.000000
739.072205	0.000000
739.109985	0.000000
739.147827	0.000000
739.185547	0.000000
739.223389	0.000000
739.261169	0.000000
739.298889	0.000000
739.336731	0.000000
739.374512	0.000000
739.412292	0.000000
739.450073	0.000000
739.487854	0.000000
739.525635	0.000000
739.563416	0.000000
739.601135	0.000000
739.638977	0.000000
739.676758	0.000000
739.714478	0.000000
739.752258	0.000000
739.790100	0.000000
739.827820	0.000000
739.865601	0.000000
739.903381	0.000000
739.941101	0.000000
739.978882	189.500000
740.016724	186.900000
740.054443	192.600000
740.092224	182.900000
740.130005	184.000000
740.167725	185.300000
740.205505	184.400000
740.243225	192.600000
740.281006	188.500000
740.318787	179.600000
740.356506	193.700000
740.394287	191.000000
740.432068	183.800000
740.469727	182.200000
740.507507	191.700000
740.545288	187.100000
740.583008	189.800000
740.620789	188.300000
740.658569	178.400000
740.696228	186.200000
740.734009	192.000000
740.771790	176.100000
740.809509	190.500000
740.847229	183.200000
740.884949	185.400000
740.922729	180.500000
740.960449	185.400000
740.998169	182.400000
741.035950	183.100000
741.073669	188.200000
741.111389	186.800000
741.149170	195.600000
741.186890	197.700000
741.224609	190.900000
741.262329	187.300000
741.300110	197.600000
741.337769	181.700000
741.375549	180.300000
741.413208	187.900000
741.450989	182.700000
741.488708	184.200000
741.526367	185.700000
741.564148	189.500000
741.601868	191.800000
741.639526	185.000000
741.677307	188.400000
741.715027	189.700000
741.752686	183.800000
741.790466	193.300000
741.828186	189.500000
741.865845	181.100000
741.903564	178.200000
741.941345	187.200000
741.979004	183.700000
742.016724	190.500000
742.054382	187.500000
742.092102	192.700000
742.129822	180.100000
742.167480	185.000000
742.205200	186.300000
742.242920	188.700000
742.280640	191.400000
742.318359	183.400000
742.356079	185.200000
742.393738	190.300000
742.431396	187.300000
742.469116	192.500000
742.506775	179.000000
742.544495	189.700000
742.582214	190.900000
742.619873	187.100000
742.657593	195.000000
742.695251	192.300000
742.732971	185.900000
742.770630	189.300000
742.808289	187.500000
742.846008	186.800000
742.883728	189.000000
742.921326	187.000000
742.959045	185.400000
742.996765	187.100000
743.034424	186.300000
743.072083	183.800000
743.109802	186.000000
743.147400	180.500000
743.185120	187.200000
743.222839	186.400000
743.260437	192.900000
743.298157	188.700000
743.335754	179.900000
743.373474	184.700000
743.411133	178.900000
743.448792	188.000000
743.486450	186.800000
743.524170	178.800000
743.561768	185.800000
743.599487	193.700000
743.637146	198.300000
743.674744	186.100000
743.712463	184.300000
743.750122	187.500000
743.787720	190.100000
743.825439	183.400000
743.863037	185.300000
743.900696	186.900000
743.938416	212.100000
743.976013	186.200000
744.013672	196.000000
744.051331	193.100000
744.088928	195.700000
744.126587	194.100000
744.164307	187.700000
744.201904	184.100000
744.239563	189.000000
744.277222	190.500000
744.314819	187.100000
744.352478	193.900000
744.390137	188.500000
744.427734	189.900000
744.465393	185.000000
744.502991	182.400000
744.540649	191.900000
744.578308	187.800000
744.615906	182.400000
744.653564	176.600000
744.691223	190.900000
744.728821	179.800000
744.766418	186.900000
744.804077	189.400000
744.841675	185.100000
744.879333	181.500000
744.916992	186.600000
744.954529	184.400000
744.992187	192.300000
745.029785	185.000000
745.067444	182.800000
745.105042	187.300000
745.142639	188.100000
745.180298	197.100000
745.217896	183.300000
745.255493	185.100000
745.293152	190.800000
745.330750	190.800000
745.368347	195.900000
745.405945	190.800000
745.443604	188.100000
745.481140	189.800000
745.518799	184.600000
745.556396	192.100000
745.593994	191.400000
745.631592	187.600000
745.669189	180.200000
745.706787	188.500000
745.744385	183.400000
745.781982	188.500000
745.819580	185.700000
745.857178	185.200000
745.894775	187.500000
745.932373	187.800000
745.969971	188.400000
746.007568	178.500000
746.045166	196.400000
746.082764	192.300000
746.120300	190.700000
746.157898	189.800000
746.195557	186.900000
746.233093	181.400000
746.270691	190.500000
746.308228	188.800000
746.345825	191.900000
746.383423	191.200000
746.420959	183.500000
746.458557	185.000000
746.496155	184.800000
746.533691	186.400000
746.571289	181.600000
746.608887	187.000000
746.646423	188.500000
746.684021	187.400000
746.721619	184.500000
746.759155	188.000000
746.796753	181.600000
746.834351	180.300000
746.871826	184.900000
746.909424	193.700000
746.946960	189.000000
746.984558	186.100000
747.022156	184.700000
747.059631	194.600000
747.097229	189.900000
747.134827	184.300000
747.172363	194.200000
747.209900	190.300000
747.247498	182.300000
747.285034	194.600000
747.322571	193.100000
747.360168	185.300000
747.397644	178.900000
747.435242	192.300000
747.472778	192.300000
747.510315	184.000000
747.547913	184.600000
747.585388	192.700000
747.622925	186.400000
747.660522	178.700000
747.697998	183.200000
747.735596	186.100000
747.773132	183.500000
747.810669	187.400000
747.848206	191.000000
747.885742	183.200000
747.923279	181.700000
747.960815	188.200000
747.998352	187.000000
748.035889	192.100000
748.073425	191.700000
748.110901	185.100000
748.148437	182.100000
748.185974	187.900000
748.223511	196.500000
748.261047	190.100000
748.298584	190.300000
748.336060	185.800000
748.373596	189.800000
748.411133	207.200000
748.448608	183.200000
748.486145	190.500000
748.523682	194.900000
748.561218	194.100000
748.598755	187.900000
748.636292	190.700000
748.673706	184.700000
748.711243	193.700000
748.748718	189.800000
748.786255	186.300000
748.823792	186.300000
748.861267	181.300000
748.898804	188.400000
748.936340	189.600000
748.973816	186.300000
749.011292	193.000000
749.048828	188.900000
749.086304	189.600000
749.123840	197.700000
749.161316	181.500000
749.198792	196.100000
749.236328	192.700000
749.273743	186.200000
749.311279	184.700000
749.348816	190.200000
749.386230	187.300000
749.423767	175.900000
749.461304	191.000000
749.498718	187.400000
749.536255	193.200000
749.573730	199.400000
749.611206	193.800000
749.648682	187.200000
749.686218	186.300000
749.723633	191.400000
749.761169	185.900000
749.798645	184.900000
749.836060	186.400000
749.873596	184.500000
749.911011	186.200000
749.948547	195.800000
749.986023	186.800000
750.023437	186.400000
750.060913	180.400000
750.098450	181.800000
750.135864	187.400000
750.173340	188.000000
750.210815	192.000000
750.248291	182.800000
750.285767	187.300000
750.323242	193.700000
750.360657	190.600000
750.398132	182.800000
750.435608	191.300000
750.473022	184.600000
750.510498	182.400000
750.547974	184.000000
750.585449	184.600000
750.622925	176.700000
750.660339	196.200000
750.697815	188.600000
750.735291	185.500000
750.772644	188.200000
750.810120	189.000000
750.847595	190.800000
750.885010	183.300000
750.922485	195.100000
750.959961	184.600000
750.997375	193.600000
751.034851	191.500000
751.072266	192.800000
751.109680	179.800000
751.147156	193.700000
751.184570	189.500000
751.221985	189.400000
751.259460	178.300000
751.296875	188.200000
751.334290	187.600000
751.371765	190.400000
751.409180	190.600000
751.446594	192.700000
751.484070	188.400000
751.521423	188.900000
751.558899	189.400000
751.596375	194.700000
751.633728	194.300000
751.671204	199.200000
751.708618	182.500000
751.746033	187.800000
751.783447	182.400000
751.820801	182.800000
751.858276	190.500000
751.895691	187.200000
751.933105	184.600000
751.970520	183.000000
752.007935	187.100000
752.045349	192.000000
752.082764	188.100000
752.120178	186.100000
752.157532	183.000000
752.195007	185.000000
752.232422	188.800000
752.269775	191.000000
752.307190	189.800000
752.344543	183.100000
752.382019	186.500000
752.419434	185.400000
752.456787	189.900000
752.494202	193.000000
752.531616	189.500000
752.568970	190.100000
752.606384	189.600000
752.643799	189.200000
752.681152	196.400000
752.718567	190.000000
752.755981	178.600000
752.793335	189.200000
752.830750	179.500000
752.868164	193.900000
752.905518	182.600000
752.942932	191.700000
752.980225	182.300000
753.017639	193.000000
753.055054	186.200000
753.092407	189.500000
753.129822	192.100000
753.167175	197.300000
753.204529	185.500000
753.241943	185.100000
753.279358	180.800000
753.316650	190.500000
753.354065	190.000000
753.391479	192.400000
753.428772	195.900000
753.466187	191.500000
753.503479	182.800000
753.540894	186.700000
753.578308	181.500000
753.615601	182.500000
753.653015	186.500000
753.690369	185.300000
753.727722	183.300000
753.765076	180.400000
753.802490	181.900000
753.839783	180.100000
753.877136	183.800000
753.914551	200.500000
753.951843	183.000000
753.989258	190.700000
754.026611	189.100000
754.063904	191.600000
754.101257	182.700000
754.138611	179.400000
754.175964	187.500000
754.213318	199.300000
754.250610	180.600000
754.288025	184.300000
754.325378	181.500000
754.362671	193.200000
754.400024	185.300000
754.437378	196.300000
754.474670	196.900000
754.512085	183.300000
754.549438	188.100000
754.586731	185.500000
754.624084	185.400000
754.661438	182.500000
754.698730	194.600000
754.736084	185.300000
754.773376	185.700000
754.810730	188.500000
754.848083	184.700000
754.885315	191.300000
754.922668	178.900000
754.960022	180.800000
754.997314	190.700000
755.034668	186.100000
755.072021	187.400000
755.109253	183.100000
755.146606	194.100000
755.183960	184.000000
755.221252	194.400000
755.258545	192.000000
755.295898	192.000000
755.333191	191.900000
755.370544	191.200000
755.407776	185.400000
755.445129	186.800000
755.482422	190.600000
755.519714	183.000000
755.557068	179.200000
755.594360	179.500000
755.631653	190.400000
755.668945	195.300000
755.706299	187.800000
755.743530	198.100000
755.780884	194.700000
755.818176	194.500000
755.855408	192.500000
755.892761	188.700000
755.930054	187.300000
755.967346	190.700000
756.004639	189.900000
756.041870	187.400000
756.079224	192.300000
756.116516	184.300000
756.153748	192.400000
756.191040	195.000000
756.228394	190.600000
756.265625	183.900000
756.302917	189.300000
756.340210	183.400000
756.377441	192.700000
756.414795	195.300000
756.452087	187.700000
756.489319	181.800000
756.526611	190.300000
756.563843	188.400000
756.601135	197.400000
756.638428	196.700000
756.675659	186.800000
756.712952	194.400000
756.750244	191.100000
756.787476	188.900000
756.824768	195.500000
756.862061	187.700000
756.899292	236.300000
756.936584	192.300000
756.973816	199.100000
757.011047	201.600000
757.048340	190.300000
757.085632	189.000000
757.122864	204.300000
757.160156	187.400000
757.197327	191.200000
757.234619	194.100000
757.271912	189.500000
757.309082	193.200000
757.346375	188.300000
757.383667	195.500000
757.420837	192.600000
757.458130	191.400000
757.495422	190.300000
757.532593	192.400000
757.569885	185.900000
757.607117	185.100000
757.644348	192.500000
757.681580	203.700000
757.718811	180.200000
757.756042	190.300000
757.793335	188.700000
757.830505	194.400000
757.867798	189.200000
757.905029	187.000000
757.942200	192.900000
757.979492	186.800000
758.016724	189.300000
758.053894	188.700000
758.091187	209.100000
758.128418	191.800000
758.165588	189.800000
758.202820	202.200000
758.240112	190.000000
758.277283	203.000000
758.314514	193.400000
758.351685	190.300000
758.388916	200.600000
758.426147	199.800000
758.463379	201.700000
758.500610	195.500000
758.537842	193.300000
758.575012	196.600000
758.612244	189.000000
758.649475	205.100000
758.686646	185.900000
758.723877	200.800000
758.761108	200.800000
758.798279	193.400000
758.835510	196.600000
758.872742	200.300000
758.909851	196.000000
758.947083	197.900000
758.984253	196.100000
759.021484	199.700000
759.058716	197.400000
759.095886	198.200000
759.133057	193.400000
759.170288	199.000000
759.207458	192.200000
759.244690	206.800000
759.281860	205.600000
759.319031	196.500000
759.356262	193.800000
759.393433	195.200000
759.430603	195.600000
759.467773	195.100000
759.505005	202.100000
759.542175	203.300000
759.579346	195.900000
759.616516	198.200000
759.653687	200.500000
759.690918	194.000000
759.728027	198.900000
759.765259	200.600000
759.802429	201.300000
759.839539	201.900000
759.876770	204.500000
759.913940	209.700000
759.951111	201.400000
759.988281	199.900000
760.025452	196.500000
760.062561	195.600000
760.099792	208.300000
760.136963	203.400000
760.174072	199.300000
760.211243	194.200000
760.248413	195.500000
760.285583	193.600000
760.322754	209.800000
760.359863	205.700000
760.397034	206.100000
760.434204	198.600000
760.471375	200.900000
760.508545	199.100000
760.545715	198.600000
760.582825	196.200000
760.619995	207.000000
760.657166	194.300000
760.694275	207.500000
760.731445	202.900000
760.768555	203.100000
760.805664	205.800000
760.842834	202.900000
760.879944	205.600000
760.917114	203.700000
760.954285	199.700000
760.991394	196.100000
761.028564	208.000000
761.065674	205.700000
761.102783	198.700000
761.139954	207.000000
761.177124	207.200000
761.214172	208.600000
761.251343	200.800000
761.288452	202.900000
761.325562	206.400000
761.362732	199.800000
761.399841	202.400000
761.436951	206.300000
761.474121	198.700000
761.511169	204.700000
761.548340	207.200000
761.585449	207.500000
761.622559	206.900000
761.659668	206.100000
761.696838	211.800000
761.733887	206.700000
761.771057	203.200000
761.808167	204.300000
761.845276	208.800000
761.882385	216.700000
761.919434	206.900000
761.956604	225.000000
761.993713	202.000000
762.030762	214.100000
762.067871	206.000000
762.105042	206.000000
762.142090	214.700000
762.179199	207.900000
762.216309	212.500000
762.253418	222.300000
762.290527	218.600000
762.327637	214.000000
762.364685	203.700000
762.401794	213.900000
762.438904	212.600000
762.475952	207.300000
762.513062	204.400000
762.550110	204.600000
762.587219	219.400000
762.624329	218.100000
762.661377	212.000000
762.698486	211.700000
762.735596	211.800000
762.772644	205.400000
762.809753	204.100000
762.846863	210.900000
762.883911	214.800000
762.921021	214.800000
762.958069	212.500000
762.995117	220.000000
763.032227	218.600000
763.069336	211.300000
763.106323	207.200000
763.143433	206.400000
763.180481	215.300000
763.217590	215.800000
763.254639	213.600000
763.291687	212.900000
763.328735	222.300000
763.365845	213.700000
763.402893	213.900000
763.439941	215.800000
763.477051	219.600000
763.514038	219.300000
763.551147	213.800000
763.588196	216.500000
763.625244	215.200000
763.662292	222.100000
763.699402	224.900000
763.736389	221.300000
763.773499	228.900000
763.810486	221.200000
763.847534	217.200000
763.884644	219.900000
763.921631	215.700000
763.958679	227.600000
763.995728	219.700000
764.032776	227.400000
764.069824	212.900000
764.106873	223.300000
764.143860	228.900000
764.180969	219.500000
764.218018	225.800000
764.255005	218.500000
764.292053	220.800000
764.329102	231.100000
764.366089	229.900000
764.403137	227.800000
764.440125	219.200000
764.477173	224.200000
764.514221	227.300000
764.551208	225.400000
764.588257	219.800000
764.625305	228.100000
764.662292	232.000000
764.699341	235.900000
764.736389	228.900000
764.773376	242.300000
764.810425	231.400000
764.847473	239.500000
764.884399	233.600000
764.921448	243.700000
764.958435	240.900000
764.995483	232.300000
765.032532	246.500000
765.069458	232.900000
765.106506	234.000000
765.143555	231.200000
765.180481	235.200000
765.217529	243.900000
765.254578	228.700000
765.291504	239.500000
765.328552	236.200000
765.365540	232.500000
765.402527	247.600000
765.439575	234.700000
765.476501	230.800000
765.513550	231.200000
765.550537	236.600000
765.587463	244.400000
765.624512	235.800000
765.661499	226.900000
765.698486	242.000000
765.735474	234.200000
765.772461	236.500000
765.809448	244.500000
765.846436	243.500000
765.883423	245.200000
765.920410	242.100000
765.957397	236.900000
765.994385	243.200000
766.031311	251.000000
766.068359	243.200000
766.105286	245.400000
766.142273	250.400000
766.179260	244.500000
766.216187	240.300000
766.253174	235.300000
766.290161	244.000000
766.327148	247.000000
766.364136	247.500000
766.401123	263.000000
766.438049	242.100000
766.475037	255.300000
766.512024	251.600000
766.548950	265.200000
766.585937	259.100000
766.622864	254.500000
766.659790	253.700000
766.696777	242.900000
766.733704	258.100000
766.770691	249.500000
766.807678	263.400000
766.844604	254.800000
766.881531	255.400000
766.918518	263.000000
766.955444	262.200000
766.992432	252.600000
767.029358	256.400000
767.066284	259.600000
767.103271	257.100000
767.140198	286.000000
767.177124	272.000000
767.214050	260.700000
767.251038	264.200000
767.287964	258.800000
767.324890	255.800000
767.361816	263.400000
767.398743	266.600000
767.435730	260.600000
767.472595	263.400000
767.509583	269.300000
767.546509	258.700000
767.583374	264.100000
767.620361	256.000000
767.657288	262.200000
767.694214	264.200000
767.731140	262.700000
767.768066	264.800000
767.804993	268.600000
767.841919	260.500000
767.878845	266.300000
767.915710	273.000000
767.952698	264.500000
767.989563	268.400000
768.026489	269.400000
768.063416	265.000000
768.100281	261.100000
768.137207	276.300000
768.174133	273.200000
768.211060	273.100000
768.247986	268.800000
768.284912	268.700000
768.321777	270.800000
768.358704	264.800000
768.395630	269.800000
768.432495	265.500000
768.469421	274.200000
768.506348	277.700000
768.543152	281.500000
768.580078	278.300000
768.616943	281.400000
768.653870	282.300000
768.690796	281.800000
768.727661	276.200000
768.764587	279.700000
768.801453	274.900000
768.838318	284.900000
768.875244	281.300000
768.912109	287.600000
768.948975	278.400000
768.985901	280.500000
769.022766	278.400000
769.059631	285.000000
769.096558	278.500000
769.133362	281.200000
769.170288	282.500000
769.207214	281.700000
769.244019	287.500000
769.280945	286.600000
769.317810	294.100000
769.354675	288.500000
769.391541	297.300000
769.428406	292.900000
769.465271	301.100000
769.502136	289.600000
769.539062	291.700000
769.575867	293.500000
769.612732	294.500000
769.649597	300.900000
769.686462	300.400000
769.723328	295.100000
769.760193	295.700000
769.797058	296.600000
769.833923	305.100000
769.870728	299.800000
769.907593	301.400000
769.944519	301.800000
769.981323	305.200000
770.018188	304.900000
770.055054	301.600000
770.091858	300.800000
770.128723	314.500000
770.165588	317.700000
770.202393	302.700000
770.239258	315.600000
770.276062	311.800000
770.312927	310.100000
770.349792	316.100000
770.386597	313.900000
770.423462	326.700000
770.460327	331.200000
770.497131	317.500000
770.533997	309.700000
770.570862	325.500000
770.607605	325.600000
770.644470	320.900000
770.681335	324.600000
770.718140	323.800000
770.754944	319.600000
770.791809	321.400000
770.828613	322.000000
770.865479	325.500000
770.902222	337.000000
770.939087	329.200000
770.975952	319.100000
771.012695	323.700000
771.049561	339.400000
771.086365	326.900000
771.123169	328.000000
771.159973	327.700000
771.196838	331.400000
771.233582	333.500000
771.270447	333.100000
771.307251	337.000000
771.344055	334.600000
771.380859	338.500000
771.417664	331.700000
771.454468	342.300000
771.491272	342.000000
771.528076	339.500000
771.564880	337.900000
771.601685	348.100000
771.638428	336.500000
771.675293	347.500000
771.712097	334.300000
771.748840	352.400000
771.785645	343.600000
771.822449	345.800000
771.859253	350.800000
771.896057	344.400000
771.932861	358.700000
771.969604	347.800000
772.006409	343.000000
772.043213	356.000000
772.079956	353.100000
772.116760	347.500000
772.153503	350.500000
772.190308	360.200000
772.227112	352.800000
772.263855	346.600000
772.300659	351.500000
772.337463	359.900000
772.374207	351.400000
772.411011	345.600000
772.447754	347.600000
772.484497	366.100000
772.521301	356.100000
772.558105	356.200000
772.594849	359.300000
772.631592	361.500000
772.668396	358.600000
772.705139	364.300000
772.741882	360.100000
772.778625	373.000000
772.815430	373.000000
772.852173	365.800000
772.888916	375.400000
772.925720	376.600000
772.962463	382.500000
772.999207	374.500000
773.035950	380.500000
773.072754	379.700000
773.109436	374.200000
773.146240	379.300000
773.182922	378.200000
773.219727	385.300000
773.256470	379.900000
773.293152	368.000000
773.329956	374.100000
773.366699	380.700000
773.403381	369.500000
773.440186	379.000000
773.476929	382.200000
773.513611	375.800000
773.550354	377.100000
773.587158	376.400000
773.623840	371.600000
773.660583	379.700000
773.697327	390.100000
773.734009	380.000000
773.770813	379.900000
773.807495	380.700000
773.844238	380.400000
773.880981	395.600000
773.917664	391.500000
773.954407	397.900000
773.991150	387.600000
774.027832	395.800000
774.064575	383.900000
774.101318	390.700000
774.138000	396.300000
774.174744	391.900000
774.211487	394.000000
774.248108	382.200000
774.284851	380.800000
774.321594	394.400000
774.358276	393.100000
774.395020	400.800000
774.431702	397.500000
774.468384	391.300000
774.505127	386.400000
774.541809	397.400000
774.578491	402.800000
774.615234	408.700000
774.651917	399.500000
774.688599	406.700000
774.725342	412.600000
774.762024	410.900000
774.798706	413.600000
774.835449	419.000000
774.872070	420.800000
774.908813	418.300000
774.945496	416.700000
774.982178	415.700000
775.018860	414.900000
775.055542	415.700000
775.092224	416.000000
775.128967	424.500000
775.165588	423.100000
775.202271	415.600000
775.239014	427.300000
775.275635	424.400000
775.312317	421.700000
775.349060	424.900000
775.385681	429.200000
775.422363	418.800000
775.459045	426.000000
775.495667	428.900000
775.532410	433.500000
775.569092	433.400000
775.605713	434.500000
775.642395	435.400000
775.679016	437.500000
775.715698	439.300000
775.752380	443.900000
775.789001	438.900000
775.825684	439.100000
775.862366	442.900000
775.898987	456.200000
775.935669	445.800000
775.972351	465.400000
776.008972	456.800000
776.045654	455.300000
776.082336	452.300000
776.118958	452.000000
776.155640	452.500000
776.192322	458.400000
776.228882	462.300000
776.265564	461.700000
776.302185	456.100000
776.338867	467.800000
776.375488	455.900000
776.412109	464.300000
776.448792	470.700000
776.485413	477.500000
776.522034	468.700000
776.558716	466.300000
776.595337	469.900000
776.631958	475.400000
776.668579	476.200000
776.705261	482.400000
776.741882	479.100000
776.778503	478.900000
776.815186	474.300000
776.851746	483.800000
776.888367	483.400000
776.924988	494.300000
776.961609	488.200000
776.998291	490.000000
777.034851	482.600000
777.071472	498.000000
777.108154	491.800000
777.144714	504.600000
777.181335	503.100000
777.218018	489.000000
777.254578	501.100000
777.291199	499.700000
777.327759	505.400000
777.364380	506.900000
777.401062	515.400000
777.437622	527.700000
777.474243	511.500000
777.510864	519.500000
777.547424	512.400000
777.584045	512.500000
777.620667	514.400000
777.657227	516.600000
777.693848	515.700000
777.730469	531.800000
777.767029	526.000000
777.803650	530.600000
777.840271	521.000000
777.876831	522.600000
777.913452	534.000000
777.950012	516.100000
777.986633	524.200000
778.023193	518.400000
778.059753	518.700000
778.096375	521.500000
778.132996	537.300000
778.169556	530.700000
778.206116	534.700000
778.242737	523.900000
778.279297	531.200000
778.315857	521.700000
778.352478	528.500000
778.389038	540.100000
778.425598	535.800000
778.462219	538.600000
778.498718	534.900000
778.535339	540.700000
778.571838	548.900000
778.608459	550.500000
778.645020	540.700000
778.681580	549.300000
778.718140	549.800000
778.754761	541.000000
778.791260	546.400000
778.827881	556.300000
778.864441	550.700000
778.900940	560.000000
778.937561	557.800000
778.974121	551.800000
779.010620	539.800000
779.047241	545.100000
779.083801	554.700000
779.120300	553.700000
779.156860	558.600000
779.193359	555.500000
779.229980	553.300000
779.266541	558.300000
779.303040	559.400000
779.339600	552.500000
779.376160	544.100000
779.412659	551.100000
779.449219	547.600000
779.485779	556.600000
779.522278	560.300000
779.558838	565.700000
779.595398	563.000000
779.631897	563.300000
779.668457	555.600000
779.705017	566.700000
779.741516	557.900000
779.778076	553.500000
779.814575	555.000000
779.851074	564.000000
779.887634	559.100000
779.924133	566.700000
779.960693	550.500000
779.997253	564.100000
780.033691	566.500000
780.070251	573.600000
780.106812	581.300000
780.143250	571.100000
780.179810	564.100000
780.216370	570.100000
780.252808	576.700000
780.289368	584.000000
780.325867	579.800000
780.362366	579.700000
780.398865	591.200000
780.435364	580.600000
780.471863	593.400000
780.508423	587.800000
780.544861	593.500000
780.581421	595.800000
780.617920	584.400000
780.654419	578.400000
780.690918	588.400000
780.727417	599.800000
780.763916	592.700000
780.800415	602.300000
780.836914	590.900000
780.873352	601.900000
780.909912	595.200000
780.946411	601.800000
780.982849	608.400000
781.019348	617.400000
781.055786	607.400000
781.092346	605.700000
781.128845	611.600000
781.165283	615.600000
781.201782	625.400000
781.238281	623.100000
781.274719	626.900000
781.311218	619.600000
781.347717	628.600000
781.384155	615.300000
781.420654	618.500000
781.457092	628.900000
781.493591	626.500000
781.530090	619.300000
781.566528	627.700000
781.602966	629.600000
781.639465	630.200000
781.675903	625.000000
781.712402	635.300000
781.748901	641.800000
781.785278	631.200000
781.821777	639.200000
781.858276	636.100000
781.894714	649.000000
781.931152	643.400000
781.967651	652.000000
782.004089	645.600000
782.040527	658.300000
782.076965	657.800000
782.113403	657.000000
782.149902	665.500000
782.186340	657.200000
782.222778	672.800000
782.259277	660.700000
782.295654	658.100000
782.332092	667.500000
782.368591	667.400000
782.404968	667.600000
782.441467	675.200000
782.477905	672.900000
782.514282	665.200000
782.550781	682.700000
782.587219	682.200000
782.623596	685.000000
782.660095	691.600000
782.696472	698.700000
782.732910	700.100000
782.769348	698.400000
782.805786	721.800000
782.842224	718.500000
782.878662	712.400000
782.915039	716.500000
782.951477	714.000000
782.987915	710.300000
783.024292	724.000000
783.060730	720.900000
783.097168	707.900000
783.133545	708.900000
783.169983	703.100000
783.206421	694.100000
783.242798	696.300000
783.279236	686.900000
783.315613	687.900000
783.352051	688.100000
783.388489	682.200000
783.424866	672.600000
783.461304	678.500000
783.497681	690.800000
783.534058	687.200000
783.570496	684.100000
783.606934	680.800000
783.643250	686.000000
783.679687	697.700000
783.716125	690.700000
783.752441	702.600000
783.788879	713.900000
783.825317	716.000000
783.861633	722.500000
783.898071	723.800000
783.934448	740.800000
783.970825	749.200000
784.007263	751.000000
784.043579	754.500000
784.080017	761.300000
784.116394	750.800000
784.152710	754.100000
784.189148	752.800000
784.225525	756.500000
784.261902	745.500000
784.298279	746.500000
784.334656	750.000000
784.371033	732.100000
784.407410	734.000000
784.443787	722.800000
784.480164	704.200000
784.516541	688.300000
784.552856	693.500000
784.589233	687.100000
784.625610	681.300000
784.661987	711.100000
784.698364	705.200000
784.734741	701.600000
784.771057	705.000000
784.807434	709.800000
784.843811	721.800000
784.880127	711.800000
784.916504	732.200000
784.952881	724.800000
784.989197	712.100000
785.025574	699.600000
785.061951	681.600000
785.098267	671.800000
785.134644	638.700000
785.170959	601.900000
785.207275	582.700000
785.243652	553.100000
785.279968	510.000000
785.316345	492.100000
785.352722	471.100000
785.388977	458.600000
785.425354	446.300000
785.461731	446.200000
785.498047	459.200000
785.534363	467.200000
785.570679	484.400000
785.606995	504.300000
785.643372	532.900000
785.679687	560.300000
785.716003	576.400000
785.752380	598.000000
785.788635	613.600000
785.825012	651.200000
785.861328	673.900000
785.897644	678.800000
785.933960	701.900000
785.970337	714.500000
786.006592	738.200000
786.042908	746.700000
786.079285	759.300000
786.115540	763.900000
786.151855	767.600000
786.188171	763.200000
786.224487	765.200000
786.260803	767.600000
786.297119	775.600000
786.333435	765.000000
786.369751	754.900000
786.406006	750.300000
786.442322	737.600000
786.478638	733.800000
786.514954	745.300000
786.551270	740.500000
786.587585	751.200000
786.623840	737.400000
786.660156	733.500000
786.696472	719.500000
786.732727	715.200000
786.769043	717.700000
786.805298	707.800000
786.841614	719.200000
786.877930	727.700000
786.914124	716.400000
786.950439	734.000000
786.986755	749.200000
787.023010	759.000000
787.059326	768.600000
787.095642	770.900000
787.131836	789.800000
787.168152	775.500000
787.204468	780.400000
787.240723	792.800000
787.276978	806.200000
787.313293	808.600000
787.349548	804.700000
787.385803	807.000000
787.422058	795.600000
787.458313	788.500000
787.494629	792.200000
787.530823	791.300000
787.567139	776.700000
787.603455	768.500000
787.639648	757.800000
787.675903	755.400000
787.712219	753.000000
787.748413	748.700000
787.784729	760.500000
787.820984	754.700000
787.857178	745.300000
787.893494	740.900000
787.929749	743.800000
787.965942	745.700000
788.002258	762.500000
788.038452	778.100000
788.074707	770.500000
788.110962	775.200000
788.147217	775.800000
788.183472	789.600000
788.219727	791.600000
788.255920	817.300000
788.292175	827.100000
788.328430	827.200000
788.364624	810.000000
788.400879	804.400000
788.437134	817.200000
788.473328	813.500000
788.509583	814.000000
788.545837	813.300000
788.582031	814.400000
788.618286	809.800000
788.654480	802.800000
788.690735	808.000000
788.726990	829.500000
788.763184	826.500000
788.799377	838.300000
788.835632	825.700000
788.871826	837.000000
788.908081	831.800000
788.944336	825.900000
788.980469	845.300000
789.016724	835.300000
789.052979	836.900000
789.089111	826.800000
789.125366	831.700000
789.161621	816.400000
789.197754	825.500000
789.234009	821.400000
789.270142	818.700000
789.306396	816.500000
789.342590	811.700000
789.378784	792.200000
789.414978	791.600000
789.451233	810.300000
789.487366	810.500000
789.523621	822.600000
789.559814	810.200000
789.595947	800.600000
789.632202	805.700000
789.668335	812.100000
789.704529	825.600000
789.740784	844.600000
789.776917	845.500000
789.813110	837.700000
789.849304	852.900000
789.885498	860.000000
789.921692	875.400000
789.957886	877.700000
789.994019	883.200000
790.030212	889.100000
790.066406	891.500000
790.102539	885.000000
790.138733	894.600000
790.174927	887.700000
790.211060	897.800000
790.247253	885.600000
790.283386	884.600000
790.319580	866.400000
790.355774	845.800000
790.391907	846.500000
790.428101	861.200000
790.464294	858.300000
790.500427	865.400000
790.536621	841.300000
790.572754	829.400000
790.608887	828.400000
790.645081	833.300000
790.681274	852.600000
790.717346	855.000000
790.753540	842.300000
790.789734	817.100000
790.825867	802.900000
790.862000	808.700000
790.898132	823.200000
790.934265	823.300000
790.970459	832.500000
791.006592	832.800000
791.042725	828.500000
791.078918	820.000000
791.114990	819.000000
791.151184	823.800000
791.187317	837.100000
791.223389	829.400000
791.259583	819.000000
791.295715	818.700000
791.331848	816.100000
791.367981	819.500000
791.404114	831.100000
791.440247	827.500000
791.476379	837.100000
791.512451	821.700000
791.548584	823.100000
791.584778	812.600000
791.620850	828.500000
791.656982	843.200000
791.693115	844.800000
791.729187	830.300000
791.765381	826.100000
791.801514	825.500000
791.837585	830.900000
791.873718	838.300000
791.909851	848.300000
791.945923	853.400000
791.982056	822.100000
792.018188	814.800000
792.054260	810.900000
792.090393	813.500000
792.126465	808.700000
792.162598	818.600000
792.198669	809.400000
792.234741	803.800000
792.270874	793.800000
792.307007	780.900000
792.343079	785.800000
792.379150	799.300000
792.415283	786.300000
792.451355	791.800000
792.487488	778.800000
792.523560	780.900000
792.559631	771.100000
792.595764	737.600000
792.631836	705.000000
792.667908	687.600000
792.703979	667.900000
792.740051	679.000000
792.776184	704.500000
792.812256	714.100000
792.848328	721.700000
792.884399	725.300000
792.920471	725.300000
792.956543	721.800000
792.992615	721.000000
793.028748	722.800000
793.064758	724.500000
793.100830	738.000000
793.136963	752.500000
793.172974	754.200000
793.209045	752.000000
793.245178	762.200000
793.281189	749.900000
793.317261	753.500000
793.353271	755.500000
793.389404	767.500000
793.425476	764.200000
793.461487	747.600000
793.497559	738.400000
793.533630	743.600000
793.569641	731.700000
793.605713	734.600000
793.641785	739.900000
793.677795	744.400000
793.713867	734.400000
793.749878	741.800000
793.785950	753.900000
793.822021	766.300000
793.858032	743.800000
793.894104	761.300000
793.930176	750.100000
793.966187	754.000000
794.002258	741.400000
794.038269	746.300000
794.074280	741.400000
794.110352	772.500000
794.146423	753.000000
794.182373	749.500000
794.218445	748.400000
794.254517	743.200000
794.290466	725.800000
794.326538	738.200000
794.362549	744.500000
794.398560	739.300000
794.434631	743.700000
794.470581	722.600000
794.506653	721.200000
794.542664	728.900000
794.578674	728.300000
794.614685	728.600000
794.650757	725.300000
794.686707	722.400000
794.722778	715.100000
794.758789	720.000000
794.794739	722.100000
794.830811	745.500000
794.866821	769.100000
794.902771	771.500000
794.938843	761.400000
794.974792	761.400000
795.010803	765.900000
795.046814	767.200000
795.082825	757.500000
795.118835	771.200000
795.154846	756.000000
795.190796	762.100000
795.226807	745.400000
795.262817	750.100000
795.298767	749.200000
795.334778	752.000000
795.370850	746.200000
795.406799	752.200000
795.442810	734.000000
795.478821	737.700000
795.514709	733.300000
795.550720	751.000000
795.586670	728.900000
795.622681	740.200000
795.658691	739.600000
795.694641	737.300000
795.730652	724.500000
795.766663	731.900000
795.802551	736.100000
795.838562	755.000000
795.874573	742.000000
795.910522	740.400000
795.946472	727.100000
795.982483	731.700000
796.018433	733.900000
796.054382	742.100000
796.090393	734.100000
796.126282	731.700000
796.162292	726.200000
796.198242	718.300000
796.234192	719.700000
796.270203	718.400000
796.306091	719.100000
796.342041	736.300000
796.378052	727.600000
796.413940	724.400000
796.449951	729.900000
796.485901	728.300000
796.521790	729.000000
796.557800	743.800000
796.593689	743.600000
796.629639	735.400000
796.665649	730.000000
796.701599	730.000000
796.737488	730.400000
796.773437	732.100000
796.809387	733.600000
796.845337	733.200000
796.881287	729.800000
796.917175	708.300000
796.953125	709.200000
796.989075	715.500000
797.024963	718.400000
797.060913	714.200000
797.096863	718.400000
797.132751	716.300000
797.168701	704.200000
797.204590	710.400000
797.240540	713.600000
797.276489	721.900000
797.312439	732.400000
797.348328	724.000000
797.384277	710.200000
797.420166	703.300000
797.456055	700.600000
797.492004	695.700000
797.527893	701.100000
797.563843	703.500000
797.599731	694.700000
797.635620	689.400000
797.671570	700.500000
797.707520	697.700000
797.743347	698.200000
797.779297	704.500000
797.815125	697.600000
797.851074	694.300000
797.887024	687.800000
797.922913	677.100000
797.958801	687.700000
797.994690	681.500000
798.030579	686.300000
798.066467	693.000000
798.102356	688.700000
798.138245	680.800000
798.174133	674.400000
798.210083	679.300000
798.245911	689.300000
798.281799	689.200000
798.317749	682.800000
798.353577	675.200000
798.389465	676.800000
798.425293	673.200000
798.461243	667.800000
798.497131	675.200000
798.532959	679.000000
798.568848	687.900000
798.604736	680.500000
798.640564	662.900000
798.676453	667.700000
798.712402	669.100000
798.748230	673.000000
798.784119	672.700000
798.820007	673.100000
798.855835	673.700000
798.891724	664.100000
798.927551	660.600000
798.963379	664.600000
798.999268	656.400000
799.035095	657.500000
799.070984	654.400000
799.106873	641.700000
799.142700	643.800000
799.178528	632.800000
799.214417	637.400000
799.250244	650.700000
799.286133	642.700000
799.321960	644.400000
799.357788	642.700000
799.393677	637.600000
799.429504	635.400000
799.465332	637.300000
799.501221	644.100000
799.537048	641.600000
799.572876	635.900000
799.608704	634.300000
799.644531	646.400000
799.680359	645.900000
799.716248	656.700000
799.752014	665.300000
799.787903	650.800000
799.823730	645.500000
799.859558	636.100000
799.895386	637.100000
799.931213	640.000000
799.967041	630.300000
800.002869	634.800000
800.038696	646.200000
800.074463	629.000000
800.110352	632.400000
800.146179	617.500000
800.181946	631.000000
800.217773	634.100000
800.253540	630.200000
800.289429	626.200000
800.325256	617.100000
800.361023	608.200000
800.396851	613.000000
800.432678	616.300000
800.468445	613.800000
800.504272	616.400000
800.540100	607.500000
800.575867	606.200000
800.611694	609.800000
800.647461	603.900000
800.683289	608.800000
800.719116	613.400000
800.754883	609.800000
800.790649	600.800000
800.826477	594.000000
800.862244	614.300000
800.898071	595.500000
800.933838	598.600000
800.969604	599.000000
801.005432	599.300000
801.041199	598.100000
801.076965	591.100000
801.112793	582.700000
801.148560	577.800000
801.184326	581.000000
801.220154	584.800000
801.255859	576.700000
801.291687	579.300000
801.327454	573.800000
801.363281	572.500000
801.398987	572.900000
801.434814	569.400000
801.470520	582.900000
801.506287	572.700000
801.542114	566.200000
801.577820	564.600000
801.613647	564.400000
801.649414	560.900000
801.685120	567.300000
801.720886	577.300000
801.756714	566.100000
801.792419	558.000000
801.828186	551.800000
801.863892	560.000000
801.899719	553.100000
801.935486	549.200000
801.971252	558.700000
802.006958	552.200000
802.042725	548.000000
802.078430	550.100000
802.114197	546.800000
802.149963	562.100000
802.185669	550.400000
802.221436	553.200000
802.257202	555.800000
802.292908	550.200000
802.328674	557.100000
802.364441	554.400000
802.400146	559.300000
802.435913	556.700000
802.471558	551.700000
802.507324	551.300000
802.543091	542.400000
802.578796	555.600000
802.614502	549.500000
802.650269	560.000000
802.685974	543.500000
802.721741	545.400000
802.757446	550.700000
802.793152	546.200000
802.828918	553.600000
802.864624	549.500000
802.900330	547.600000
802.936035	548.800000
802.971802	545.900000
803.007446	542.200000
803.043213	535.300000
803.078857	544.800000
803.114624	530.400000
803.150330	536.900000
803.185974	530.000000
803.221741	532.900000
803.257446	541.100000
803.293152	542.200000
803.328857	537.600000
803.364563	532.900000
803.400208	526.900000
803.435974	535.700000
803.471680	527.300000
803.507324	521.400000
803.543030	529.400000
803.578735	533.700000
803.614441	527.100000
803.650146	538.700000
803.685791	523.900000
803.721497	525.700000
803.757202	513.800000
803.792847	524.300000
803.828552	517.300000
803.864258	518.600000
803.899902	515.000000
803.935608	502.400000
803.971313	504.600000
804.006958	504.600000
804.042664	501.000000
804.078308	510.200000
804.113953	502.700000
804.149658	512.100000
804.185364	496.400000
804.221008	511.900000
804.256714	500.500000
804.292297	501.200000
804.328003	500.000000
804.363708	492.200000
804.399292	497.300000
804.434998	497.200000
804.470703	490.200000
804.506287	502.800000
804.541992	496.900000
804.577637	497.600000
804.613281	484.000000
804.648926	479.900000
804.684570	486.600000
804.720215	481.900000
804.755920	480.300000
804.791565	478.600000
804.827209	484.500000
804.862854	478.000000
804.898437	474.400000
804.934143	476.000000
804.969788	472.100000
805.005371	474.100000
805.041077	474.200000
805.076721	471.100000
805.112305	464.600000
805.147949	465.900000
805.183655	458.800000
805.219238	464.100000
805.254883	462.400000
805.290466	464.500000
805.326111	461.200000
805.361755	454.300000
805.397400	456.500000
805.432983	461.000000
805.468628	458.000000
805.504211	465.600000
805.539856	463.500000
805.575500	466.800000
805.611084	456.900000
805.646729	445.100000
805.682373	453.600000
805.717957	461.800000
805.753601	461.000000
805.789246	442.900000
805.824768	453.500000
805.860413	455.500000
805.895996	445.900000
805.931641	445.900000
805.967224	453.900000
806.002869	444.100000
806.038452	454.700000
806.074036	455.600000
806.109619	440.200000
806.145264	441.200000
806.180847	440.800000
806.216431	438.200000
806.252014	441.600000
806.287659	443.400000
806.323181	448.300000
806.358826	445.700000
806.394409	428.000000
806.429993	432.200000
806.465576	449.000000
806.501160	438.100000
806.536743	430.600000
806.572327	440.300000
806.607910	434.300000
806.643494	431.400000
806.679077	429.200000
806.714661	430.500000
806.750244	431.300000
806.785828	426.900000
806.821350	430.100000
806.856934	432.100000
806.892517	428.100000
806.928101	420.800000
806.963684	420.900000
806.999268	432.500000
807.034790	413.200000
807.070374	420.100000
807.105896	413.100000
807.141479	411.900000
807.177063	420.300000
807.212585	409.900000
807.248169	407.600000
807.283752	413.700000
807.319275	411.800000
807.354858	414.100000
807.390381	408.000000
807.425903	407.300000
807.461487	403.600000
807.497070	401.100000
807.532593	401.900000
807.568115	397.900000
807.603699	396.200000
807.639221	394.000000
807.674744	400.800000
807.710266	405.300000
807.745850	408.500000
807.781372	399.400000
807.816895	395.800000
807.852417	399.200000
807.888000	397.400000
807.923523	393.800000
807.959045	398.400000
807.994629	389.300000
808.030090	390.800000
808.065613	396.200000
808.101135	399.400000
808.136658	396.100000
808.172241	390.800000
808.207764	392.000000
808.243225	384.900000
808.278809	381.300000
808.314270	391.700000
808.349792	379.700000
808.385315	379.700000
808.420837	386.200000
808.456360	390.700000
808.491882	391.100000
808.527344	387.000000
808.562866	396.900000
808.598389	387.100000
808.633850	379.400000
808.669434	374.700000
808.704895	385.300000
808.740417	392.100000
808.775940	381.000000
808.811462	378.300000
808.846924	373.300000
808.882385	369.600000
808.917847	368.900000
808.953369	375.400000
808.988892	365.200000
809.024353	376.400000
809.059875	376.000000
809.095398	367.300000
809.130798	364.100000
809.166321	364.400000
809.201843	367.200000
809.237305	367.500000
809.272766	374.200000
809.308228	360.800000
809.343750	360.700000
809.379211	363.900000
809.414734	364.200000
809.450134	369.200000
809.485657	355.000000
809.521118	360.900000
809.556580	358.900000
809.592102	359.800000
809.627502	355.200000
809.663025	355.600000
809.698486	353.000000
809.733887	349.100000
809.769409	355.300000
809.804871	346.600000
809.840271	352.900000
809.875793	352.900000
809.911194	355.400000
809.946655	347.000000
809.982178	344.500000
810.017639	348.400000
810.053040	345.400000
810.088501	346.100000
810.123901	346.700000
810.159424	341.100000
810.194885	339.500000
810.230286	344.700000
810.265747	333.300000
810.301208	334.300000
810.336609	339.800000
810.372070	332.400000
810.407532	333.400000
810.442932	337.100000
810.478394	341.100000
810.513794	334.500000
810.549255	334.500000
810.584717	331.800000
810.620117	326.400000
810.655518	335.600000
810.690979	334.400000
810.726379	329.800000
810.761841	320.400000
810.797302	322.700000
810.832642	321.600000
810.868103	333.800000
810.903564	322.400000
810.938904	330.400000
810.974365	318.100000
811.009827	322.300000
811.045166	316.000000
811.080627	309.700000
811.115967	317.400000
811.151428	324.600000
811.186829	315.800000
811.222229	316.200000
811.257629	309.500000
811.293091	315.200000
811.328430	325.000000
811.363892	318.500000
811.399292	319.800000
811.434631	313.200000
811.470093	321.000000
811.505493	310.000000
811.540833	310.700000
811.576294	315.300000
811.611694	309.500000
811.647034	305.800000
811.682434	307.400000
811.717773	310.300000
811.753235	313.600000
811.788635	306.700000
811.823975	309.100000
811.859375	317.100000
811.894775	300.600000
811.930115	305.900000
811.965515	303.700000
812.000916	308.700000
812.036255	302.200000
812.071655	308.800000
812.106995	302.900000
812.142395	301.100000
812.177795	309.100000
812.213196	306.500000
812.248474	306.400000
812.283875	301.400000
812.319214	301.300000
812.354614	302.600000
812.390015	298.300000
812.425293	300.300000
812.460693	300.700000
812.496094	296.600000
812.531433	289.700000
812.566772	293.000000
812.602173	295.500000
812.637451	297.000000
812.672852	291.300000
812.708191	297.100000
812.743530	289.500000
812.778931	283.500000
812.814270	286.400000
812.849609	292.600000
812.884949	288.500000
812.920227	283.200000
812.955627	299.400000
812.990967	289.200000
813.026306	286.600000
813.061646	275.900000
813.096985	274.900000
813.132324	272.000000
813.167664	275.600000
813.203003	283.300000
813.238281	270.800000
813.273682	271.300000
813.308960	267.600000
813.344299	272.400000
813.379639	278.100000
813.414978	271.800000
813.450256	270.800000
813.485596	275.700000
813.520874	266.700000
813.556213	271.700000
813.591614	274.700000
813.626831	266.500000
813.662170	270.300000
813.697510	280.200000
813.732788	264.300000
813.768127	269.600000
813.803467	268.900000
813.838745	265.200000
813.874084	268.900000
813.909363	267.800000
813.944641	269.600000
813.979980	260.600000
814.015320	265.400000
814.050598	262.500000
814.085876	265.800000
814.121155	261.500000
814.156494	258.800000
814.191772	259.100000
814.227051	256.300000
814.262390	257.100000
814.297668	258.900000
814.332947	260.500000
814.368225	253.000000
814.403564	255.800000
814.438782	253.100000
814.474121	256.500000
814.509338	253.700000
814.544617	260.600000
814.579956	251.700000
814.615173	263.500000
814.650513	259.200000
814.685791	251.100000
814.721008	254.200000
814.756348	255.300000
814.791626	252.800000
814.826843	250.800000
814.862122	252.100000
814.897400	247.700000
814.932678	251.600000
814.967957	251.300000
815.003235	250.800000
815.038452	245.300000
815.073730	244.400000
815.108948	254.800000
815.144226	250.300000
815.179504	255.000000
815.214722	239.900000
815.250000	240.700000
815.285278	247.600000
815.320496	242.100000
815.355774	244.200000
815.391052	246.600000
815.426270	244.300000
815.461487	242.600000
815.496765	239.100000
815.531982	236.000000
815.567261	242.300000
815.602539	248.800000
815.637695	242.900000
815.672974	243.600000
815.708191	244.400000
815.743408	247.500000
815.778687	238.700000
815.813904	251.400000
815.849121	232.000000
815.884399	233.700000
815.919556	235.200000
815.954834	235.900000
815.990051	239.000000
816.025269	243.300000
816.060486	233.400000
816.095703	232.100000
816.130920	236.000000
816.166199	230.300000
816.201416	236.200000
816.236572	241.000000
816.271851	231.700000
816.307007	238.000000
816.342224	227.900000
816.377441	232.900000
816.412659	224.400000
816.447876	234.800000
816.483093	231.800000
816.518250	230.500000
816.553467	227.300000
816.588745	233.800000
816.623901	225.000000
816.659119	220.300000
816.694275	226.100000
816.729492	225.400000
816.764709	259.100000
816.799927	220.800000
816.835083	226.500000
816.870300	220.100000
816.905457	223.900000
816.940674	226.000000
816.975830	221.300000
817.010986	219.100000
817.046204	220.800000
817.081421	217.800000
817.116577	217.400000
817.151733	225.900000
817.186951	226.200000
817.222107	221.600000
817.257324	224.900000
817.292419	222.100000
817.327637	214.400000
817.362854	219.000000
817.398010	214.400000
817.433167	216.600000
817.468323	216.200000
817.503479	216.500000
817.538635	226.600000
817.573853	218.700000
817.608948	217.900000
817.644165	214.000000
817.679321	212.700000
817.714478	212.900000
817.749634	216.300000
817.784790	226.700000
817.819946	222.300000
817.855103	206.200000
817.890198	214.100000
817.925415	207.000000
817.960571	217.200000
817.995667	214.600000
818.030823	217.200000
818.066040	209.700000
818.101135	213.800000
818.136292	212.300000
818.171448	207.000000
818.206543	209.800000
818.241699	214.600000
818.276855	212.000000
818.311951	210.200000
818.347107	206.800000
818.382263	214.500000
818.417358	217.800000
818.452515	217.200000
818.487610	216.900000
818.522766	206.500000
818.557922	218.400000
818.593018	213.400000
818.628113	210.700000
818.663269	206.800000
818.698364	210.200000
818.733521	207.500000
818.768677	211.200000
818.803711	204.300000
818.838867	205.100000
818.874023	206.400000
818.909058	203.400000
818.944214	201.000000
818.979370	210.700000
819.014404	207.900000
819.049561	203.400000
819.084595	209.900000
819.119751	199.100000
819.154846	208.000000
819.189941	204.600000
819.225037	199.300000
819.260193	197.000000
819.295227	198.500000
819.330322	195.400000
819.365479	193.200000
819.400513	227.000000
819.435608	192.600000
819.470764	192.100000
819.505798	193.200000
819.540894	198.200000
819.575989	196.100000
819.611084	203.800000
819.646179	204.800000
819.681213	200.700000
819.716309	195.900000
819.751404	196.100000
819.786438	200.900000
819.821533	193.800000
819.856628	199.000000
819.891663	202.000000
819.926758	207.200000
819.961853	203.200000
819.996887	194.200000
820.031982	201.000000
820.067017	196.400000
820.102112	225.200000
820.137207	194.900000
820.172302	210.300000
820.207275	192.700000
820.242371	193.400000
820.277405	193.000000
820.312500	196.200000
820.347534	198.300000
820.382568	201.200000
820.417664	193.100000
820.452759	193.800000
820.487732	192.200000
820.522827	194.600000
820.557861	191.100000
820.592896	192.600000
820.627930	194.300000
820.662964	191.800000
820.698059	196.400000
820.733093	194.000000
820.768127	197.700000
820.803162	194.700000
820.838196	191.800000
820.873230	193.900000
820.908264	195.500000
820.943298	190.500000
820.978333	198.300000
821.013367	195.200000
821.048401	197.200000
821.083435	199.700000
821.118469	185.300000
821.153503	198.900000
821.188477	194.900000
821.223511	187.600000
821.258484	194.000000
821.293579	194.600000
821.328613	187.400000
821.363647	191.000000
821.398621	187.100000
821.433655	188.800000
821.468628	206.000000
821.503662	190.200000
821.538696	194.600000
821.573669	186.100000
821.608704	195.200000
821.643677	188.700000
821.678650	194.200000
821.713684	200.800000
821.748718	189.700000
821.783691	190.900000
821.818726	193.900000
821.853638	194.000000
821.888672	190.600000
821.923706	192.900000
821.958618	190.000000
821.993652	189.200000
822.028687	196.200000
822.063599	198.300000
822.098633	192.700000
822.133667	187.300000
822.168579	189.100000
822.203613	193.500000
822.238586	188.800000
822.273560	192.900000
822.308533	189.400000
822.343567	189.100000
822.378479	189.900000
822.413452	190.300000
822.448425	187.300000
822.483398	195.900000
822.518372	196.400000
822.553345	188.100000
822.588318	199.300000
822.623291	190.100000
822.658203	188.700000
822.693237	192.700000
822.728210	186.200000
822.763123	191.600000
822.798096	186.700000
822.833069	191.600000
822.867981	190.900000
822.902954	193.800000
822.937927	194.800000
822.972900	202.000000
823.007874	184.000000
823.042725	195.100000
823.077698	203.300000
823.112671	187.700000
823.147583	188.600000
823.182556	192.600000
823.217529	195.000000
823.252441	188.900000
823.287415	202.200000
823.322388	194.100000
823.357239	189.900000
823.392212	198.600000
823.427185	195.900000
823.462097	188.300000
823.497009	193.600000
823.531982	189.000000
823.566895	191.100000
823.601807	186.400000
823.636719	188.300000
823.671631	194.300000
823.706604	189.300000
823.741455	194.300000
823.776428	184.600000
823.811340	195.800000
823.846252	196.100000
823.881165	198.500000
823.916138	192.400000
823.950989	199.300000
823.985901	189.200000
824.020813	191.900000
824.055725	189.600000
824.090637	186.300000
824.125610	192.800000
824.160461	191.600000
824.195374	193.800000
824.230225	196.300000
824.265198	183.900000
824.300110	188.000000
824.334961	201.500000
824.369873	182.500000
824.404785	193.100000
824.439636	197.300000
824.474548	182.000000
824.509460	180.400000
824.544312	197.100000
824.579224	193.500000
824.614075	193.600000
824.648987	189.500000
824.683899	190.600000
824.718811	187.200000
824.753662	196.800000
824.788574	195.900000
824.823364	192.700000
824.858276	188.200000
824.893188	195.700000
824.928040	195.700000
824.962952	193.500000
824.997803	193.900000
825.032654	192.100000
825.067566	192.300000
825.102417	188.100000
825.137268	189.600000
825.172119	191.600000
825.206970	186.800000
825.241882	187.900000
825.276733	187.000000
825.311646	187.700000
825.346436	185.200000
825.381348	185.500000
825.416138	188.700000
825.450989	185.300000
825.485901	181.000000
825.520691	181.400000
825.555542	183.600000
825.590454	189.400000
825.625244	181.200000
825.660095	196.100000
825.695007	192.800000
825.729797	187.600000
825.764648	185.600000
825.799438	187.300000
825.834290	189.100000
825.869202	182.300000
825.903992	190.600000
825.938843	184.900000
825.973694	182.000000
826.008484	200.000000
826.043335	185.200000
826.078186	181.200000
826.112976	195.000000
826.147827	193.000000
826.182678	198.000000
826.217468	179.800000
826.252319	192.200000
826.287109	182.800000
826.321899	195.600000
826.356750	186.300000
826.391541	182.100000
826.426392	192.900000
826.461182	187.000000
826.495972	180.700000
826.530823	179.400000
826.565613	187.900000
826.600403	182.100000
826.635254	189.400000
826.670044	178.800000
826.704834	178.700000
826.739685	182.900000
826.774475	186.900000
826.809265	187.400000
826.844055	184.900000
826.878906	191.900000
826.913635	187.700000
826.948425	187.500000
826.983215	187.700000
827.018005	191.700000
827.052856	184.300000
827.087585	190.100000
827.122375	179.000000
827.157227	186.100000
827.191956	199.000000
827.226746	183.300000
827.261536	190.300000
827.296265	181.800000
827.331116	184.300000
827.365906	191.300000
827.400635	183.200000
827.435425	177.900000
827.470215	192.500000
827.504944	186.300000
827.539734	190.400000
827.574463	185.700000
827.609253	193.800000
827.644043	186.600000
827.678772	191.100000
827.713562	185.700000
827.748352	185.300000
827.783081	183.300000
827.817871	186.600000
827.852600	182.500000
827.887329	189.000000
827.922119	177.600000
827.956848	189.700000
827.991638	199.900000
828.026367	188.300000
828.061157	188.100000
828.095886	186.600000
828.130615	202.100000
828.165344	178.400000
828.200073	186.900000
828.234863	183.500000
828.269592	185.600000
828.304321	192.100000
828.339111	187.700000
828.373779	182.600000
828.408569	191.200000
828.443298	191.600000
828.477966	183.900000
828.512756	187.500000
828.547424	180.600000
828.582214	184.300000
828.616943	183.000000
828.651672	184.300000
828.686340	189.400000
828.721130	184.700000
828.755798	185.600000
828.790527	186.100000
828.825256	187.700000
828.859924	186.800000
828.894714	192.000000
828.929443	194.200000
828.964111	182.600000
828.998840	184.500000
829.033569	184.200000
829.068237	185.100000
829.102966	183.700000
829.137634	188.800000
829.172363	186.900000
829.207092	188.300000
829.241821	183.500000
829.276489	178.500000
829.311157	186.500000
829.345825	185.300000
829.380554	191.400000
829.415283	182.500000
829.449951	180.100000
829.484619	194.300000
829.519348	193.100000
829.554016	185.700000
829.588745	185.400000
829.623413	180.200000
829.658081	197.800000
829.692749	179.900000
829.727417	192.100000
829.762146	188.800000
829.796814	183.200000
829.831482	184.000000
829.866150	187.700000
829.900879	184.000000
829.935486	188.900000
829.970154	183.800000
830.004883	197.600000
830.039490	186.300000
830.074219	183.000000
830.108887	186.200000
830.143494	186.200000
830.178223	179.700000
830.212891	185.400000
830.247498	186.000000
830.282166	193.800000
830.316772	191.300000
830.351501	182.500000
830.386169	184.700000
830.420776	184.400000
830.455444	185.600000
830.490112	183.300000
830.524719	177.800000
830.559387	188.800000
830.594055	188.500000
830.628662	186.200000
830.663330	186.500000
830.697998	196.100000
830.732605	184.900000
830.767273	187.800000
830.801941	185.600000
830.836487	195.200000
830.871155	188.900000
830.905762	188.100000
830.940430	180.000000
830.975098	183.800000
831.009644	187.200000
831.044312	194.500000
831.078979	188.100000
831.113525	179.500000
831.148193	185.600000
831.182861	183.600000
831.217407	189.500000
831.252075	203.400000
831.286621	182.800000
831.321289	183.000000
831.355896	186.000000
831.390564	193.600000
831.425110	187.300000
831.459778	193.700000
831.494324	199.600000
831.528931	190.600000
831.563599	190.300000
831.598145	180.400000
831.632751	186.400000
831.667419	184.900000
831.701965	189.200000
831.736572	191.300000
831.771179	180.400000
831.805786	183.100000
831.840393	191.500000
831.874939	179.400000
831.909546	192.100000
831.944153	177.400000
831.978760	185.600000
832.013306	181.300000
832.047913	191.800000
832.082458	194.600000
832.117065	183.300000
832.151672	193.800000
832.186218	187.400000
832.220825	189.000000
832.255432	178.800000
832.289978	182.700000
832.324585	189.100000
832.359192	189.100000
832.393677	184.200000
832.428284	187.100000
832.462830	185.400000
832.497437	184.300000
832.531982	190.100000
832.566589	184.300000
832.601135	187.000000
832.635681	177.000000
832.670227	187.000000
832.704773	192.600000
832.739380	188.900000
832.773926	186.500000
832.808472	181.600000
832.843079	187.100000
832.877563	189.700000
832.912170	183.000000
832.946716	179.700000
832.981201	192.800000
833.015808	189.100000
833.050293	185.900000
833.084839	182.700000
833.119446	184.100000
833.153992	191.700000
833.188477	186.500000
833.223022	182.100000
833.257568	188.500000
833.292114	191.000000
833.326660	198.400000
833.361145	183.200000
833.395691	179.900000
833.430237	184.000000
833.464783	190.000000
833.499329	183.200000
833.533875	182.000000
833.568359	189.200000
833.602905	191.500000
833.637390	190.300000
833.671875	183.100000
833.706421	185.500000
833.740906	182.300000
833.775452	175.800000
833.809998	184.700000
833.844482	193.700000
833.879028	184.700000
833.913513	183.900000
833.947998	188.900000
833.982544	180.700000
834.017090	184.300000
834.051514	174.200000
834.086060	189.800000
834.120544	186.100000
834.155029	187.400000
834.189575	184.900000
834.223999	187.600000
834.258545	187.300000
834.293030	187.700000
834.327515	186.700000
834.362000	183.800000
834.396545	190.100000
834.430969	186.300000
834.465454	189.000000
834.500000	178.900000
834.534424	188.100000
834.568970	177.300000
834.603455	178.000000
834.637878	182.800000
834.672363	186.500000
834.706909	187.500000
834.741333	186.800000
834.775818	179.000000
834.810242	182.600000
834.844727	186.800000
834.879211	184.600000
834.913635	186.600000
834.948181	188.000000
834.982666	187.400000
835.017090	185.200000
835.051575	187.600000
835.086060	184.000000
835.120483	190.000000
835.154907	190.900000
835.189331	186.500000
835.223816	190.100000
835.258301	180.400000
835.292786	180.600000
835.327209	190.000000
835.361694	183.200000
835.396057	183.700000
835.430542	190.200000
835.465027	186.500000
835.499390	181.000000
835.533875	206.200000
835.568359	183.500000
835.602722	178.400000
835.637207	188.500000
835.671692	180.800000
835.706055	203.000000
835.740540	186.600000
835.774902	190.300000
835.809387	186.900000
835.843811	180.400000
835.878235	192.600000
835.912659	180.600000
835.947083	183.200000
835.981506	185.100000
836.015930	178.200000
836.050354	191.200000
836.084778	195.100000
836.119202	191.300000
836.153625	199.200000
836.187988	183.500000
836.222473	182.600000
836.256897	188.200000
836.291260	185.300000
836.325684	188.900000
836.360046	184.700000
836.394470	185.400000
836.428894	194.400000
836.463318	182.900000
836.497681	191.500000
836.532104	194.100000
836.566467	188.300000
836.600891	184.000000
836.635315	191.500000
836.669678	188.600000
836.704102	190.500000
836.738525	188.400000
836.772888	177.500000
836.807251	184.800000
836.841675	188.800000
836.876038	181.000000
836.910461	183.600000
836.944763	191.500000
836.979187	182.600000
837.013611	192.900000
837.047974	180.900000
837.082336	197.400000
837.116699	189.800000
837.151062	186.000000
837.185486	179.700000
837.219849	183.300000
837.254211	190.500000
837.288574	185.700000
837.322937	182.300000
837.357300	174.500000
837.391663	198.600000
837.426086	190.400000
837.460388	186.800000
837.494751	190.600000
837.529114	184.800000
837.563477	191.900000
837.597839	189.700000
837.632141	186.100000
837.666565	183.300000
837.700928	188.200000
837.735229	187.500000
837.769592	189.400000
837.803955	191.500000
837.838257	183.300000
837.872620	183.100000
837.906982	192.300000
837.941284	186.100000
837.975647	187.500000
838.010010	193.000000
838.044312	184.600000
838.078674	183.300000
838.112976	187.400000
838.147339	191.000000
838.181702	186.200000
838.216003	195.700000
838.250366	187.700000
838.284668	188.800000
838.318970	178.600000
838.353333	185.900000
838.387634	184.800000
838.421936	186.800000
838.456299	188.000000
838.490601	193.900000
838.524902	190.400000
838.559265	191.400000
838.593567	191.000000
838.627869	181.200000
838.662170	189.600000
838.696472	179.500000
838.730774	184.200000
838.765137	191.800000
838.799377	172.300000
838.833740	187.300000
838.868042	191.800000
838.902283	178.100000
838.936646	194.000000
838.970947	188.800000
839.005188	192.900000
839.039551	180.700000
839.073792	193.500000
839.108093	184.000000
839.142395	197.000000
839.176697	179.800000
839.210937	188.000000
839.245300	196.200000
839.279541	180.100000
839.313843	184.300000
839.348145	190.000000
839.382385	190.900000
839.416687	190.600000
839.450989	189.600000
839.485229	186.000000
839.519531	181.900000
839.553833	192.700000
839.588013	187.700000
839.622314	187.700000
839.656555	189.000000
839.690857	186.800000
839.725159	180.400000
839.759460	185.500000
839.793640	184.100000
839.827942	185.800000
839.862183	182.200000
839.896423	188.100000
839.930725	196.200000
839.964966	194.400000
839.999207	194.500000
840.033508	193.500000
840.067688	183.500000
840.101990	195.600000
840.136230	186.900000
840.170471	195.800000
840.204712	184.100000
840.238953	183.200000
840.273193	188.100000
840.307434	189.500000
840.341736	182.300000
840.375916	181.200000
840.410217	183.500000
840.444397	191.200000
840.478638	190.600000
840.512878	192.000000
840.547119	187.800000
840.581360	189.900000
840.615601	195.300000
840.649780	197.100000
840.684021	186.700000
840.718262	193.700000
840.752441	193.000000
840.786682	187.800000
840.820862	189.500000
840.855103	195.000000
840.889343	188.200000
840.923584	191.500000
840.957764	189.400000
840.992004	188.100000
841.026184	200.200000
841.060425	186.500000
841.094666	183.300000
841.128845	189.800000
841.163025	188.400000
841.197266	187.600000
841.231445	188.700000
841.265686	187.600000
841.299866	183.500000
841.334045	195.100000
841.368286	186.700000
841.402405	194.000000
841.436646	192.300000
841.470825	185.000000
841.505005	186.500000
841.539185	183.100000
841.573425	184.400000
841.607544	188.100000
841.641785	188.300000
841.675964	181.800000
841.710144	187.400000
841.744324	182.200000
841.778503	186.100000
841.812683	182.800000
841.846863	194.900000
841.881042	192.900000
841.915222	183.900000
841.949402	202.200000
841.983521	179.300000
842.017700	186.300000
842.051880	188.600000
842.086060	189.500000
842.120239	188.100000
842.154419	183.900000
842.188538	186.800000
842.222717	185.000000
842.256897	196.500000
842.291016	186.200000
842.325195	188.600000
842.359375	198.400000
842.393494	193.500000
842.427673	187.100000
842.461853	189.800000
842.495911	196.000000
842.530090	188.600000
842.564209	186.200000
842.598389	188.100000
842.632568	188.600000
842.666626	191.800000
842.700806	185.200000
842.734985	185.100000
842.769043	189.600000
842.803223	184.800000
842.837402	184.600000
842.871460	184.900000
842.905640	196.100000
842.939697	183.000000
842.973877	188.100000
843.007996	193.800000
843.042175	197.900000
843.076233	183.600000
843.110413	190.900000
843.144470	194.600000
843.178589	191.700000
843.212769	183.100000
843.246826	191.400000
843.280945	185.100000
843.315125	187.200000
843.349182	184.400000
843.383301	193.400000
843.417419	200.300000
843.451538	188.200000
843.485657	186.700000
843.519714	187.000000
843.553833	189.000000
843.587952	187.600000
843.622070	182.800000
843.656128	190.500000
843.690247	185.400000
843.724304	186.500000
843.758423	190.300000
843.792542	186.500000
843.826599	187.500000
843.860718	185.800000
843.894836	180.900000
843.928894	188.600000
843.963013	188.500000
843.997070	183.500000
844.031128	181.700000
844.065247	192.700000
844.099304	192.000000
844.133362	188.900000
844.167480	191.300000
844.201599	194.800000
844.235596	190.000000
844.269714	188.300000
844.303711	189.300000
844.337830	180.500000
844.371948	190.800000
844.405945	187.900000
844.440063	182.600000
844.474121	201.300000
844.508118	186.100000
844.542236	185.100000
844.576294	185.900000
844.610352	183.300000
844.644409	187.300000
844.678406	178.200000
844.712524	192.400000
844.746582	192.800000
844.780640	187.000000
844.814636	187.400000
844.848755	198.600000
844.882751	184.500000
844.916809	192.600000
844.950867	188.900000
844.984863	196.000000
845.018921	185.800000
845.052979	183.500000
845.086975	188.000000
845.121033	183.000000
845.155090	183.600000
845.189087	194.400000
845.223145	184.900000
845.257141	187.400000
845.291199	192.100000
845.325256	195.500000
845.359253	188.900000
845.393250	199.300000
845.427307	185.800000
845.461304	190.400000
845.495361	189.100000
845.529358	199.000000
845.563354	186.200000
845.597412	183.800000
845.631409	197.200000
845.665405	194.700000
845.699463	193.300000
845.733459	185.300000
845.767456	196.500000
845.801453	186.300000
845.835449	194.700000
845.869446	191.700000
845.903503	192.400000
845.937439	183.700000
845.971497	194.600000
846.005493	180.700000
846.039429	192.300000
846.073486	197.000000
846.107483	187.000000
846.141418	187.700000
846.175476	187.800000
846.209473	194.500000
846.243408	185.300000
846.277405	188.900000
846.311401	184.200000
846.345337	187.900000
846.379395	192.700000
846.413330	184.300000
846.447327	196.900000
846.481323	183.100000
846.515259	185.600000
846.549255	187.000000
846.583252	189.100000
846.617187	182.100000
846.651184	191.100000
846.685120	185.700000
846.719055	196.200000
846.753052	192.400000
846.786987	192.200000
846.820984	182.700000
846.854980	195.500000
846.888916	182.800000
846.922852	190.400000
846.956848	196.400000
846.990723	184.500000
847.024719	189.400000
847.058716	187.000000
847.092590	195.300000
847.126587	189.200000
847.160522	186.300000
847.194458	192.100000
847.228455	184.000000
847.262390	181.900000
847.296265	186.300000
847.330261	192.900000
847.364136	185.900000
847.398132	184.100000
847.432068	188.600000
847.466003	187.500000
847.499939	186.900000
847.533875	191.100000
847.567749	187.000000
847.601746	185.400000
847.635681	191.600000
847.669556	179.500000
847.703491	193.100000
847.737427	202.200000
847.771301	183.500000
847.805237	190.200000
847.839233	188.700000
847.873108	187.700000
847.907043	188.100000
847.940918	192.600000
847.974854	189.500000
848.008789	192.300000
848.042664	186.900000
848.076538	191.200000
848.110474	186.900000
848.144348	188.000000
848.178284	182.100000
848.212219	188.100000
848.246094	187.700000
848.279968	188.500000
848.313904	191.700000
848.347778	187.800000
848.381653	187.300000
848.415588	183.600000
848.449463	185.900000
848.483337	191.200000
848.517212	193.500000
848.551086	187.900000
848.585022	184.100000
848.618835	196.600000
848.652771	184.600000
848.686646	184.500000
848.720520	197.200000
848.754395	187.700000
848.788330	193.400000
848.822144	191.100000
848.856018	187.200000
848.889954	197.900000
848.923767	184.700000
848.957642	186.200000
848.991577	191.700000
849.025391	185.700000
849.059265	188.400000
849.093079	184.900000
849.126953	182.600000
849.160828	193.400000
849.194641	189.300000
849.228577	186.600000
849.262451	187.100000
849.296265	186.800000
849.330139	183.200000
849.364014	189.200000
849.397827	190.900000
849.431702	188.000000
849.465515	191.800000
849.499329	179.100000
849.533203	183.000000
849.567078	178.700000
849.600891	192.300000
849.634766	186.400000
849.668518	192.800000
849.702393	187.600000
849.736267	181.100000
849.770020	199.800000
849.803894	192.100000
849.837769	189.300000
849.871521	187.500000
849.905396	194.300000
849.939270	183.300000
849.973022	187.100000
850.006897	193.100000
850.040710	190.900000
850.074524	192.300000
850.108337	187.600000
850.142151	192.000000
850.175964	195.100000
850.209778	189.100000
850.243530	176.400000
850.277405	193.100000
850.311218	188.600000
850.344971	185.800000
850.378845	198.000000
850.412659	184.500000
850.446411	189.500000
850.480225	187.900000
850.514038	194.100000
850.547791	192.200000
850.581665	188.200000
850.615417	185.900000
850.649231	188.800000
850.683044	187.600000
850.716858	185.800000
850.750610	189.300000
850.784424	193.600000
850.818176	185.500000
850.851929	186.000000
850.885742	186.000000
850.919495	186.900000
850.953308	195.200000
850.987122	195.700000
851.020874	181.700000
851.054626	180.900000
851.088440	193.900000
851.122192	190.900000
851.156006	190.000000
851.189697	187.600000
851.223511	182.700000
851.257263	192.500000
851.291077	192.500000
851.324829	188.700000
851.358582	186.700000
851.392334	184.700000
851.426086	187.100000
851.459900	196.700000
851.493591	188.700000
851.527344	188.300000
851.561157	187.700000
851.594849	192.100000
851.628662	189.100000
851.662415	194.800000
851.696106	192.500000
851.729858	193.100000
851.763611	181.600000
851.797363	188.800000
851.831116	183.400000
851.864868	191.300000
851.898560	193.700000
851.932312	185.500000
851.966064	189.800000
851.999817	189.300000
852.033569	188.300000
852.067261	192.500000
852.101013	186.800000
852.134766	188.200000
852.168457	178.400000
852.202209	193.500000
852.235901	184.900000
852.269592	190.100000
852.303345	197.000000
852.337036	192.700000
852.370789	188.900000
852.404541	192.000000
852.438171	184.500000
852.471924	187.400000
852.505676	181.900000
852.539307	190.800000
852.573059	186.300000
852.606812	187.300000
852.640442	186.600000
852.674194	194.100000
852.707886	199.400000
852.741577	196.700000
852.775269	184.300000
852.809021	189.400000
852.842651	190.400000
852.876404	193.700000
852.910034	189.600000
852.943787	193.900000
852.977478	191.500000
853.011108	185.400000
853.044861	184.000000
853.078552	195.300000
853.112183	190.900000
853.145874	190.300000
853.179626	180.000000
853.213257	190.400000
853.246948	185.500000
853.280640	196.100000
853.314270	186.500000
853.347961	195.800000
853.381653	191.400000
853.415283	193.000000
853.448975	185.500000
853.482605	190.300000
853.516296	187.200000
853.549988	182.000000
853.583618	190.900000
853.617310	190.300000
853.651001	190.500000
853.684631	185.000000
853.718323	186.200000
853.751953	197.600000
853.785583	180.800000
853.819275	194.100000
853.852966	189.900000
853.886536	181.100000
853.920227	184.600000
853.953918	194.300000
853.987488	187.600000
854.021179	193.000000
854.054749	195.800000
854.088440	191.800000
854.122131	185.300000
854.155701	193.500000
854.189331	185.600000
854.223022	193.000000
854.256592	190.200000
854.290283	184.400000
854.323914	194.000000
854.357483	190.100000
854.391174	191.300000
854.424744	198.000000
854.458374	190.500000
854.492065	200.300000
854.525696	188.400000
854.559265	195.300000
854.592896	200.200000
854.626465	188.800000
854.660095	189.500000
854.693787	189.300000
854.727356	188.000000
854.760986	191.800000
854.794617	190.000000
854.828186	186.700000
854.861816	192.000000
854.895447	189.900000
854.929016	190.800000
854.962585	191.500000
854.996155	197.900000
855.029785	189.300000
855.063416	191.900000
855.097046	192.300000
855.130615	183.700000
855.164185	195.300000
855.197754	188.600000
855.231384	191.200000
855.264954	188.200000
855.298523	192.100000
855.332153	189.900000
855.365723	198.300000
855.399292	184.900000
855.432922	187.600000
855.466492	191.800000
855.500061	182.600000
855.533630	184.600000
855.567200	192.500000
855.600769	195.000000
855.634338	193.600000
855.667969	190.300000
855.701477	183.900000
855.735046	185.300000
855.768616	180.300000
855.802185	191.000000
855.835754	203.500000
855.869324	181.400000
855.902893	188.200000
855.936401	194.900000
855.969971	189.600000
856.003540	181.600000
856.037109	193.500000
856.070618	188.200000
856.104187	183.200000
856.137695	186.100000
856.171265	179.100000
856.204834	188.600000
856.238403	194.500000
856.271912	186.300000
856.305481	191.100000
856.338989	180.400000
856.372559	192.900000
856.406128	190.100000
856.439636	193.400000
856.473145	185.100000
856.506653	195.700000
856.540222	188.200000
856.573792	196.000000
856.607300	192.400000
856.640808	183.500000
856.674377	187.400000
856.707825	218.100000
856.741394	193.000000
856.774902	185.200000
856.808472	179.100000
856.841980	191.200000
856.875488	196.300000
856.908936	181.300000
856.942505	186.100000
856.976013	187.700000
857.009521	183.500000
857.043030	189.900000
857.076477	188.600000
857.110046	192.500000
857.143555	190.300000
857.177063	194.100000
857.210571	187.000000
857.244080	183.000000
857.277527	192.100000
857.311035	189.500000
857.344543	193.800000
857.378052	188.600000
857.411499	193.700000
857.445068	199.200000
857.478516	188.300000
857.512024	184.900000
857.545532	186.500000
857.578979	190.100000
857.612427	189.800000
857.645874	186.300000
857.679382	191.300000
857.712891	192.800000
857.746399	189.100000
857.779846	195.100000
857.813354	194.200000
857.846741	188.700000
857.880249	185.400000
857.913757	190.200000
857.947266	190.600000
857.980652	192.500000
858.014160	186.600000
858.047546	186.600000
858.081055	187.800000
858.114563	197.600000
858.147949	183.000000
858.181458	191.300000
858.214844	189.300000
858.248352	179.700000
858.281799	194.400000
858.315308	200.900000
858.348694	193.000000
858.382141	196.500000
858.415588	192.400000
858.449036	192.200000
858.482483	191.000000
858.515930	184.600000
858.549377	189.400000
858.582825	194.900000
858.616211	191.600000
858.649658	190.200000
858.683105	183.100000
858.716553	185.500000
858.750000	183.300000
858.783386	187.300000
858.816833	181.300000
858.850281	190.200000
858.883728	191.300000
858.917114	187.400000
858.950562	196.000000
858.983948	198.400000
859.017395	194.300000
859.050781	187.200000
859.084167	184.100000
859.117615	183.700000
859.151062	191.000000
859.184448	185.700000
859.217834	187.600000
859.251282	187.500000
859.284668	184.600000
859.318054	179.500000
859.351440	187.500000
859.384888	196.300000
859.418274	182.000000
859.451721	180.300000
859.485046	191.700000
859.518494	190.700000
859.551819	184.400000
859.585266	189.400000
859.618652	191.500000
859.652039	182.500000
859.685425	184.300000
859.718811	182.100000
859.752197	177.100000
859.785583	195.400000
859.819031	195.800000
859.852356	191.500000
859.885742	184.400000
859.919067	188.000000
859.952454	186.700000
859.985901	192.900000
860.019287	185.900000
860.052612	0.000000
860.085999	0.000000
860.119324	0.000000
860.152710	0.000000
860.186096	0.000000
860.219421	0.000000
860.252808	0.000000
860.286133	0.000000
860.319519	0.000000
860.352905	0.000000
860.386292	0.000000
860.419617	0.000000
860.452942	0.000000
860.486267	0.000000
860.519653	0.000000
860.553040	0.000000
860.586365	0.000000
860.619690	0.000000
860.653076	0.000000
860.686340	0.000000
860.719727	0.000000
860.753113	0.000000
860.786377	0.000000
860.819763	0.000000
860.853027	0.000000
860.886414	0.000000
860.919739	0.000000
860.953125	0.000000
860.986389	0.000000
861.019714	0.000000
861.053040	0.000000
861.086365	0.000000
861.119690	0.000000
861.153076	0.000000
861.186340	0.000000
861.219666	0.000000
861.252930	0.000000
861.286316	0.000000
861.319641	0.000000
861.352905	0.000000
861.386230	0.000000
861.419495	0.000000
861.452820	0.000000
861.486145	0.000000
861.519470	0.000000
861.552734	0.000000
861.586060	0.000000
861.619324	0.000000
861.652649	0.000000
861.685974	0.000000
861.719238	0.000000
861.752563	0.000000
861.785828	0.000000
861.819092	0.000000
861.852417	0.000000
861.885742	0.000000
861.918945	0.000000
861.952271	0.000000
861.985535	0.000000
862.018799	0.000000
862.052124	0.000000
862.085449	0.000000
862.118652	0.000000
862.151978	0.000000
862.185181	0.000000
862.218506	0.000000
862.251770	0.000000
862.285034	0.000000
862.318298	0.000000
862.351562	0.000000
862.384827	0.000000
862.418091	0.000000
862.451355	0.000000
862.484619	0.000000
862.517883	0.000000
862.551086	0.000000
862.584351	0.000000
862.617676	0.000000
862.650940	0.000000
862.684143	0.000000
862.717407	0.000000
862.750610	0.000000
862.783875	0.000000
862.817139	0.000000
862.850342	0.000000
862.883606	0.000000
862.916870	0.000000
862.950073	0.000000
862.983337	0.000000
863.016602	0.000000
863.049805	0.000000
863.083069	0.000000
863.116211	0.000000
863.149475	0.000000
863.182739	0.000000
863.216003	0.000000
863.249146	0.000000
863.282410	0.000000
863.315613	0.000000
863.348816	0.000000
863.382080	0.000000
863.415222	0.000000
863.448486	0.000000
863.481689	0.000000
863.514893	0.000000
863.548157	0.000000
863.581360	0.000000
863.614502	0.000000
863.647766	0.000000
863.680908	0.000000
863.714172	0.000000
863.747375	0.000000
863.780579	0.000000
863.813721	0.000000
863.846985	0.000000
863.880127	0.000000
863.913330	0.000000
863.946533	0.000000
863.979675	0.000000
864.012939	0.000000
