Model Number: SPM-001-M   
Serial Number: 10090201
Firmware Version: 004.17.6
Exposure Time: 500000.000000us
Data Taken on: 03-03-2021 09:48:49.169
Wavelength	Amplitude
733.770752	0.000000
733.808716	0.000000
733.846619	0.000000
733.884583	0.000000
733.922546	0.000000
733.960449	0.000000
733.998413	0.000000
734.036377	0.000000
734.074219	0.000000
734.112183	0.000000
734.150085	0.000000
734.188049	0.000000
734.226013	0.000000
734.263916	0.000000
734.301819	0.000000
734.339783	0.000000
734.377686	0.000000
734.415588	0.000000
734.453552	0.000000
734.491455	0.000000
734.529419	0.000000
734.567322	0.000000
734.605225	0.000000
734.643127	0.000000
734.681091	0.000000
734.718994	0.000000
734.756897	0.000000
734.794800	0.000000
734.832703	0.000000
734.870667	0.000000
734.908508	0.000000
734.946472	0.000000
734.984375	0.000000
735.022278	0.000000
735.060181	0.000000
735.098083	0.000000
735.135986	0.000000
735.173889	0.000000
735.211792	0.000000
735.249695	0.000000
735.287598	0.000000
735.325439	0.000000
735.363403	0.000000
735.401306	0.000000
735.439148	0.000000
735.477051	0.000000
735.515015	0.000000
735.552856	0.000000
735.590759	0.000000
735.628662	0.000000
735.666504	0.000000
735.704407	0.000000
735.742310	0.000000
735.780212	0.000000
735.818115	0.000000
735.856018	0.000000
735.893860	0.000000
735.931763	0.000000
735.969604	0.000000
736.007507	0.000000
736.045410	0.000000
736.083252	0.000000
736.121094	0.000000
736.158997	0.000000
736.196838	0.000000
736.234741	0.000000
736.272644	0.000000
736.310486	0.000000
736.348389	0.000000
736.386230	0.000000
736.424072	0.000000
736.461975	0.000000
736.499878	0.000000
736.537720	0.000000
736.575562	0.000000
736.613403	0.000000
736.651306	0.000000
736.689148	0.000000
736.726990	0.000000
736.764893	0.000000
736.802734	0.000000
736.840576	0.000000
736.878418	0.000000
736.916321	0.000000
736.954102	0.000000
736.992004	0.000000
737.029846	0.000000
737.067688	0.000000
737.105530	0.000000
737.143372	0.000000
737.181213	0.000000
737.219116	0.000000
737.256897	0.000000
737.294739	0.000000
737.332642	0.000000
737.370422	0.000000
737.408325	0.000000
737.446167	0.000000
737.483948	0.000000
737.521790	0.000000
737.559692	0.000000
737.597473	0.000000
737.635315	0.000000
737.673157	0.000000
737.710999	0.000000
737.748840	0.000000
737.786621	0.000000
737.824463	0.000000
737.862305	0.000000
737.900085	0.000000
737.937927	0.000000
737.975769	0.000000
738.013550	0.000000
738.051392	0.000000
738.089233	0.000000
738.127014	0.000000
738.164856	0.000000
738.202698	0.000000
738.240479	0.000000
738.278320	0.000000
738.316162	0.000000
738.353943	0.000000
738.391785	0.000000
738.429565	0.000000
738.467407	0.000000
738.505188	0.000000
738.542969	0.000000
738.580811	0.000000
738.618652	0.000000
738.656372	0.000000
738.694214	0.000000
738.732056	0.000000
738.769836	0.000000
738.807617	0.000000
738.845459	0.000000
738.883240	0.000000
738.921021	0.000000
738.958862	0.000000
738.996582	0.000000
739.034424	0.000000
739.072205	0.000000
739.109985	0.000000
739.147827	0.000000
739.185547	0.000000
739.223389	0.000000
739.261169	0.000000
739.298889	0.000000
739.336731	0.000000
739.374512	0.000000
739.412292	0.000000
739.450073	0.000000
739.487854	0.000000
739.525635	0.000000
739.563416	0.000000
739.601135	0.000000
739.638977	0.000000
739.676758	0.000000
739.714478	0.000000
739.752258	0.000000
739.790100	0.000000
739.827820	0.000000
739.865601	0.000000
739.903381	0.000000
739.941101	0.000000
739.978882	189.400000
740.016724	186.400000
740.054443	190.000000
740.092224	183.700000
740.130005	182.800000
740.167725	183.300000
740.205505	181.600000
740.243225	193.000000
740.281006	187.100000
740.318787	180.800000
740.356506	190.800000
740.394287	192.200000
740.432068	182.100000
740.469727	181.300000
740.507507	189.100000
740.545288	185.600000
740.583008	187.700000
740.620789	188.800000
740.658569	177.300000
740.696228	185.100000
740.734009	190.500000
740.771790	174.800000
740.809509	189.000000
740.847229	180.600000
740.884949	182.400000
740.922729	177.700000
740.960449	183.800000
740.998169	181.000000
741.035950	180.600000
741.073669	186.700000
741.111389	184.800000
741.149170	194.900000
741.186890	195.700000
741.224609	190.400000
741.262329	188.000000
741.300110	195.000000
741.337769	180.700000
741.375549	180.900000
741.413208	187.900000
741.450989	182.200000
741.488708	183.700000
741.526367	183.400000
741.564148	189.500000
741.601868	188.400000
741.639526	186.200000
741.677307	187.600000
741.715027	189.800000
741.752686	181.500000
741.790466	194.500000
741.828186	188.100000
741.865845	181.400000
741.903564	176.800000
741.941345	186.500000
741.979004	181.500000
742.016724	189.500000
742.054382	184.900000
742.092102	191.600000
742.129822	178.700000
742.167480	184.700000
742.205200	183.000000
742.242920	189.100000
742.280640	189.900000
742.318359	183.400000
742.356079	184.200000
742.393738	190.400000
742.431396	183.900000
742.469116	190.200000
742.506775	175.800000
742.544495	189.400000
742.582214	188.500000
742.619873	185.800000
742.657593	193.200000
742.695251	190.600000
742.732971	184.500000
742.770630	187.800000
742.808289	185.500000
742.846008	185.800000
742.883728	187.500000
742.921326	186.400000
742.959045	182.700000
742.996765	183.800000
743.034424	184.500000
743.072083	182.100000
743.109802	186.200000
743.147400	178.800000
743.185120	187.800000
743.222839	185.300000
743.260437	191.200000
743.298157	187.600000
743.335754	179.300000
743.373474	183.900000
743.411133	179.200000
743.448792	184.500000
743.486450	186.500000
743.524170	178.300000
743.561768	187.800000
743.599487	191.400000
743.637146	196.900000
743.674744	184.100000
743.712463	183.700000
743.750122	185.300000
743.787720	189.200000
743.825439	181.600000
743.863037	184.900000
743.900696	185.100000
743.938416	212.400000
743.976013	184.400000
744.013672	195.300000
744.051331	189.900000
744.088928	195.700000
744.126587	190.400000
744.164307	189.200000
744.201904	181.100000
744.239563	190.700000
744.277222	187.300000
744.314819	185.800000
744.352478	192.500000
744.390137	189.400000
744.427734	188.500000
744.465393	184.300000
744.502991	182.200000
744.540649	189.300000
744.578308	186.200000
744.615906	181.000000
744.653564	175.300000
744.691223	188.900000
744.728821	178.300000
744.766418	184.700000
744.804077	189.100000
744.841675	183.900000
744.879333	179.800000
744.916992	184.600000
744.954529	184.400000
744.992187	190.600000
745.029785	184.300000
745.067444	182.600000
745.105042	187.500000
745.142639	188.100000
745.180298	194.800000
745.217896	183.600000
745.255493	184.700000
745.293152	190.400000
745.330750	191.100000
745.368347	194.000000
745.405945	189.600000
745.443604	185.500000
745.481140	191.300000
745.518799	185.200000
745.556396	192.300000
745.593994	189.600000
745.631592	187.400000
745.669189	181.400000
745.706787	187.700000
745.744385	180.900000
745.781982	190.200000
745.819580	183.300000
745.857178	185.700000
745.894775	185.900000
745.932373	188.100000
745.969971	187.600000
746.007568	179.600000
746.045166	194.200000
746.082764	192.400000
746.120300	188.600000
746.157898	191.100000
746.195557	185.200000
746.233093	181.000000
746.270691	188.000000
746.308228	188.400000
746.345825	191.400000
746.383423	190.400000
746.420959	180.700000
746.458557	182.600000
746.496155	183.300000
746.533691	185.800000
746.571289	181.700000
746.608887	185.800000
746.646423	185.300000
746.684021	187.100000
746.721619	182.400000
746.759155	188.000000
746.796753	179.500000
746.834351	178.700000
746.871826	182.400000
746.909424	192.400000
746.946960	187.100000
746.984558	184.600000
747.022156	183.600000
747.059631	194.200000
747.097229	188.200000
747.134827	182.600000
747.172363	194.500000
747.209900	188.200000
747.247498	182.600000
747.285034	193.200000
747.322571	193.700000
747.360168	185.100000
747.397644	179.700000
747.435242	189.200000
747.472778	193.900000
747.510315	184.300000
747.547913	184.300000
747.585388	191.600000
747.622925	186.100000
747.660522	177.000000
747.697998	183.800000
747.735596	186.700000
747.773132	182.900000
747.810669	185.100000
747.848206	191.200000
747.885742	180.700000
747.923279	181.600000
747.960815	186.500000
747.998352	188.100000
748.035889	190.800000
748.073425	190.400000
748.110901	184.000000
748.148437	182.800000
748.185974	185.600000
748.223511	195.600000
748.261047	186.900000
748.298584	188.800000
748.336060	184.400000
748.373596	188.400000
748.411133	204.800000
748.448608	183.600000
748.486145	187.700000
748.523682	194.400000
748.561218	191.700000
748.598755	186.900000
748.636292	188.900000
748.673706	183.000000
748.711243	192.800000
748.748718	189.000000
748.786255	185.500000
748.823792	186.500000
748.861267	180.700000
748.898804	187.200000
748.936340	189.100000
748.973816	185.100000
749.011292	191.000000
749.048828	186.800000
749.086304	189.900000
749.123840	196.600000
749.161316	182.200000
749.198792	195.000000
749.236328	194.600000
749.273743	186.600000
749.311279	184.600000
749.348816	189.900000
749.386230	188.300000
749.423767	174.900000
749.461304	189.100000
749.498718	187.000000
749.536255	193.800000
749.573730	197.700000
749.611206	193.900000
749.648682	185.100000
749.686218	187.400000
749.723633	189.800000
749.761169	185.900000
749.798645	181.800000
749.836060	186.000000
749.873596	182.000000
749.911011	188.200000
749.948547	191.600000
749.986023	185.700000
750.023437	185.400000
750.060913	181.700000
750.098450	179.200000
750.135864	187.300000
750.173340	185.400000
750.210815	192.300000
750.248291	181.000000
750.285767	186.700000
750.323242	192.100000
750.360657	188.300000
750.398132	180.600000
750.435608	189.700000
750.473022	182.500000
750.510498	181.900000
750.547974	181.400000
750.585449	183.500000
750.622925	176.100000
750.660339	195.200000
750.697815	187.800000
750.735291	185.300000
750.772644	188.700000
750.810120	188.600000
750.847595	188.700000
750.885010	181.900000
750.922485	194.600000
750.959961	184.900000
750.997375	193.800000
751.034851	190.800000
751.072266	191.600000
751.109680	177.900000
751.147156	193.200000
751.184570	188.200000
751.221985	188.300000
751.259460	178.600000
751.296875	187.600000
751.334290	186.900000
751.371765	190.900000
751.409180	189.700000
751.446594	193.900000
751.484070	189.000000
751.521423	188.400000
751.558899	187.700000
751.596375	194.900000
751.633728	191.900000
751.671204	200.000000
751.708618	181.600000
751.746033	188.600000
751.783447	181.200000
751.820801	184.100000
751.858276	188.900000
751.895691	188.100000
751.933105	183.900000
751.970520	182.500000
752.007935	184.000000
752.045349	191.800000
752.082764	184.600000
752.120178	185.400000
752.157532	182.200000
752.195007	183.900000
752.232422	188.500000
752.269775	190.700000
752.307190	187.900000
752.344543	182.000000
752.382019	182.900000
752.419434	184.000000
752.456787	187.900000
752.494202	190.300000
752.531616	187.700000
752.568970	190.900000
752.606384	187.100000
752.643799	187.400000
752.681152	195.600000
752.718567	189.800000
752.755981	179.100000
752.793335	190.000000
752.830750	177.500000
752.868164	191.900000
752.905518	182.800000
752.942932	190.300000
752.980225	180.800000
753.017639	191.000000
753.055054	185.200000
753.092407	188.600000
753.129822	192.600000
753.167175	196.700000
753.204529	187.000000
753.241943	183.900000
753.279358	181.100000
753.316650	190.300000
753.354065	190.700000
753.391479	190.300000
753.428772	196.000000
753.466187	188.600000
753.503479	182.300000
753.540894	184.100000
753.578308	180.800000
753.615601	180.300000
753.653015	187.200000
753.690369	185.500000
753.727722	184.100000
753.765076	178.600000
753.802490	181.900000
753.839783	177.500000
753.877136	184.700000
753.914551	199.900000
753.951843	182.700000
753.989258	188.800000
754.026611	187.900000
754.063904	186.800000
754.101257	183.000000
754.138611	179.700000
754.175964	187.800000
754.213318	196.200000
754.250610	180.400000
754.288025	183.100000
754.325378	181.200000
754.362671	190.800000
754.400024	184.600000
754.437378	196.500000
754.474670	196.300000
754.512085	182.300000
754.549438	187.600000
754.586731	184.600000
754.624084	184.400000
754.661438	181.800000
754.698730	194.400000
754.736084	183.700000
754.773376	183.500000
754.810730	190.300000
754.848083	184.000000
754.885315	191.800000
754.922668	178.300000
754.960022	180.300000
754.997314	189.900000
755.034668	187.500000
755.072021	186.200000
755.109253	184.000000
755.146606	193.300000
755.183960	185.200000
755.221252	193.600000
755.258545	191.500000
755.295898	190.700000
755.333191	193.800000
755.370544	188.900000
755.407776	186.300000
755.445129	185.200000
755.482422	191.500000
755.519714	182.200000
755.557068	181.200000
755.594360	177.700000
755.631653	192.400000
755.668945	193.000000
755.706299	189.100000
755.743530	197.200000
755.780884	195.000000
755.818176	192.400000
755.855408	193.700000
755.892761	188.000000
755.930054	188.000000
755.967346	188.100000
756.004639	190.500000
756.041870	187.200000
756.079224	192.200000
756.116516	181.800000
756.153748	189.600000
756.191040	193.900000
756.228394	189.300000
756.265625	183.200000
756.302917	188.700000
756.340210	182.000000
756.377441	191.400000
756.414795	194.400000
756.452087	186.800000
756.489319	181.100000
756.526611	190.400000
756.563843	188.800000
756.601135	197.100000
756.638428	195.100000
756.675659	186.100000
756.712952	190.700000
756.750244	191.600000
756.787476	188.800000
756.824768	194.900000
756.862061	186.400000
756.899292	235.200000
756.936584	193.500000
756.973816	199.600000
757.011047	199.900000
757.048340	189.700000
757.085632	188.800000
757.122864	203.600000
757.160156	187.000000
757.197327	190.600000
757.234619	194.600000
757.271912	186.500000
757.309082	194.100000
757.346375	185.700000
757.383667	195.300000
757.420837	191.000000
757.458130	191.100000
757.495422	188.700000
757.532593	192.200000
757.569885	182.100000
757.607117	187.600000
757.644348	192.000000
757.681580	204.400000
757.718811	179.200000
757.756042	191.100000
757.793335	186.000000
757.830505	193.500000
757.867798	185.900000
757.905029	187.100000
757.942200	192.400000
757.979492	188.400000
758.016724	189.500000
758.053894	188.500000
758.091187	208.100000
758.128418	190.000000
758.165588	188.700000
758.202820	201.600000
758.240112	187.700000
758.277283	200.800000
758.314514	191.000000
758.351685	189.000000
758.388916	200.900000
758.426147	198.600000
758.463379	201.400000
758.500610	194.300000
758.537842	191.600000
758.575012	197.200000
758.612244	187.900000
758.649475	206.000000
758.686646	185.900000
758.723877	199.000000
758.761108	200.900000
758.798279	193.600000
758.835510	195.900000
758.872742	200.200000
758.909851	196.100000
758.947083	197.400000
758.984253	195.600000
759.021484	198.600000
759.058716	199.900000
759.095886	197.500000
759.133057	194.200000
759.170288	197.500000
759.207458	192.500000
759.244690	203.800000
759.281860	205.300000
759.319031	193.300000
759.356262	195.300000
759.393433	194.300000
759.430603	194.900000
759.467773	193.500000
759.505005	203.200000
759.542175	200.500000
759.579346	196.700000
759.616516	196.400000
759.653687	200.300000
759.690918	193.000000
759.728027	198.500000
759.765259	198.200000
759.802429	200.600000
759.839539	197.500000
759.876770	204.100000
759.913940	207.600000
759.951111	198.900000
759.988281	198.300000
760.025452	196.400000
760.062561	193.700000
760.099792	208.200000
760.136963	202.000000
760.174072	198.600000
760.211243	193.000000
760.248413	196.000000
760.285583	194.900000
760.322754	211.000000
760.359863	206.200000
760.397034	205.700000
760.434204	198.700000
760.471375	200.300000
760.508545	197.800000
760.545715	199.100000
760.582825	195.200000
760.619995	204.200000
760.657166	192.800000
760.694275	206.500000
760.731445	204.400000
760.768555	203.900000
760.805664	204.700000
760.842834	203.100000
760.879944	205.100000
760.917114	204.100000
760.954285	201.700000
760.991394	195.000000
761.028564	208.400000
761.065674	205.400000
761.102783	198.000000
761.139954	205.900000
761.177124	207.400000
761.214172	206.400000
761.251343	200.900000
761.288452	201.800000
761.325562	207.700000
761.362732	199.300000
761.399841	202.900000
761.436951	203.700000
761.474121	200.100000
761.511169	203.300000
761.548340	209.500000
761.585449	205.400000
761.622559	208.000000
761.659668	204.800000
761.696838	211.600000
761.733887	205.800000
761.771057	202.400000
761.808167	202.600000
761.845276	208.500000
761.882385	217.100000
761.919434	205.300000
761.956604	223.900000
761.993713	203.500000
762.030762	211.900000
762.067871	205.500000
762.105042	205.500000
762.142090	214.500000
762.179199	208.400000
762.216309	211.700000
762.253418	223.400000
762.290527	217.600000
762.327637	214.100000
762.364685	203.600000
762.401794	214.200000
762.438904	211.800000
762.475952	206.700000
762.513062	205.500000
762.550110	204.100000
762.587219	219.900000
762.624329	218.500000
762.661377	211.600000
762.698486	212.900000
762.735596	211.500000
762.772644	206.100000
762.809753	203.000000
762.846863	211.600000
762.883911	214.900000
762.921021	216.400000
762.958069	210.600000
762.995117	219.400000
763.032227	217.800000
763.069336	212.500000
763.106323	206.500000
763.143433	207.200000
763.180481	213.800000
763.217590	216.100000
763.254639	210.600000
763.291687	213.400000
763.328735	221.000000
763.365845	215.000000
763.402893	210.900000
763.439941	215.800000
763.477051	218.200000
763.514038	220.600000
763.551147	212.100000
763.588196	216.700000
763.625244	214.600000
763.662292	224.000000
763.699402	224.500000
763.736389	218.800000
763.773499	227.400000
763.810486	219.800000
763.847534	216.900000
763.884644	220.700000
763.921631	216.200000
763.958679	228.600000
763.995728	218.400000
764.032776	227.000000
764.069824	214.400000
764.106873	223.800000
764.143860	229.700000
764.180969	220.300000
764.218018	227.500000
764.255005	218.800000
764.292053	221.600000
764.329102	231.400000
764.366089	231.500000
764.403137	227.800000
764.440125	220.500000
764.477173	225.000000
764.514221	227.500000
764.551208	225.000000
764.588257	222.200000
764.625305	230.400000
764.662292	234.500000
764.699341	237.700000
764.736389	229.700000
764.773376	244.600000
764.810425	233.000000
764.847473	239.100000
764.884399	236.400000
764.921448	242.300000
764.958435	242.100000
764.995483	232.300000
765.032532	248.200000
765.069458	232.900000
765.106506	237.000000
765.143555	231.000000
765.180481	237.700000
765.217529	244.600000
765.254578	229.600000
765.291504	239.300000
765.328552	238.900000
765.365540	233.900000
765.402527	248.500000
765.439575	234.200000
765.476501	231.700000
765.513550	232.600000
765.550537	240.800000
765.587463	246.600000
765.624512	238.200000
765.661499	228.700000
765.698486	245.500000
765.735474	236.700000
765.772461	238.600000
765.809448	246.900000
765.846436	246.000000
765.883423	246.000000
765.920410	243.500000
765.957397	238.900000
765.994385	244.500000
766.031311	252.600000
766.068359	247.100000
766.105286	245.900000
766.142273	252.000000
766.179260	247.400000
766.216187	242.600000
766.253174	237.700000
766.290161	247.500000
766.327148	249.300000
766.364136	250.500000
766.401123	265.100000
766.438049	245.300000
766.475037	257.500000
766.512024	253.900000
766.548950	267.300000
766.585937	259.800000
766.622864	255.100000
766.659790	254.700000
766.696777	244.400000
766.733704	258.100000
766.770691	249.000000
766.807678	263.500000
766.844604	259.400000
766.881531	257.500000
766.918518	262.700000
766.955444	262.500000
766.992432	256.500000
767.029358	259.400000
767.066284	264.600000
767.103271	260.500000
767.140198	290.900000
767.177124	273.800000
767.214050	266.800000
767.251038	266.400000
767.287964	261.700000
767.324890	259.500000
767.361816	266.000000
767.398743	270.800000
767.435730	263.700000
767.472595	267.100000
767.509583	272.800000
767.546509	258.700000
767.583374	268.100000
767.620361	258.500000
767.657288	266.700000
767.694214	267.200000
767.731140	267.500000
767.768066	266.600000
767.804993	272.000000
767.841919	262.500000
767.878845	269.300000
767.915710	275.200000
767.952698	268.200000
767.989563	269.700000
768.026489	272.500000
768.063416	266.400000
768.100281	265.700000
768.137207	279.100000
768.174133	275.900000
768.211060	275.100000
768.247986	273.800000
768.284912	273.700000
768.321777	273.000000
768.358704	270.400000
768.395630	274.100000
768.432495	269.900000
768.469421	276.000000
768.506348	280.500000
768.543152	284.300000
768.580078	281.200000
768.616943	283.100000
768.653870	288.200000
768.690796	285.300000
768.727661	282.000000
768.764587	284.000000
768.801453	277.500000
768.838318	287.700000
768.875244	286.600000
768.912109	291.300000
768.948975	283.500000
768.985901	284.900000
769.022766	283.700000
769.059631	288.400000
769.096558	283.200000
769.133362	282.300000
769.170288	285.600000
769.207214	283.500000
769.244019	290.700000
769.280945	286.600000
769.317810	295.500000
769.354675	288.900000
769.391541	301.200000
769.428406	293.600000
769.465271	305.000000
769.502136	293.700000
769.539062	296.200000
769.575867	297.500000
769.612732	297.600000
769.649597	304.300000
769.686462	307.800000
769.723328	300.400000
769.760193	298.800000
769.797058	301.200000
769.833923	307.100000
769.870728	304.200000
769.907593	306.500000
769.944519	303.900000
769.981323	307.400000
770.018188	309.500000
770.055054	306.800000
770.091858	306.500000
770.128723	316.500000
770.165588	323.000000
770.202393	308.500000
770.239258	321.300000
770.276062	316.200000
770.312927	317.600000
770.349792	323.700000
770.386597	322.300000
770.423462	329.400000
770.460327	337.800000
770.497131	320.000000
770.533997	315.100000
770.570862	332.100000
770.607605	334.000000
770.644470	330.900000
770.681335	329.700000
770.718140	329.000000
770.754944	325.900000
770.791809	325.200000
770.828613	329.700000
770.865479	329.200000
770.902222	339.800000
770.939087	333.000000
770.975952	324.500000
771.012695	328.400000
771.049561	345.300000
771.086365	335.700000
771.123169	332.700000
771.159973	336.200000
771.196838	337.300000
771.233582	337.300000
771.270447	338.000000
771.307251	343.500000
771.344055	341.500000
771.380859	344.300000
771.417664	340.700000
771.454468	346.600000
771.491272	347.000000
771.528076	347.600000
771.564880	345.300000
771.601685	354.900000
771.638428	342.300000
771.675293	352.200000
771.712097	341.700000
771.748840	359.300000
771.785645	348.600000
771.822449	353.000000
771.859253	357.300000
771.896057	352.900000
771.932861	364.900000
771.969604	354.700000
772.006409	348.500000
772.043213	359.000000
772.079956	356.800000
772.116760	350.100000
772.153503	353.500000
772.190308	366.000000
772.227112	356.100000
772.263855	353.200000
772.300659	358.900000
772.337463	365.500000
772.374207	355.700000
772.411011	352.100000
772.447754	356.100000
772.484497	374.500000
772.521301	364.500000
772.558105	364.500000
772.594849	364.800000
772.631592	370.800000
772.668396	369.300000
772.705139	373.800000
772.741882	367.200000
772.778625	382.000000
772.815430	381.900000
772.852173	378.400000
772.888916	380.200000
772.925720	385.000000
772.962463	389.700000
772.999207	384.700000
773.035950	388.300000
773.072754	387.300000
773.109436	378.700000
773.146240	383.400000
773.182922	380.900000
773.219727	394.400000
773.256470	388.700000
773.293152	381.100000
773.329956	384.200000
773.366699	390.900000
773.403381	379.400000
773.440186	388.100000
773.476929	391.500000
773.513611	384.600000
773.550354	385.600000
773.587158	386.800000
773.623840	380.300000
773.660583	389.100000
773.697327	399.700000
773.734009	390.900000
773.770813	390.000000
773.807495	387.900000
773.844238	389.400000
773.880981	405.100000
773.917664	398.500000
773.954407	403.300000
773.991150	398.100000
774.027832	404.700000
774.064575	395.800000
774.101318	401.000000
774.138000	407.400000
774.174744	402.500000
774.211487	404.500000
774.248108	390.600000
774.284851	391.300000
774.321594	399.200000
774.358276	402.400000
774.395020	410.000000
774.431702	405.800000
774.468384	398.700000
774.505127	396.200000
774.541809	404.000000
774.578491	413.900000
774.615234	414.900000
774.651917	406.500000
774.688599	411.100000
774.725342	420.600000
774.762024	417.100000
774.798706	420.000000
774.835449	421.200000
774.872070	425.900000
774.908813	423.300000
774.945496	420.600000
774.982178	419.200000
775.018860	420.000000
775.055542	424.000000
775.092224	428.500000
775.128967	433.500000
775.165588	432.400000
775.202271	424.900000
775.239014	436.300000
775.275635	435.600000
775.312317	432.100000
775.349060	435.900000
775.385681	437.500000
775.422363	431.400000
775.459045	436.700000
775.495667	439.800000
775.532410	445.100000
775.569092	445.600000
775.605713	448.100000
775.642395	446.500000
775.679016	446.300000
775.715698	446.500000
775.752380	452.200000
775.789001	446.900000
775.825684	449.400000
775.862366	450.200000
775.898987	462.800000
775.935669	449.400000
775.972351	474.700000
776.008972	467.100000
776.045654	465.300000
776.082336	461.700000
776.118958	463.900000
776.155640	467.800000
776.192322	475.700000
776.228882	477.800000
776.265564	478.400000
776.302185	474.900000
776.338867	484.100000
776.375488	473.900000
776.412109	484.000000
776.448792	488.100000
776.485413	497.300000
776.522034	487.000000
776.558716	483.900000
776.595337	485.800000
776.631958	487.200000
776.668579	491.800000
776.705261	495.300000
776.741882	495.300000
776.778503	492.000000
776.815186	491.600000
776.851746	497.400000
776.888367	495.200000
776.924988	505.300000
776.961609	492.200000
776.998291	492.900000
777.034851	489.100000
777.071472	500.000000
777.108154	503.200000
777.144714	510.600000
777.181335	510.300000
777.218018	502.600000
777.254578	511.200000
777.291199	507.600000
777.327759	510.900000
777.364380	518.700000
777.401062	526.800000
777.437622	539.400000
777.474243	526.600000
777.510864	534.800000
777.547424	529.200000
777.584045	527.300000
777.620667	532.200000
777.657227	534.500000
777.693848	537.500000
777.730469	548.800000
777.767029	538.200000
777.803650	545.200000
777.840271	538.300000
777.876831	539.400000
777.913452	545.600000
777.950012	529.800000
777.986633	526.800000
778.023193	526.300000
778.059753	526.700000
778.096375	530.300000
778.132996	545.100000
778.169556	537.000000
778.206116	537.200000
778.242737	531.600000
778.279297	542.500000
778.315857	534.300000
778.352478	540.200000
778.389038	549.000000
778.425598	545.200000
778.462219	553.500000
778.498718	550.200000
778.535339	556.900000
778.571838	557.500000
778.608459	564.300000
778.645020	554.100000
778.681580	560.400000
778.718140	564.400000
778.754761	563.500000
778.791260	566.100000
778.827881	577.000000
778.864441	572.200000
778.900940	581.600000
778.937561	579.000000
778.974121	578.000000
779.010620	564.200000
779.047241	568.400000
779.083801	577.800000
779.120300	578.900000
779.156860	581.000000
779.193359	576.600000
779.229980	576.300000
779.266541	580.000000
779.303040	583.800000
779.339600	577.900000
779.376160	569.600000
779.412659	572.500000
779.449219	566.200000
779.485779	575.100000
779.522278	573.100000
779.558838	574.900000
779.595398	577.500000
779.631897	578.100000
779.668457	570.700000
779.705017	579.800000
779.741516	571.600000
779.778076	565.000000
779.814575	572.300000
779.851074	578.200000
779.887634	575.000000
779.924133	581.000000
779.960693	569.600000
779.997253	580.500000
780.033691	587.400000
780.070251	585.200000
780.106812	599.000000
780.143250	596.900000
780.179810	593.600000
780.216370	596.400000
780.252808	600.000000
780.289368	609.200000
780.325867	610.000000
780.362366	604.600000
780.398865	615.900000
780.435364	609.700000
780.471863	618.000000
780.508423	611.100000
780.544861	617.600000
780.581421	615.100000
780.617920	606.100000
780.654419	604.800000
780.690918	615.100000
780.727417	620.500000
780.763916	617.600000
780.800415	620.600000
780.836914	610.600000
780.873352	618.300000
780.909912	610.100000
780.946411	614.500000
780.982849	625.700000
781.019348	639.600000
781.055786	627.900000
781.092346	624.700000
781.128845	629.300000
781.165283	641.600000
781.201782	644.800000
781.238281	646.300000
781.274719	652.200000
781.311218	643.000000
781.347717	654.700000
781.384155	642.000000
781.420654	647.600000
781.457092	662.500000
781.493591	655.200000
781.530090	650.200000
781.566528	653.400000
781.602966	658.300000
781.639465	656.600000
781.675903	650.800000
781.712402	660.500000
781.748901	661.800000
781.785278	652.400000
781.821777	657.300000
781.858276	654.100000
781.894714	677.300000
781.931152	666.200000
781.967651	677.600000
782.004089	668.600000
782.040527	674.400000
782.076965	673.600000
782.113403	678.300000
782.149902	683.700000
782.186340	680.400000
782.222778	692.800000
782.259277	682.700000
782.295654	680.900000
782.332092	690.900000
782.368591	689.600000
782.404968	684.500000
782.441467	690.200000
782.477905	694.100000
782.514282	688.700000
782.550781	708.100000
782.587219	703.500000
782.623596	710.700000
782.660095	714.900000
782.696472	727.700000
782.732910	722.800000
782.769348	730.500000
782.805786	746.000000
782.842224	745.700000
782.878662	738.500000
782.915039	741.500000
782.951477	743.700000
782.987915	733.700000
783.024292	745.000000
783.060730	746.400000
783.097168	739.000000
783.133545	734.000000
783.169983	732.200000
783.206421	725.000000
783.242798	722.600000
783.279236	711.300000
783.315613	713.100000
783.352051	712.800000
783.388489	705.200000
783.424866	698.400000
783.461304	704.000000
783.497681	717.900000
783.534058	711.200000
783.570496	708.100000
783.606934	707.300000
783.643250	714.300000
783.679687	720.000000
783.716125	714.900000
783.752441	729.100000
783.788879	750.500000
783.825317	755.700000
783.861633	759.200000
783.898071	764.100000
783.934448	780.700000
783.970825	788.700000
784.007263	795.100000
784.043579	799.700000
784.080017	797.000000
784.116394	789.600000
784.152710	791.000000
784.189148	800.800000
784.225525	795.500000
784.261902	784.800000
784.298279	774.900000
784.334656	775.200000
784.371033	767.200000
784.407410	768.300000
784.443787	750.100000
784.480164	736.600000
784.516541	719.000000
784.552856	721.900000
784.589233	714.600000
784.625610	711.500000
784.661987	741.500000
784.698364	734.500000
784.734741	726.000000
784.771057	729.900000
784.807434	732.300000
784.843811	745.300000
784.880127	739.400000
784.916504	772.100000
784.952881	775.000000
784.989197	772.300000
785.025574	772.500000
785.061951	780.200000
785.098267	804.200000
785.134644	793.300000
785.170959	797.900000
785.207275	801.700000
785.243652	798.100000
785.279968	776.700000
785.316345	782.000000
785.352722	784.400000
785.388977	775.100000
785.425354	759.700000
785.461731	737.700000
785.498047	722.000000
785.534363	712.000000
785.570679	700.100000
785.606995	678.400000
785.643372	639.100000
785.679687	562.400000
785.716003	476.200000
785.752380	409.100000
785.788635	364.300000
785.825012	365.000000
785.861328	382.600000
785.897644	417.500000
785.933960	496.100000
785.970337	579.300000
786.006592	670.200000
786.042908	730.400000
786.079285	767.600000
786.115540	789.100000
786.151855	791.400000
786.188171	791.000000
786.224487	791.600000
786.260803	788.500000
786.297119	798.800000
786.333435	791.100000
786.369751	783.800000
786.406006	786.500000
786.442322	767.200000
786.478638	758.500000
786.514954	772.900000
786.551270	770.000000
786.587585	780.600000
786.623840	773.100000
786.660156	766.500000
786.696472	748.700000
786.732727	745.100000
786.769043	755.400000
786.805298	751.800000
786.841614	761.400000
786.877930	770.800000
786.914124	762.500000
786.950439	778.700000
786.986755	787.800000
787.023010	798.900000
787.059326	809.700000
787.095642	811.300000
787.131836	824.600000
787.168152	814.000000
787.204468	817.500000
787.240723	832.400000
787.276978	838.100000
787.313293	844.700000
787.349548	838.900000
787.385803	842.300000
787.422058	829.200000
787.458313	823.000000
787.494629	819.800000
787.530823	819.600000
787.567139	809.400000
787.603455	801.200000
787.639648	788.300000
787.675903	791.500000
787.712219	789.800000
787.748413	787.400000
787.784729	797.000000
787.820984	789.300000
787.857178	783.000000
787.893494	776.700000
787.929749	776.000000
787.965942	791.700000
788.002258	805.800000
788.038452	818.000000
788.074707	808.700000
788.110962	820.900000
788.147217	819.800000
788.183472	831.700000
788.219727	844.500000
788.255920	863.100000
788.292175	875.300000
788.328430	870.400000
788.364624	856.800000
788.400879	855.800000
788.437134	860.800000
788.473328	863.800000
788.509583	861.600000
788.545837	857.000000
788.582031	853.900000
788.618286	851.900000
788.654480	848.600000
788.690735	858.100000
788.726990	877.500000
788.763184	875.400000
788.799377	885.400000
788.835632	865.400000
788.871826	882.400000
788.908081	870.400000
788.944336	865.900000
788.980469	884.300000
789.016724	876.500000
789.052979	880.400000
789.089111	861.900000
789.125366	873.600000
789.161621	863.700000
789.197754	879.700000
789.234009	877.000000
789.270142	869.200000
789.306396	865.400000
789.342590	859.200000
789.378784	837.000000
789.414978	832.100000
789.451233	848.700000
789.487366	846.600000
789.523621	857.400000
789.559814	850.100000
789.595947	841.100000
789.632202	847.800000
789.668335	856.600000
789.704529	872.300000
789.740784	892.900000
789.776917	892.300000
789.813110	887.200000
789.849304	898.300000
789.885498	900.000000
789.921692	913.700000
789.957886	922.400000
789.994019	920.900000
790.030212	925.300000
790.066406	927.100000
790.102539	921.500000
790.138733	930.900000
790.174927	929.300000
790.211060	941.700000
790.247253	933.200000
790.283386	923.100000
790.319580	905.900000
790.355774	894.500000
790.391907	893.900000
790.428101	911.900000
790.464294	908.500000
790.500427	912.200000
790.536621	898.700000
790.572754	882.200000
790.608887	876.100000
790.645081	885.500000
790.681274	900.700000
790.717346	903.100000
790.753540	889.900000
790.789734	868.200000
790.825867	856.200000
790.862000	859.400000
790.898132	874.400000
790.934265	873.600000
790.970459	879.600000
791.006592	877.200000
791.042725	874.800000
791.078918	863.100000
791.114990	863.100000
791.151184	862.300000
791.187317	878.300000
791.223389	875.800000
791.259583	858.500000
791.295715	861.900000
791.331848	863.900000
791.367981	874.400000
791.404114	885.800000
791.440247	887.600000
791.476379	891.300000
791.512451	874.900000
791.548584	879.000000
791.584778	868.100000
791.620850	870.900000
791.656982	882.000000
791.693115	882.800000
791.729187	883.500000
791.765381	878.200000
791.801514	876.500000
791.837585	877.900000
791.873718	884.200000
791.909851	896.000000
791.945923	903.700000
791.982056	874.700000
792.018188	873.200000
792.054260	875.300000
792.090393	872.000000
792.126465	859.900000
792.162598	874.100000
792.198669	861.500000
792.234741	860.800000
792.270874	853.000000
792.307007	838.100000
792.343079	838.800000
792.379150	853.500000
792.415283	844.600000
792.451355	843.600000
792.487488	818.400000
792.523560	817.100000
792.559631	801.200000
792.595764	764.200000
792.631836	731.500000
792.667908	726.000000
792.703979	707.200000
792.740051	720.600000
792.776184	753.500000
792.812256	759.300000
792.848328	770.100000
792.884399	778.800000
792.920471	785.000000
792.956543	779.000000
792.992615	778.600000
793.028748	775.200000
793.064758	776.200000
793.100830	797.800000
793.136963	819.900000
793.172974	814.200000
793.209045	806.300000
793.245178	817.800000
793.281189	803.500000
793.317261	804.800000
793.353271	809.400000
793.389404	821.200000
793.425476	818.600000
793.461487	804.300000
793.497559	802.100000
793.533630	799.000000
793.569641	797.400000
793.605713	799.300000
793.641785	803.400000
793.677795	811.500000
793.713867	804.900000
793.749878	806.100000
793.785950	816.600000
793.822021	819.200000
793.858032	803.100000
793.894104	821.200000
793.930176	808.800000
793.966187	810.800000
794.002258	799.200000
794.038269	803.500000
794.074280	802.600000
794.110352	830.000000
794.146423	809.400000
794.182373	805.300000
794.218445	804.800000
794.254517	795.600000
794.290466	780.400000
794.326538	791.300000
794.362549	795.900000
794.398560	802.600000
794.434631	804.300000
794.470581	784.200000
794.506653	778.200000
794.542664	784.400000
794.578674	785.600000
794.614685	787.600000
794.650757	786.300000
794.686707	783.100000
794.722778	774.700000
794.758789	781.800000
794.794739	781.400000
794.830811	805.000000
794.866821	827.000000
794.902771	825.500000
794.938843	815.400000
794.974792	821.900000
795.010803	818.200000
795.046814	822.400000
795.082825	812.100000
795.118835	828.300000
795.154846	808.400000
795.190796	814.900000
795.226807	789.500000
795.262817	797.900000
795.298767	798.200000
795.334778	812.400000
795.370850	799.100000
795.406799	804.400000
795.442810	784.600000
795.478821	782.400000
795.514709	783.000000
795.550720	803.600000
795.586670	786.000000
795.622681	792.000000
795.658691	791.100000
795.694641	793.400000
795.730652	781.500000
795.766663	791.800000
795.802551	793.700000
795.838562	811.400000
795.874573	800.600000
795.910522	800.600000
795.946472	789.100000
795.982483	794.100000
796.018433	791.500000
796.054382	802.500000
796.090393	795.500000
796.126282	791.200000
796.162292	778.300000
796.198242	775.200000
796.234192	776.100000
796.270203	772.300000
796.306091	777.400000
796.342041	792.300000
796.378052	778.900000
796.413940	779.900000
796.449951	783.300000
796.485901	778.800000
796.521790	780.900000
796.557800	801.600000
796.593689	800.900000
796.629639	794.000000
796.665649	789.500000
796.701599	782.100000
796.737488	777.400000
796.773437	784.200000
796.809387	783.100000
796.845337	788.400000
796.881287	783.800000
796.917175	762.600000
796.953125	765.800000
796.989075	771.900000
797.024963	776.300000
797.060913	773.300000
797.096863	777.900000
797.132751	769.700000
797.168701	751.900000
797.204590	760.200000
797.240540	764.900000
797.276489	769.500000
797.312439	779.700000
797.348328	775.800000
797.384277	769.300000
797.420166	756.500000
797.456055	759.000000
797.492004	755.700000
797.527893	761.300000
797.563843	764.200000
797.599731	758.100000
797.635620	742.500000
797.671570	760.100000
797.707520	756.900000
797.743347	759.200000
797.779297	769.600000
797.815125	763.200000
797.851074	752.700000
797.887024	747.100000
797.922913	738.000000
797.958801	745.100000
797.994690	731.900000
798.030579	742.700000
798.066467	750.900000
798.102356	738.400000
798.138245	732.800000
798.174133	729.000000
798.210083	738.900000
798.245911	747.400000
798.281799	748.600000
798.317749	743.400000
798.353577	742.500000
798.389465	732.600000
798.425293	730.900000
798.461243	729.600000
798.497131	737.800000
798.532959	741.000000
798.568848	746.100000
798.604736	728.400000
798.640564	717.600000
798.676453	718.700000
798.712402	720.400000
798.748230	733.300000
798.784119	725.000000
798.820007	729.700000
798.855835	723.800000
798.891724	714.900000
798.927551	710.800000
798.963379	715.000000
798.999268	712.300000
799.035095	705.000000
799.070984	701.000000
799.106873	686.700000
799.142700	696.000000
799.178528	685.600000
799.214417	689.900000
799.250244	701.900000
799.286133	700.000000
799.321960	697.200000
799.357788	690.600000
799.393677	685.300000
799.429504	679.400000
799.465332	682.200000
799.501221	694.000000
799.537048	692.200000
799.572876	683.300000
799.608704	685.400000
799.644531	689.600000
799.680359	693.800000
799.716248	703.100000
799.752014	711.600000
799.787903	701.300000
799.823730	698.900000
799.859558	688.500000
799.895386	689.400000
799.931213	690.600000
799.967041	684.700000
800.002869	685.600000
800.038696	703.000000
800.074463	679.800000
800.110352	684.400000
800.146179	672.200000
800.181946	681.000000
800.217773	683.900000
800.253540	685.300000
800.289429	675.600000
800.325256	670.800000
800.361023	656.500000
800.396851	662.400000
800.432678	668.700000
800.468445	673.700000
800.504272	671.200000
800.540100	659.500000
800.575867	656.500000
800.611694	663.100000
800.647461	655.100000
800.683289	659.300000
800.719116	662.400000
800.754883	657.400000
800.790649	645.000000
800.826477	637.700000
800.862244	660.500000
800.898071	642.800000
800.933838	648.000000
800.969604	645.300000
801.005432	648.500000
801.041199	647.700000
801.076965	638.600000
801.112793	632.900000
801.148560	623.500000
801.184326	631.300000
801.220154	631.500000
801.255859	625.800000
801.291687	625.400000
801.327454	622.700000
801.363281	621.500000
801.398987	619.000000
801.434814	622.700000
801.470520	628.900000
801.506287	616.600000
801.542114	606.700000
801.577820	608.800000
801.613647	613.300000
801.649414	610.200000
801.685120	612.900000
801.720886	617.800000
801.756714	608.600000
801.792419	598.800000
801.828186	593.100000
801.863892	603.400000
801.899719	593.600000
801.935486	593.900000
801.971252	599.900000
802.006958	598.500000
802.042725	591.500000
802.078430	592.500000
802.114197	589.000000
802.149963	606.500000
802.185669	593.800000
802.221436	593.400000
802.257202	592.100000
802.292908	585.700000
802.328674	593.800000
802.364441	596.900000
802.400146	592.600000
802.435913	595.200000
802.471558	591.400000
802.507324	586.500000
802.543091	582.700000
802.578796	595.800000
802.614502	594.200000
802.650269	600.600000
802.685974	582.700000
802.721741	588.500000
802.757446	593.400000
802.793152	588.800000
802.828918	599.300000
802.864624	597.400000
802.900330	589.900000
802.936035	588.800000
802.971802	584.500000
803.007446	587.100000
803.043213	574.600000
803.078857	582.500000
803.114624	571.700000
803.150330	575.600000
803.185974	569.500000
803.221741	572.600000
803.257446	587.500000
803.293152	587.100000
803.328857	579.500000
803.364563	578.900000
803.400208	571.600000
803.435974	577.800000
803.471680	568.900000
803.507324	565.600000
803.543030	572.500000
803.578735	576.300000
803.614441	562.900000
803.650146	573.600000
803.685791	560.500000
803.721497	563.900000
803.757202	554.400000
803.792847	564.300000
803.828552	554.100000
803.864258	553.300000
803.899902	552.800000
803.935608	534.800000
803.971313	543.600000
804.006958	543.300000
804.042664	544.100000
804.078308	549.200000
804.113953	541.200000
804.149658	549.000000
804.185364	537.800000
804.221008	547.200000
804.256714	537.500000
804.292297	534.500000
804.328003	533.200000
804.363708	529.800000
804.399292	531.700000
804.434998	530.600000
804.470703	522.700000
804.506287	536.700000
804.541992	525.200000
804.577637	528.100000
804.613281	518.000000
804.648926	515.000000
804.684570	519.500000
804.720215	511.700000
804.755920	513.900000
804.791565	509.300000
804.827209	518.600000
804.862854	509.300000
804.898437	504.700000
804.934143	504.400000
804.969788	504.800000
805.005371	502.400000
805.041077	503.600000
805.076721	502.700000
805.112305	494.400000
805.147949	497.200000
805.183655	492.100000
805.219238	499.400000
805.254883	496.300000
805.290466	503.500000
805.326111	494.700000
805.361755	485.700000
805.397400	488.500000
805.432983	490.300000
805.468628	490.400000
805.504211	493.800000
805.539856	486.600000
805.575500	494.600000
805.611084	486.900000
805.646729	473.200000
805.682373	475.200000
805.717957	487.300000
805.753601	491.800000
805.789246	473.900000
805.824768	484.700000
805.860413	487.000000
805.895996	474.000000
805.931641	476.200000
805.967224	485.200000
806.002869	477.300000
806.038452	486.200000
806.074036	486.200000
806.109619	473.100000
806.145264	475.300000
806.180847	474.300000
806.216431	474.300000
806.252014	475.900000
806.287659	475.100000
806.323181	485.500000
806.358826	478.800000
806.394409	460.500000
806.429993	464.300000
806.465576	478.200000
806.501160	463.400000
806.536743	453.900000
806.572327	468.200000
806.607910	459.700000
806.643494	462.500000
806.679077	456.400000
806.714661	458.400000
806.750244	458.900000
806.785828	453.900000
806.821350	452.900000
806.856934	460.300000
806.892517	453.800000
806.928101	450.500000
806.963684	451.200000
806.999268	461.100000
807.034790	440.900000
807.070374	451.900000
807.105896	445.600000
807.141479	440.100000
807.177063	449.100000
807.212585	440.900000
807.248169	441.800000
807.283752	448.900000
807.319275	442.800000
807.354858	443.800000
807.390381	438.900000
807.425903	438.600000
807.461487	435.300000
807.497070	428.800000
807.532593	433.400000
807.568115	432.000000
807.603699	425.800000
807.639221	423.400000
807.674744	429.900000
807.710266	432.000000
807.745850	436.400000
807.781372	428.400000
807.816895	425.200000
807.852417	425.700000
807.888000	423.100000
807.923523	419.300000
807.959045	423.100000
807.994629	413.200000
808.030090	413.500000
808.065613	421.300000
808.101135	424.500000
808.136658	419.300000
808.172241	413.800000
808.207764	414.500000
808.243225	411.900000
808.278809	408.200000
808.314270	416.000000
808.349792	399.200000
808.385315	401.400000
808.420837	406.400000
808.456360	413.000000
808.491882	413.300000
808.527344	411.600000
808.562866	417.400000
808.598389	407.800000
808.633850	400.100000
808.669434	400.700000
808.704895	407.600000
808.740417	412.500000
808.775940	405.700000
808.811462	399.500000
808.846924	392.900000
808.882385	392.700000
808.917847	394.000000
808.953369	399.000000
808.988892	390.000000
809.024353	402.500000
809.059875	401.700000
809.095398	394.500000
809.130798	389.300000
809.166321	389.300000
809.201843	390.200000
809.237305	391.200000
809.272766	397.900000
809.308228	384.800000
809.343750	386.700000
809.379211	388.000000
809.414734	385.100000
809.450134	393.400000
809.485657	378.200000
809.521118	385.900000
809.556580	382.400000
809.592102	378.400000
809.627502	375.600000
809.663025	374.500000
809.698486	373.500000
809.733887	370.300000
809.769409	379.700000
809.804871	365.900000
809.840271	369.000000
809.875793	371.800000
809.911194	377.200000
809.946655	368.300000
809.982178	366.800000
810.017639	369.700000
810.053040	367.000000
810.088501	367.200000
810.123901	365.000000
810.159424	361.100000
810.194885	358.300000
810.230286	362.800000
810.265747	354.900000
810.301208	354.100000
810.336609	355.300000
810.372070	347.000000
810.407532	351.300000
810.442932	353.300000
810.478394	358.300000
810.513794	352.000000
810.549255	352.700000
810.584717	347.600000
810.620117	342.700000
810.655518	349.900000
810.690979	348.800000
810.726379	347.400000
810.761841	338.200000
810.797302	338.600000
810.832642	337.200000
810.868103	349.000000
810.903564	336.300000
810.938904	343.700000
810.974365	331.800000
811.009827	336.600000
811.045166	332.300000
811.080627	324.700000
811.115967	330.600000
811.151428	340.200000
811.186829	332.700000
811.222229	334.000000
811.257629	325.100000
811.293091	332.700000
811.328430	337.200000
811.363892	335.500000
811.399292	336.800000
811.434631	330.300000
811.470093	335.600000
811.505493	326.100000
811.540833	326.700000
811.576294	332.600000
811.611694	323.000000
811.647034	322.300000
811.682434	322.700000
811.717773	326.200000
811.753235	329.100000
811.788635	322.300000
811.823975	321.800000
811.859375	331.400000
811.894775	315.100000
811.930115	321.600000
811.965515	318.900000
812.000916	323.700000
812.036255	316.500000
812.071655	321.300000
812.106995	310.700000
812.142395	315.500000
812.177795	320.100000
812.213196	319.200000
812.248474	317.700000
812.283875	310.100000
812.319214	310.000000
812.354614	317.200000
812.390015	310.200000
812.425293	311.500000
812.460693	309.800000
812.496094	309.200000
812.531433	302.200000
812.566772	306.000000
812.602173	308.000000
812.637451	307.300000
812.672852	302.400000
812.708191	308.600000
812.743530	302.000000
812.778931	295.400000
812.814270	300.400000
812.849609	308.500000
812.884949	301.300000
812.920227	296.000000
812.955627	312.000000
812.990967	301.600000
813.026306	298.900000
813.061646	286.900000
813.096985	284.200000
813.132324	283.300000
813.167664	288.100000
813.203003	292.900000
813.238281	282.000000
813.273682	279.900000
813.308960	280.300000
813.344299	279.800000
813.379639	291.000000
813.414978	280.000000
813.450256	281.800000
813.485596	283.400000
813.520874	275.100000
813.556213	279.400000
813.591614	282.700000
813.626831	274.600000
813.662170	280.600000
813.697510	289.000000
813.732788	275.400000
813.768127	277.700000
813.803467	279.000000
813.838745	272.500000
813.874084	279.300000
813.909363	277.600000
813.944641	278.300000
813.979980	266.500000
814.015320	274.100000
814.050598	270.500000
814.085876	275.400000
814.121155	270.900000
814.156494	268.500000
814.191772	270.100000
814.227051	265.300000
814.262390	268.500000
814.297668	269.300000
814.332947	268.800000
814.368225	261.900000
814.403564	264.800000
814.438782	261.400000
814.474121	263.700000
814.509338	260.900000
814.544617	270.400000
814.579956	260.500000
814.615173	270.600000
814.650513	266.700000
814.685791	259.800000
814.721008	262.000000
814.756348	263.200000
814.791626	259.300000
814.826843	258.600000
814.862122	259.000000
814.897400	256.700000
814.932678	258.200000
814.967957	259.600000
815.003235	258.400000
815.038452	253.800000
815.073730	251.000000
815.108948	261.300000
815.144226	257.400000
815.179504	263.400000
815.214722	247.100000
815.250000	249.700000
815.285278	254.900000
815.320496	249.200000
815.355774	250.700000
815.391052	255.700000
815.426270	251.900000
815.461487	252.100000
815.496765	245.000000
815.531982	244.200000
815.567261	247.000000
815.602539	254.900000
815.637695	250.700000
815.672974	253.100000
815.708191	251.900000
815.743408	253.200000
815.778687	244.300000
815.813904	256.400000
815.849121	239.000000
815.884399	242.400000
815.919556	239.800000
815.954834	241.600000
815.990051	244.400000
816.025269	248.600000
816.060486	237.200000
816.095703	238.600000
816.130920	241.300000
816.166199	239.300000
816.201416	241.900000
816.236572	245.600000
816.271851	236.700000
816.307007	245.000000
816.342224	235.000000
816.377441	237.500000
816.412659	229.100000
816.447876	242.200000
816.483093	235.700000
816.518250	236.500000
816.553467	234.200000
816.588745	238.300000
816.623901	230.800000
816.659119	226.100000
816.694275	231.500000
816.729492	227.400000
816.764709	264.700000
816.799927	225.800000
816.835083	232.000000
816.870300	225.400000
816.905457	229.700000
816.940674	231.100000
816.975830	227.000000
817.010986	223.600000
817.046204	225.200000
817.081421	222.200000
817.116577	222.200000
817.151733	229.500000
817.186951	232.100000
817.222107	226.000000
817.257324	230.300000
817.292419	225.900000
817.327637	218.700000
817.362854	222.500000
817.398010	218.400000
817.433167	220.100000
817.468323	220.200000
817.503479	220.600000
817.538635	229.500000
817.573853	222.000000
817.608948	221.400000
817.644165	215.900000
817.679321	218.000000
817.714478	216.000000
817.749634	220.100000
817.784790	229.500000
817.819946	226.500000
817.855103	208.100000
817.890198	217.000000
817.925415	210.100000
817.960571	217.400000
817.995667	217.600000
818.030823	219.500000
818.066040	210.900000
818.101135	215.400000
818.136292	214.500000
818.171448	211.000000
818.206543	213.900000
818.241699	217.900000
818.276855	213.900000
818.311951	213.500000
818.347107	210.100000
818.382263	215.900000
818.417358	219.800000
818.452515	220.200000
818.487610	220.500000
818.522766	208.000000
818.557922	221.300000
818.593018	216.500000
818.628113	213.500000
818.663269	208.000000
818.698364	213.400000
818.733521	209.400000
818.768677	213.400000
818.803711	205.300000
818.838867	207.300000
818.874023	210.700000
818.909058	206.700000
818.944214	203.900000
818.979370	212.900000
819.014404	208.600000
819.049561	207.000000
819.084595	208.200000
819.119751	202.700000
819.154846	208.900000
819.189941	207.300000
819.225037	201.300000
819.260193	198.100000
819.295227	199.700000
819.330322	196.900000
819.365479	193.700000
819.400513	229.700000
819.435608	194.900000
819.470764	192.400000
819.505798	195.400000
819.540894	197.900000
819.575989	195.900000
819.611084	205.000000
819.646179	205.600000
819.681213	202.400000
819.716309	198.000000
819.751404	197.500000
819.786438	202.600000
819.821533	194.500000
819.856628	199.800000
819.891663	201.900000
819.926758	209.000000
819.961853	204.300000
819.996887	195.100000
820.031982	201.800000
820.067017	196.500000
820.102112	226.300000
820.137207	196.100000
820.172302	211.900000
820.207275	193.200000
820.242371	195.300000
820.277405	194.000000
820.312500	196.800000
820.347534	198.200000
820.382568	201.600000
820.417664	194.000000
820.452759	193.800000
820.487732	193.300000
820.522827	194.900000
820.557861	191.800000
820.592896	194.400000
820.627930	194.300000
820.662964	191.000000
820.698059	197.100000
820.733093	191.900000
820.768127	199.300000
820.803162	193.400000
820.838196	192.500000
820.873230	194.100000
820.908264	195.400000
820.943298	190.300000
820.978333	200.000000
821.013367	194.100000
821.048401	198.800000
821.083435	200.300000
821.118469	186.900000
821.153503	197.700000
821.188477	195.500000
821.223511	186.500000
821.258484	194.700000
821.293579	192.900000
821.328613	187.700000
821.363647	190.500000
821.398621	188.400000
821.433655	187.900000
821.468628	206.100000
821.503662	191.300000
821.538696	195.500000
821.573669	187.000000
821.608704	195.800000
821.643677	189.100000
821.678650	196.100000
821.713684	202.000000
821.748718	191.000000
821.783691	191.300000
821.818726	193.300000
821.853638	193.800000
821.888672	190.800000
821.923706	192.400000
821.958618	189.400000
821.993652	190.300000
822.028687	197.800000
822.063599	198.100000
822.098633	194.900000
822.133667	188.900000
822.168579	189.400000
822.203613	194.000000
822.238586	187.800000
822.273560	195.500000
822.308533	188.700000
822.343567	189.800000
822.378479	190.200000
822.413452	191.200000
822.448425	187.300000
822.483398	196.200000
822.518372	196.600000
822.553345	188.400000
822.588318	197.200000
822.623291	190.500000
822.658203	188.700000
822.693237	191.200000
822.728210	185.800000
822.763123	192.200000
822.798096	186.000000
822.833069	191.300000
822.867981	190.000000
822.902954	193.400000
822.937927	192.700000
822.972900	201.600000
823.007874	183.300000
823.042725	195.600000
823.077698	202.700000
823.112671	187.300000
823.147583	188.100000
823.182556	194.800000
823.217529	193.600000
823.252441	189.400000
823.287415	203.000000
823.322388	194.200000
823.357239	191.200000
823.392212	200.000000
823.427185	194.500000
823.462097	188.200000
823.497009	194.600000
823.531982	189.700000
823.566895	192.000000
823.601807	186.900000
823.636719	188.500000
823.671631	195.500000
823.706604	189.300000
823.741455	192.900000
823.776428	184.900000
823.811340	195.700000
823.846252	198.900000
823.881165	198.100000
823.916138	192.200000
823.950989	199.500000
823.985901	188.500000
824.020813	191.200000
824.055725	189.400000
824.090637	184.000000
824.125610	195.000000
824.160461	191.100000
824.195374	193.800000
824.230225	195.100000
824.265198	184.600000
824.300110	186.900000
824.334961	203.000000
824.369873	182.700000
824.404785	194.000000
824.439636	196.800000
824.474548	182.900000
824.509460	179.600000
824.544312	195.800000
824.579224	192.700000
824.614075	193.700000
824.648987	187.300000
824.683899	189.300000
824.718811	187.400000
824.753662	197.100000
824.788574	193.100000
824.823364	192.000000
824.858276	186.900000
824.893188	194.300000
824.928040	194.700000
824.962952	192.500000
824.997803	192.800000
825.032654	192.000000
825.067566	191.300000
825.102417	186.800000
825.137268	185.600000
825.172119	190.100000
825.206970	186.200000
825.241882	188.000000
825.276733	187.200000
825.311646	187.100000
825.346436	183.700000
825.381348	184.800000
825.416138	190.200000
825.450989	183.500000
825.485901	182.000000
825.520691	181.400000
825.555542	183.100000
825.590454	189.600000
825.625244	181.400000
825.660095	195.200000
825.695007	193.100000
825.729797	186.900000
825.764648	185.400000
825.799438	188.100000
825.834290	189.400000
825.869202	181.000000
825.903992	191.300000
825.938843	183.600000
825.973694	184.200000
826.008484	199.300000
826.043335	184.300000
826.078186	178.500000
826.112976	194.100000
826.147827	192.900000
826.182678	198.900000
826.217468	179.200000
826.252319	193.400000
826.287109	181.600000
826.321899	194.500000
826.356750	185.900000
826.391541	181.500000
826.426392	190.000000
826.461182	187.900000
826.495972	179.200000
826.530823	176.800000
826.565613	185.600000
826.600403	182.300000
826.635254	188.400000
826.670044	179.100000
826.704834	178.100000
826.739685	182.300000
826.774475	187.000000
826.809265	186.000000
826.844055	182.800000
826.878906	191.600000
826.913635	186.800000
826.948425	188.700000
826.983215	186.600000
827.018005	190.600000
827.052856	184.700000
827.087585	189.500000
827.122375	177.700000
827.157227	184.600000
827.191956	197.200000
827.226746	179.600000
827.261536	189.200000
827.296265	179.800000
827.331116	183.100000
827.365906	188.800000
827.400635	182.400000
827.435425	178.100000
827.470215	192.600000
827.504944	182.300000
827.539734	190.800000
827.574463	185.500000
827.609253	192.000000
827.644043	185.500000
827.678772	190.800000
827.713562	183.400000
827.748352	186.200000
827.783081	181.800000
827.817871	187.500000
827.852600	181.000000
827.887329	187.900000
827.922119	175.300000
827.956848	191.100000
827.991638	198.100000
828.026367	187.900000
828.061157	185.600000
828.095886	186.200000
828.130615	200.000000
828.165344	177.400000
828.200073	184.300000
828.234863	184.200000
828.269592	184.100000
828.304321	190.500000
828.339111	185.900000
828.373779	183.000000
828.408569	190.800000
828.443298	190.700000
828.477966	181.900000
828.512756	187.000000
828.547424	179.500000
828.582214	184.100000
828.616943	182.900000
828.651672	184.700000
828.686340	188.500000
828.721130	183.300000
828.755798	181.500000
828.790527	186.000000
828.825256	185.200000
828.859924	186.000000
828.894714	190.400000
828.929443	194.100000
828.964111	180.800000
828.998840	188.800000
829.033569	182.800000
829.068237	183.500000
829.102966	183.600000
829.137634	186.500000
829.172363	186.800000
829.207092	185.900000
829.241821	183.300000
829.276489	177.600000
829.311157	186.300000
829.345825	183.900000
829.380554	190.600000
829.415283	180.100000
829.449951	179.200000
829.484619	193.300000
829.519348	193.000000
829.554016	185.400000
829.588745	185.800000
829.623413	178.200000
829.658081	197.200000
829.692749	179.600000
829.727417	191.200000
829.762146	185.900000
829.796814	183.600000
829.831482	182.800000
829.866150	188.100000
829.900879	182.000000
829.935486	189.600000
829.970154	182.000000
830.004883	197.600000
830.039490	184.300000
830.074219	182.300000
830.108887	186.600000
830.143494	185.100000
830.178223	178.500000
830.212891	183.700000
830.247498	184.000000
830.282166	193.200000
830.316772	190.800000
830.351501	183.200000
830.386169	183.600000
830.420776	183.200000
830.455444	184.100000
830.490112	183.000000
830.524719	177.600000
830.559387	187.700000
830.594055	187.600000
830.628662	185.200000
830.663330	183.800000
830.697998	193.900000
830.732605	184.800000
830.767273	187.900000
830.801941	185.400000
830.836487	193.700000
830.871155	186.400000
830.905762	186.800000
830.940430	177.900000
830.975098	182.600000
831.009644	187.000000
831.044312	193.100000
831.078979	188.500000
831.113525	176.400000
831.148193	185.600000
831.182861	183.300000
831.217407	190.900000
831.252075	201.300000
831.286621	182.800000
831.321289	181.300000
831.355896	186.300000
831.390564	192.900000
831.425110	186.900000
831.459778	191.600000
831.494324	199.500000
831.528931	187.200000
831.563599	190.300000
831.598145	179.300000
831.632751	186.000000
831.667419	182.900000
831.701965	186.600000
831.736572	187.700000
831.771179	179.600000
831.805786	181.100000
831.840393	192.000000
831.874939	176.200000
831.909546	190.600000
831.944153	176.600000
831.978760	184.500000
832.013306	178.400000
832.047913	191.600000
832.082458	192.500000
832.117065	183.400000
832.151672	193.200000
832.186218	186.300000
832.220825	186.500000
832.255432	178.500000
832.289978	180.600000
832.324585	188.200000
832.359192	188.500000
832.393677	185.200000
832.428284	185.300000
832.462830	183.800000
832.497437	183.000000
832.531982	189.400000
832.566589	183.700000
832.601135	187.600000
832.635681	177.500000
832.670227	186.200000
832.704773	192.500000
832.739380	187.300000
832.773926	186.900000
832.808472	181.000000
832.843079	186.000000
832.877563	189.400000
832.912170	182.600000
832.946716	177.500000
832.981201	191.500000
833.015808	188.700000
833.050293	185.500000
833.084839	181.000000
833.119446	184.500000
833.153992	187.900000
833.188477	185.300000
833.223022	181.300000
833.257568	188.000000
833.292114	191.800000
833.326660	196.600000
833.361145	181.100000
833.395691	178.600000
833.430237	185.100000
833.464783	189.100000
833.499329	181.700000
833.533875	180.900000
833.568359	188.100000
833.602905	191.400000
833.637390	188.700000
833.671875	183.600000
833.706421	184.300000
833.740906	182.200000
833.775452	175.600000
833.809998	183.600000
833.844482	191.000000
833.879028	184.600000
833.913513	182.700000
833.947998	188.100000
833.982544	180.300000
834.017090	183.000000
834.051514	173.500000
834.086060	187.800000
834.120544	184.600000
834.155029	187.300000
834.189575	183.500000
834.223999	188.800000
834.258545	186.200000
834.293030	186.700000
834.327515	185.300000
834.362000	182.300000
834.396545	189.400000
834.430969	183.300000
834.465454	187.600000
834.500000	177.700000
834.534424	188.100000
834.568970	176.500000
834.603455	177.700000
834.637878	181.800000
834.672363	184.800000
834.706909	185.400000
834.741333	186.300000
834.775818	178.800000
834.810242	182.800000
834.844727	186.000000
834.879211	183.600000
834.913635	184.400000
834.948181	187.600000
834.982666	185.200000
835.017090	183.900000
835.051575	186.700000
835.086060	182.600000
835.120483	188.300000
835.154907	189.600000
835.189331	184.000000
835.223816	189.100000
835.258301	179.500000
835.292786	182.300000
835.327209	189.800000
835.361694	181.500000
835.396057	181.700000
835.430542	189.400000
835.465027	185.600000
835.499390	181.100000
835.533875	204.300000
835.568359	182.400000
835.602722	176.500000
835.637207	187.400000
835.671692	180.000000
835.706055	201.600000
835.740540	184.400000
835.774902	187.700000
835.809387	185.900000
835.843811	178.900000
835.878235	190.900000
835.912659	179.500000
835.947083	181.600000
835.981506	184.000000
836.015930	178.300000
836.050354	190.900000
836.084778	195.100000
836.119202	189.900000
836.153625	198.600000
836.187988	180.800000
836.222473	182.700000
836.256897	187.000000
836.291260	184.400000
836.325684	187.300000
836.360046	184.000000
836.394470	185.000000
836.428894	191.200000
836.463318	181.800000
836.497681	190.100000
836.532104	192.100000
836.566467	187.700000
836.600891	183.600000
836.635315	191.900000
836.669678	187.700000
836.704102	190.500000
836.738525	186.800000
836.772888	176.400000
836.807251	181.600000
836.841675	189.100000
836.876038	179.700000
836.910461	182.900000
836.944763	188.800000
836.979187	180.900000
837.013611	189.800000
837.047974	180.400000
837.082336	195.200000
837.116699	190.500000
837.151062	184.200000
837.185486	179.800000
837.219849	182.800000
837.254211	189.800000
837.288574	183.400000
837.322937	181.400000
837.357300	173.100000
837.391663	198.500000
837.426086	189.700000
837.460388	186.900000
837.494751	187.900000
837.529114	183.100000
837.563477	190.900000
837.597839	187.400000
837.632141	184.200000
837.666565	182.400000
837.700928	187.500000
837.735229	186.700000
837.769592	186.300000
837.803955	190.600000
837.838257	183.600000
837.872620	181.800000
837.906982	191.400000
837.941284	185.300000
837.975647	185.800000
838.010010	194.200000
838.044312	184.000000
838.078674	183.500000
838.112976	187.100000
838.147339	189.900000
838.181702	185.500000
838.216003	194.600000
838.250366	188.300000
838.284668	188.000000
838.318970	178.200000
838.353333	184.500000
838.387634	184.300000
838.421936	186.000000
838.456299	187.000000
838.490601	193.100000
838.524902	190.300000
838.559265	190.700000
838.593567	189.700000
838.627869	178.500000
838.662170	188.900000
838.696472	179.700000
838.730774	182.100000
838.765137	188.800000
838.799377	172.300000
838.833740	185.900000
838.868042	192.000000
838.902283	176.900000
838.936646	192.700000
838.970947	186.800000
839.005188	193.400000
839.039551	178.800000
839.073792	192.900000
839.108093	182.300000
839.142395	196.200000
839.176697	177.900000
839.210937	187.100000
839.245300	196.200000
839.279541	178.300000
839.313843	183.100000
839.348145	187.700000
839.382385	188.300000
839.416687	188.800000
839.450989	187.000000
839.485229	185.100000
839.519531	180.500000
839.553833	191.100000
839.588013	185.500000
839.622314	187.100000
839.656555	187.900000
839.690857	185.800000
839.725159	178.900000
839.759460	184.700000
839.793640	183.600000
839.827942	185.900000
839.862183	181.500000
839.896423	187.000000
839.930725	195.100000
839.964966	192.600000
839.999207	193.400000
840.033508	194.100000
840.067688	183.900000
840.101990	193.100000
840.136230	186.100000
840.170471	192.100000
840.204712	181.100000
840.238953	180.700000
840.273193	188.900000
840.307434	188.900000
840.341736	183.000000
840.375916	178.400000
840.410217	183.900000
840.444397	190.400000
840.478638	189.400000
840.512878	191.800000
840.547119	186.700000
840.581360	187.800000
840.615601	196.900000
840.649780	194.700000
840.684021	186.300000
840.718262	192.500000
840.752441	192.500000
840.786682	186.000000
840.820862	187.300000
840.855103	193.100000
840.889343	187.000000
840.923584	191.100000
840.957764	189.000000
840.992004	186.500000
841.026184	199.900000
841.060425	182.600000
841.094666	183.000000
841.128845	190.000000
841.163025	186.300000
841.197266	189.500000
841.231445	188.700000
841.265686	187.200000
841.299866	183.400000
841.334045	191.900000
841.368286	185.500000
841.402405	193.700000
841.436646	190.100000
841.470825	183.300000
841.505005	186.100000
841.539185	181.900000
841.573425	182.400000
841.607544	186.600000
841.641785	185.800000
841.675964	181.000000
841.710144	186.300000
841.744324	184.400000
841.778503	184.800000
841.812683	182.900000
841.846863	193.900000
841.881042	194.700000
841.915222	183.000000
841.949402	201.700000
841.983521	178.000000
842.017700	185.600000
842.051880	186.400000
842.086060	188.500000
842.120239	186.100000
842.154419	184.600000
842.188538	187.100000
842.222717	183.200000
842.256897	195.300000
842.291016	185.900000
842.325195	186.700000
842.359375	198.400000
842.393494	192.700000
842.427673	187.700000
842.461853	188.100000
842.495911	194.100000
842.530090	187.600000
842.564209	186.700000
842.598389	187.000000
842.632568	187.100000
842.666626	189.800000
842.700806	182.800000
842.734985	182.500000
842.769043	188.600000
842.803223	184.000000
842.837402	185.500000
842.871460	182.700000
842.905640	196.200000
842.939697	182.100000
842.973877	188.400000
843.007996	192.500000
843.042175	196.200000
843.076233	184.000000
843.110413	188.500000
843.144470	194.200000
843.178589	190.000000
843.212769	183.000000
843.246826	191.100000
843.280945	185.700000
843.315125	185.100000
843.349182	183.000000
843.383301	194.000000
843.417419	198.200000
843.451538	187.200000
843.485657	185.800000
843.519714	185.300000
843.553833	189.600000
843.587952	184.700000
843.622070	182.000000
843.656128	189.400000
843.690247	185.600000
843.724304	185.400000
843.758423	188.200000
843.792542	184.500000
843.826599	187.200000
843.860718	184.600000
843.894836	180.200000
843.928894	187.200000
843.963013	190.000000
843.997070	182.200000
844.031128	180.900000
844.065247	190.400000
844.099304	193.000000
844.133362	186.500000
844.167480	189.600000
844.201599	193.000000
844.235596	189.500000
844.269714	188.100000
844.303711	188.800000
844.337830	177.500000
844.371948	190.000000
844.405945	186.100000
844.440063	182.000000
844.474121	200.000000
844.508118	185.800000
844.542236	185.600000
844.576294	187.000000
844.610352	182.600000
844.644409	188.200000
844.678406	178.900000
844.712524	191.900000
844.746582	192.600000
844.780640	187.000000
844.814636	186.800000
844.848755	199.300000
844.882751	185.500000
844.916809	193.100000
844.950867	188.900000
844.984863	195.300000
845.018921	186.000000
845.052979	184.000000
845.086975	188.300000
845.121033	181.000000
845.155090	182.500000
845.189087	192.700000
845.223145	184.600000
845.257141	186.900000
845.291199	190.700000
845.325256	193.200000
845.359253	189.100000
845.393250	197.200000
845.427307	186.800000
845.461304	188.300000
845.495361	188.500000
845.529358	196.900000
845.563354	185.200000
845.597412	181.800000
845.631409	195.300000
845.665405	194.200000
845.699463	192.300000
845.733459	183.900000
845.767456	195.200000
845.801453	184.400000
845.835449	194.700000
845.869446	190.500000
845.903503	191.400000
845.937439	181.100000
845.971497	194.800000
846.005493	180.500000
846.039429	193.200000
846.073486	196.100000
846.107483	185.800000
846.141418	186.100000
846.175476	186.700000
846.209473	193.900000
846.243408	183.500000
846.277405	187.400000
846.311401	183.900000
846.345337	186.900000
846.379395	192.400000
846.413330	184.500000
846.447327	195.700000
846.481323	181.200000
846.515259	185.700000
846.549255	187.400000
846.583252	189.400000
846.617187	182.300000
846.651184	189.100000
846.685120	184.300000
846.719055	195.100000
846.753052	191.300000
846.786987	190.300000
846.820984	180.900000
846.854980	194.100000
846.888916	182.100000
846.922852	188.800000
846.956848	196.100000
846.990723	183.700000
847.024719	187.800000
847.058716	184.600000
847.092590	195.900000
847.126587	188.600000
847.160522	184.900000
847.194458	191.900000
847.228455	184.800000
847.262390	180.400000
847.296265	185.500000
847.330261	191.600000
847.364136	186.000000
847.398132	184.300000
847.432068	187.500000
847.466003	185.700000
847.499939	186.500000
847.533875	187.900000
847.567749	187.200000
847.601746	184.000000
847.635681	191.300000
847.669556	177.600000
847.703491	194.300000
847.737427	200.200000
847.771301	182.100000
847.805237	187.600000
847.839233	188.000000
847.873108	184.900000
847.907043	185.900000
847.940918	191.900000
847.974854	189.900000
848.008789	190.800000
848.042664	187.100000
848.076538	190.200000
848.110474	187.000000
848.144348	187.100000
848.178284	181.400000
848.212219	186.300000
848.246094	186.300000
848.279968	188.200000
848.313904	190.200000
848.347778	187.500000
848.381653	185.900000
848.415588	182.100000
848.449463	186.000000
848.483337	190.100000
848.517212	193.500000
848.551086	188.300000
848.585022	181.700000
848.618835	196.000000
848.652771	184.600000
848.686646	184.200000
848.720520	195.700000
848.754395	187.400000
848.788330	190.000000
848.822144	191.000000
848.856018	186.100000
848.889954	196.300000
848.923767	182.000000
848.957642	185.100000
848.991577	191.300000
849.025391	186.000000
849.059265	184.800000
849.093079	185.500000
849.126953	181.700000
849.160828	193.200000
849.194641	187.000000
849.228577	186.100000
849.262451	184.900000
849.296265	186.500000
849.330139	180.600000
849.364014	188.900000
849.397827	189.200000
849.431702	188.700000
849.465515	190.700000
849.499329	178.400000
849.533203	180.200000
849.567078	178.100000
849.600891	188.200000
849.634766	186.100000
849.668518	190.800000
849.702393	188.200000
849.736267	179.500000
849.770020	198.200000
849.803894	190.100000
849.837769	188.200000
849.871521	186.300000
849.905396	193.700000
849.939270	182.000000
849.973022	186.000000
850.006897	190.200000
850.040710	190.100000
850.074524	190.600000
850.108337	186.800000
850.142151	190.600000
850.175964	193.300000
850.209778	187.600000
850.243530	175.600000
850.277405	192.800000
850.311218	187.400000
850.344971	184.900000
850.378845	195.600000
850.412659	183.600000
850.446411	188.600000
850.480225	186.800000
850.514038	193.000000
850.547791	190.700000
850.581665	187.400000
850.615417	185.300000
850.649231	187.200000
850.683044	186.200000
850.716858	185.600000
850.750610	188.100000
850.784424	190.200000
850.818176	184.300000
850.851929	185.200000
850.885742	185.100000
850.919495	186.200000
850.953308	195.100000
850.987122	195.000000
851.020874	181.900000
851.054626	179.500000
851.088440	192.000000
851.122192	189.400000
851.156006	188.800000
851.189697	185.100000
851.223511	181.500000
851.257263	190.700000
851.291077	190.800000
851.324829	186.000000
851.358582	186.800000
851.392334	183.300000
851.426086	186.100000
851.459900	194.300000
851.493591	187.900000
851.527344	188.200000
851.561157	187.900000
851.594849	188.300000
851.628662	189.400000
851.662415	193.900000
851.696106	190.100000
851.729858	191.700000
851.763611	181.400000
851.797363	188.300000
851.831116	182.700000
851.864868	188.600000
851.898560	191.500000
851.932312	185.900000
851.966064	189.500000
851.999817	188.100000
852.033569	186.700000
852.067261	189.800000
852.101013	184.400000
852.134766	187.900000
852.168457	177.300000
852.202209	191.600000
852.235901	183.600000
852.269592	190.900000
852.303345	195.000000
852.337036	192.000000
852.370789	185.900000
852.404541	191.200000
852.438171	183.300000
852.471924	188.700000
852.505676	180.900000
852.539307	190.400000
852.573059	184.500000
852.606812	187.600000
852.640442	184.500000
852.674194	192.700000
852.707886	196.400000
852.741577	194.500000
852.775269	182.200000
852.809021	189.100000
852.842651	189.700000
852.876404	193.200000
852.910034	187.900000
852.943787	192.900000
852.977478	188.500000
853.011108	184.400000
853.044861	183.800000
853.078552	195.300000
853.112183	188.200000
853.145874	190.200000
853.179626	178.300000
853.213257	189.300000
853.246948	184.800000
853.280640	196.700000
853.314270	186.300000
853.347961	194.800000
853.381653	188.000000
853.415283	193.400000
853.448975	183.900000
853.482605	189.800000
853.516296	186.200000
853.549988	182.800000
853.583618	188.000000
853.617310	189.100000
853.651001	189.800000
853.684631	182.700000
853.718323	184.500000
853.751953	194.500000
853.785583	178.900000
853.819275	191.500000
853.852966	189.300000
853.886536	178.800000
853.920227	182.600000
853.953918	191.900000
853.987488	186.000000
854.021179	191.300000
854.054749	195.700000
854.088440	189.900000
854.122131	184.100000
854.155701	190.700000
854.189331	183.800000
854.223022	190.500000
854.256592	190.200000
854.290283	184.300000
854.323914	191.500000
854.357483	188.000000
854.391174	191.000000
854.424744	197.000000
854.458374	190.800000
854.492065	196.700000
854.525696	187.200000
854.559265	193.600000
854.592896	199.200000
854.626465	186.800000
854.660095	188.500000
854.693787	188.600000
854.727356	187.000000
854.760986	191.500000
854.794617	189.400000
854.828186	182.900000
854.861816	191.000000
854.895447	187.300000
854.929016	188.600000
854.962585	187.700000
854.996155	196.000000
855.029785	187.200000
855.063416	189.700000
855.097046	191.200000
855.130615	183.700000
855.164185	193.000000
855.197754	188.600000
855.231384	189.700000
855.264954	187.500000
855.298523	191.000000
855.332153	188.500000
855.365723	195.400000
855.399292	185.100000
855.432922	186.300000
855.466492	190.300000
855.500061	184.100000
855.533630	184.500000
855.567200	191.400000
855.600769	190.700000
855.634338	192.600000
855.667969	188.800000
855.701477	184.200000
855.735046	185.000000
855.768616	181.200000
855.802185	189.900000
855.835754	203.400000
855.869324	180.000000
855.902893	187.500000
855.936401	193.600000
855.969971	189.000000
856.003540	181.700000
856.037109	193.200000
856.070618	185.200000
856.104187	183.000000
856.137695	184.100000
856.171265	179.500000
856.204834	187.700000
856.238403	193.200000
856.271912	183.300000
856.305481	191.400000
856.338989	180.800000
856.372559	191.800000
856.406128	187.900000
856.439636	193.000000
856.473145	185.200000
856.506653	194.100000
856.540222	186.500000
856.573792	194.500000
856.607300	189.900000
856.640808	181.800000
856.674377	186.600000
856.707825	217.400000
856.741394	191.300000
856.774902	183.900000
856.808472	179.000000
856.841980	191.200000
856.875488	195.500000
856.908936	181.200000
856.942505	185.900000
856.976013	186.900000
857.009521	182.100000
857.043030	188.800000
857.076477	187.800000
857.110046	194.500000
857.143555	188.800000
857.177063	192.200000
857.210571	184.600000
857.244080	182.500000
857.277527	190.100000
857.311035	186.800000
857.344543	193.100000
857.378052	188.000000
857.411499	193.400000
857.445068	197.200000
857.478516	187.100000
857.512024	182.100000
857.545532	187.600000
857.578979	188.800000
857.612427	188.200000
857.645874	184.700000
857.679382	189.100000
857.712891	192.000000
857.746399	188.800000
857.779846	193.300000
857.813354	194.400000
857.846741	186.700000
857.880249	183.800000
857.913757	188.300000
857.947266	190.800000
857.980652	190.100000
858.014160	186.800000
858.047546	185.900000
858.081055	187.500000
858.114563	196.100000
858.147949	183.100000
858.181458	190.200000
858.214844	187.300000
858.248352	179.600000
858.281799	193.200000
858.315308	200.400000
858.348694	191.900000
858.382141	195.400000
858.415588	191.900000
858.449036	192.000000
858.482483	191.200000
858.515930	184.100000
858.549377	187.500000
858.582825	194.700000
858.616211	191.100000
858.649658	189.800000
858.683105	183.900000
858.716553	185.600000
858.750000	182.900000
858.783386	186.200000
858.816833	179.400000
858.850281	189.500000
858.883728	190.300000
858.917114	187.800000
858.950562	197.400000
858.983948	196.300000
859.017395	191.600000
859.050781	186.600000
859.084167	184.100000
859.117615	182.600000
859.151062	190.800000
859.184448	185.700000
859.217834	187.000000
859.251282	187.400000
859.284668	183.400000
859.318054	179.200000
859.351440	186.300000
859.384888	196.800000
859.418274	180.200000
859.451721	179.500000
859.485046	190.700000
859.518494	190.300000
859.551819	182.900000
859.585266	191.500000
859.618652	190.300000
859.652039	185.100000
859.685425	183.300000
859.718811	182.500000
859.752197	175.400000
859.785583	195.000000
859.819031	194.700000
859.852356	191.100000
859.885742	184.600000
859.919067	188.700000
859.952454	184.600000
859.985901	192.100000
860.019287	184.600000
860.052612	0.000000
860.085999	0.000000
860.119324	0.000000
860.152710	0.000000
860.186096	0.000000
860.219421	0.000000
860.252808	0.000000
860.286133	0.000000
860.319519	0.000000
860.352905	0.000000
860.386292	0.000000
860.419617	0.000000
860.452942	0.000000
860.486267	0.000000
860.519653	0.000000
860.553040	0.000000
860.586365	0.000000
860.619690	0.000000
860.653076	0.000000
860.686340	0.000000
860.719727	0.000000
860.753113	0.000000
860.786377	0.000000
860.819763	0.000000
860.853027	0.000000
860.886414	0.000000
860.919739	0.000000
860.953125	0.000000
860.986389	0.000000
861.019714	0.000000
861.053040	0.000000
861.086365	0.000000
861.119690	0.000000
861.153076	0.000000
861.186340	0.000000
861.219666	0.000000
861.252930	0.000000
861.286316	0.000000
861.319641	0.000000
861.352905	0.000000
861.386230	0.000000
861.419495	0.000000
861.452820	0.000000
861.486145	0.000000
861.519470	0.000000
861.552734	0.000000
861.586060	0.000000
861.619324	0.000000
861.652649	0.000000
861.685974	0.000000
861.719238	0.000000
861.752563	0.000000
861.785828	0.000000
861.819092	0.000000
861.852417	0.000000
861.885742	0.000000
861.918945	0.000000
861.952271	0.000000
861.985535	0.000000
862.018799	0.000000
862.052124	0.000000
862.085449	0.000000
862.118652	0.000000
862.151978	0.000000
862.185181	0.000000
862.218506	0.000000
862.251770	0.000000
862.285034	0.000000
862.318298	0.000000
862.351562	0.000000
862.384827	0.000000
862.418091	0.000000
862.451355	0.000000
862.484619	0.000000
862.517883	0.000000
862.551086	0.000000
862.584351	0.000000
862.617676	0.000000
862.650940	0.000000
862.684143	0.000000
862.717407	0.000000
862.750610	0.000000
862.783875	0.000000
862.817139	0.000000
862.850342	0.000000
862.883606	0.000000
862.916870	0.000000
862.950073	0.000000
862.983337	0.000000
863.016602	0.000000
863.049805	0.000000
863.083069	0.000000
863.116211	0.000000
863.149475	0.000000
863.182739	0.000000
863.216003	0.000000
863.249146	0.000000
863.282410	0.000000
863.315613	0.000000
863.348816	0.000000
863.382080	0.000000
863.415222	0.000000
863.448486	0.000000
863.481689	0.000000
863.514893	0.000000
863.548157	0.000000
863.581360	0.000000
863.614502	0.000000
863.647766	0.000000
863.680908	0.000000
863.714172	0.000000
863.747375	0.000000
863.780579	0.000000
863.813721	0.000000
863.846985	0.000000
863.880127	0.000000
863.913330	0.000000
863.946533	0.000000
863.979675	0.000000
864.012939	0.000000
