Model Number: SPM-001-M   
Serial Number: 10090201
Firmware Version: 004.17.6
Exposure Time: 500000.000000us
Data Taken on: 03-03-2021 10:50:01.146
Wavelength	Amplitude
733.770752	0.000000
733.808716	0.000000
733.846619	0.000000
733.884583	0.000000
733.922546	0.000000
733.960449	0.000000
733.998413	0.000000
734.036377	0.000000
734.074219	0.000000
734.112183	0.000000
734.150085	0.000000
734.188049	0.000000
734.226013	0.000000
734.263916	0.000000
734.301819	0.000000
734.339783	0.000000
734.377686	0.000000
734.415588	0.000000
734.453552	0.000000
734.491455	0.000000
734.529419	0.000000
734.567322	0.000000
734.605225	0.000000
734.643127	0.000000
734.681091	0.000000
734.718994	0.000000
734.756897	0.000000
734.794800	0.000000
734.832703	0.000000
734.870667	0.000000
734.908508	0.000000
734.946472	0.000000
734.984375	0.000000
735.022278	0.000000
735.060181	0.000000
735.098083	0.000000
735.135986	0.000000
735.173889	0.000000
735.211792	0.000000
735.249695	0.000000
735.287598	0.000000
735.325439	0.000000
735.363403	0.000000
735.401306	0.000000
735.439148	0.000000
735.477051	0.000000
735.515015	0.000000
735.552856	0.000000
735.590759	0.000000
735.628662	0.000000
735.666504	0.000000
735.704407	0.000000
735.742310	0.000000
735.780212	0.000000
735.818115	0.000000
735.856018	0.000000
735.893860	0.000000
735.931763	0.000000
735.969604	0.000000
736.007507	0.000000
736.045410	0.000000
736.083252	0.000000
736.121094	0.000000
736.158997	0.000000
736.196838	0.000000
736.234741	0.000000
736.272644	0.000000
736.310486	0.000000
736.348389	0.000000
736.386230	0.000000
736.424072	0.000000
736.461975	0.000000
736.499878	0.000000
736.537720	0.000000
736.575562	0.000000
736.613403	0.000000
736.651306	0.000000
736.689148	0.000000
736.726990	0.000000
736.764893	0.000000
736.802734	0.000000
736.840576	0.000000
736.878418	0.000000
736.916321	0.000000
736.954102	0.000000
736.992004	0.000000
737.029846	0.000000
737.067688	0.000000
737.105530	0.000000
737.143372	0.000000
737.181213	0.000000
737.219116	0.000000
737.256897	0.000000
737.294739	0.000000
737.332642	0.000000
737.370422	0.000000
737.408325	0.000000
737.446167	0.000000
737.483948	0.000000
737.521790	0.000000
737.559692	0.000000
737.597473	0.000000
737.635315	0.000000
737.673157	0.000000
737.710999	0.000000
737.748840	0.000000
737.786621	0.000000
737.824463	0.000000
737.862305	0.000000
737.900085	0.000000
737.937927	0.000000
737.975769	0.000000
738.013550	0.000000
738.051392	0.000000
738.089233	0.000000
738.127014	0.000000
738.164856	0.000000
738.202698	0.000000
738.240479	0.000000
738.278320	0.000000
738.316162	0.000000
738.353943	0.000000
738.391785	0.000000
738.429565	0.000000
738.467407	0.000000
738.505188	0.000000
738.542969	0.000000
738.580811	0.000000
738.618652	0.000000
738.656372	0.000000
738.694214	0.000000
738.732056	0.000000
738.769836	0.000000
738.807617	0.000000
738.845459	0.000000
738.883240	0.000000
738.921021	0.000000
738.958862	0.000000
738.996582	0.000000
739.034424	0.000000
739.072205	0.000000
739.109985	0.000000
739.147827	0.000000
739.185547	0.000000
739.223389	0.000000
739.261169	0.000000
739.298889	0.000000
739.336731	0.000000
739.374512	0.000000
739.412292	0.000000
739.450073	0.000000
739.487854	0.000000
739.525635	0.000000
739.563416	0.000000
739.601135	0.000000
739.638977	0.000000
739.676758	0.000000
739.714478	0.000000
739.752258	0.000000
739.790100	0.000000
739.827820	0.000000
739.865601	0.000000
739.903381	0.000000
739.941101	0.000000
739.978882	190.100000
740.016724	187.300000
740.054443	191.000000
740.092224	184.400000
740.130005	183.100000
740.167725	184.800000
740.205505	183.600000
740.243225	192.400000
740.281006	187.900000
740.318787	180.200000
740.356506	193.900000
740.394287	193.200000
740.432068	183.200000
740.469727	180.400000
740.507507	191.400000
740.545288	186.800000
740.583008	189.800000
740.620789	188.400000
740.658569	179.300000
740.696228	187.600000
740.734009	193.000000
740.771790	176.200000
740.809509	190.100000
740.847229	182.100000
740.884949	184.300000
740.922729	178.700000
740.960449	185.300000
740.998169	181.300000
741.035950	183.600000
741.073669	188.000000
741.111389	188.600000
741.149170	197.100000
741.186890	197.700000
741.224609	191.200000
741.262329	187.800000
741.300110	196.100000
741.337769	182.800000
741.375549	181.100000
741.413208	188.800000
741.450989	182.600000
741.488708	185.200000
741.526367	184.600000
741.564148	190.700000
741.601868	192.300000
741.639526	188.000000
741.677307	188.300000
741.715027	189.600000
741.752686	182.600000
741.790466	195.100000
741.828186	190.700000
741.865845	183.900000
741.903564	178.000000
741.941345	187.700000
741.979004	183.500000
742.016724	191.200000
742.054382	187.300000
742.092102	193.400000
742.129822	180.400000
742.167480	186.800000
742.205200	186.100000
742.242920	188.800000
742.280640	191.400000
742.318359	183.500000
742.356079	184.000000
742.393738	191.700000
742.431396	187.100000
742.469116	190.400000
742.506775	177.500000
742.544495	189.200000
742.582214	191.800000
742.619873	186.700000
742.657593	195.300000
742.695251	191.800000
742.732971	185.200000
742.770630	189.500000
742.808289	186.800000
742.846008	186.600000
742.883728	190.200000
742.921326	186.800000
742.959045	185.400000
742.996765	187.000000
743.034424	186.200000
743.072083	184.100000
743.109802	186.500000
743.147400	181.100000
743.185120	189.000000
743.222839	186.800000
743.260437	192.400000
743.298157	187.900000
743.335754	180.100000
743.373474	185.300000
743.411133	179.900000
743.448792	187.600000
743.486450	187.100000
743.524170	179.500000
743.561768	186.500000
743.599487	192.500000
743.637146	197.500000
743.674744	187.600000
743.712463	185.200000
743.750122	187.500000
743.787720	189.900000
743.825439	182.700000
743.863037	186.500000
743.900696	187.000000
743.938416	212.600000
743.976013	186.800000
744.013672	196.600000
744.051331	191.900000
744.088928	196.100000
744.126587	193.300000
744.164307	189.000000
744.201904	184.000000
744.239563	190.100000
744.277222	188.500000
744.314819	186.300000
744.352478	194.100000
744.390137	189.600000
744.427734	188.500000
744.465393	185.800000
744.502991	183.500000
744.540649	191.100000
744.578308	187.900000
744.615906	182.000000
744.653564	177.700000
744.691223	191.000000
744.728821	179.700000
744.766418	186.800000
744.804077	190.200000
744.841675	184.100000
744.879333	180.900000
744.916992	187.100000
744.954529	184.500000
744.992187	192.200000
745.029785	184.900000
745.067444	182.800000
745.105042	189.600000
745.142639	189.700000
745.180298	196.500000
745.217896	184.300000
745.255493	187.000000
745.293152	190.200000
745.330750	191.600000
745.368347	194.600000
745.405945	191.300000
745.443604	187.000000
745.481140	191.700000
745.518799	185.500000
745.556396	192.300000
745.593994	191.200000
745.631592	188.000000
745.669189	181.800000
745.706787	189.400000
745.744385	183.000000
745.781982	190.100000
745.819580	185.600000
745.857178	186.800000
745.894775	187.500000
745.932373	189.000000
745.969971	188.400000
746.007568	179.700000
746.045166	196.500000
746.082764	192.900000
746.120300	191.500000
746.157898	189.800000
746.195557	186.700000
746.233093	181.700000
746.270691	190.400000
746.308228	189.700000
746.345825	192.300000
746.383423	190.800000
746.420959	182.900000
746.458557	184.500000
746.496155	185.000000
746.533691	187.000000
746.571289	182.800000
746.608887	188.500000
746.646423	188.900000
746.684021	188.400000
746.721619	185.300000
746.759155	190.000000
746.796753	180.900000
746.834351	180.300000
746.871826	182.900000
746.909424	194.900000
746.946960	188.700000
746.984558	187.500000
747.022156	185.100000
747.059631	193.400000
747.097229	189.400000
747.134827	185.300000
747.172363	193.800000
747.209900	190.200000
747.247498	182.800000
747.285034	194.800000
747.322571	194.000000
747.360168	184.900000
747.397644	180.000000
747.435242	190.400000
747.472778	195.100000
747.510315	185.100000
747.547913	185.500000
747.585388	193.900000
747.622925	187.000000
747.660522	178.100000
747.697998	184.800000
747.735596	187.000000
747.773132	184.900000
747.810669	187.100000
747.848206	190.300000
747.885742	182.200000
747.923279	183.200000
747.960815	188.700000
747.998352	188.200000
748.035889	193.600000
748.073425	192.400000
748.110901	184.800000
748.148437	183.500000
748.185974	189.800000
748.223511	197.900000
748.261047	189.200000
748.298584	189.500000
748.336060	187.100000
748.373596	191.400000
748.411133	208.200000
748.448608	184.200000
748.486145	191.900000
748.523682	193.500000
748.561218	192.900000
748.598755	188.100000
748.636292	191.000000
748.673706	186.300000
748.711243	194.100000
748.748718	189.300000
748.786255	187.400000
748.823792	186.700000
748.861267	182.600000
748.898804	189.700000
748.936340	190.000000
748.973816	185.200000
749.011292	193.700000
749.048828	189.700000
749.086304	191.400000
749.123840	198.100000
749.161316	183.200000
749.198792	197.100000
749.236328	194.000000
749.273743	188.100000
749.311279	186.200000
749.348816	189.800000
749.386230	188.800000
749.423767	175.600000
749.461304	189.800000
749.498718	186.800000
749.536255	194.800000
749.573730	200.100000
749.611206	193.900000
749.648682	187.500000
749.686218	188.600000
749.723633	190.800000
749.761169	186.500000
749.798645	184.400000
749.836060	186.100000
749.873596	185.200000
749.911011	189.200000
749.948547	193.400000
749.986023	189.700000
750.023437	187.500000
750.060913	181.600000
750.098450	180.900000
750.135864	187.500000
750.173340	187.600000
750.210815	192.400000
750.248291	182.600000
750.285767	187.800000
750.323242	195.300000
750.360657	190.000000
750.398132	183.200000
750.435608	191.100000
750.473022	185.100000
750.510498	182.700000
750.547974	184.000000
750.585449	186.200000
750.622925	177.800000
750.660339	197.100000
750.697815	188.700000
750.735291	186.600000
750.772644	188.400000
750.810120	189.400000
750.847595	191.700000
750.885010	182.400000
750.922485	196.100000
750.959961	186.000000
750.997375	195.200000
751.034851	190.200000
751.072266	192.200000
751.109680	180.400000
751.147156	192.800000
751.184570	189.800000
751.221985	189.200000
751.259460	179.100000
751.296875	188.300000
751.334290	187.400000
751.371765	192.300000
751.409180	190.400000
751.446594	194.400000
751.484070	189.600000
751.521423	190.300000
751.558899	190.600000
751.596375	196.400000
751.633728	193.200000
751.671204	199.300000
751.708618	183.100000
751.746033	189.200000
751.783447	182.200000
751.820801	185.000000
751.858276	190.700000
751.895691	187.900000
751.933105	185.900000
751.970520	183.300000
752.007935	185.500000
752.045349	191.800000
752.082764	187.300000
752.120178	186.400000
752.157532	184.500000
752.195007	185.300000
752.232422	190.000000
752.269775	193.000000
752.307190	190.900000
752.344543	182.600000
752.382019	186.500000
752.419434	186.100000
752.456787	190.400000
752.494202	191.500000
752.531616	189.200000
752.568970	192.200000
752.606384	189.100000
752.643799	189.500000
752.681152	196.000000
752.718567	191.600000
752.755981	181.800000
752.793335	190.300000
752.830750	178.600000
752.868164	194.400000
752.905518	184.600000
752.942932	191.400000
752.980225	182.700000
753.017639	192.900000
753.055054	187.300000
753.092407	189.800000
753.129822	194.300000
753.167175	196.500000
753.204529	187.400000
753.241943	185.100000
753.279358	182.000000
753.316650	191.700000
753.354065	190.400000
753.391479	192.200000
753.428772	196.800000
753.466187	190.800000
753.503479	182.800000
753.540894	187.500000
753.578308	182.700000
753.615601	182.200000
753.653015	187.400000
753.690369	186.000000
753.727722	184.200000
753.765076	181.200000
753.802490	183.900000
753.839783	180.000000
753.877136	186.300000
753.914551	201.700000
753.951843	183.900000
753.989258	193.000000
754.026611	189.100000
754.063904	190.900000
754.101257	184.200000
754.138611	180.800000
754.175964	188.600000
754.213318	198.900000
754.250610	179.900000
754.288025	185.800000
754.325378	181.800000
754.362671	193.800000
754.400024	185.600000
754.437378	198.300000
754.474670	197.500000
754.512085	184.400000
754.549438	187.700000
754.586731	185.600000
754.624084	186.000000
754.661438	184.100000
754.698730	196.200000
754.736084	185.600000
754.773376	186.500000
754.810730	190.600000
754.848083	185.500000
754.885315	191.500000
754.922668	180.600000
754.960022	179.900000
754.997314	191.300000
755.034668	187.600000
755.072021	186.100000
755.109253	185.400000
755.146606	193.900000
755.183960	186.000000
755.221252	193.700000
755.258545	192.000000
755.295898	193.400000
755.333191	194.600000
755.370544	190.500000
755.407776	186.900000
755.445129	187.100000
755.482422	192.600000
755.519714	185.000000
755.557068	181.700000
755.594360	179.100000
755.631653	191.000000
755.668945	196.100000
755.706299	189.800000
755.743530	198.800000
755.780884	194.900000
755.818176	194.000000
755.855408	193.900000
755.892761	190.700000
755.930054	189.200000
755.967346	191.300000
756.004639	190.900000
756.041870	188.300000
756.079224	193.700000
756.116516	184.900000
756.153748	193.000000
756.191040	196.800000
756.228394	189.900000
756.265625	184.700000
756.302917	189.700000
756.340210	185.700000
756.377441	192.900000
756.414795	194.900000
756.452087	189.500000
756.489319	182.800000
756.526611	192.700000
756.563843	189.600000
756.601135	198.600000
756.638428	197.400000
756.675659	187.500000
756.712952	193.500000
756.750244	191.900000
756.787476	191.900000
756.824768	195.900000
756.862061	187.600000
756.899292	236.600000
756.936584	194.500000
756.973816	200.900000
757.011047	203.100000
757.048340	190.900000
757.085632	190.900000
757.122864	204.700000
757.160156	188.700000
757.197327	193.300000
757.234619	195.100000
757.271912	188.000000
757.309082	196.000000
757.346375	187.800000
757.383667	197.500000
757.420837	192.800000
757.458130	193.900000
757.495422	190.100000
757.532593	192.300000
757.569885	183.900000
757.607117	186.400000
757.644348	192.800000
757.681580	204.800000
757.718811	181.200000
757.756042	191.700000
757.793335	189.500000
757.830505	194.900000
757.867798	188.700000
757.905029	187.500000
757.942200	193.800000
757.979492	187.800000
758.016724	190.800000
758.053894	188.300000
758.091187	210.900000
758.128418	190.900000
758.165588	190.800000
758.202820	203.200000
758.240112	190.600000
758.277283	203.500000
758.314514	194.100000
758.351685	189.400000
758.388916	202.000000
758.426147	200.900000
758.463379	203.000000
758.500610	196.600000
758.537842	193.700000
758.575012	200.900000
758.612244	191.300000
758.649475	206.000000
758.686646	188.100000
758.723877	201.600000
758.761108	201.800000
758.798279	194.400000
758.835510	196.700000
758.872742	201.400000
758.909851	197.100000
758.947083	199.400000
758.984253	197.300000
759.021484	200.500000
759.058716	200.100000
759.095886	199.900000
759.133057	195.200000
759.170288	198.500000
759.207458	192.800000
759.244690	206.700000
759.281860	206.500000
759.319031	195.700000
759.356262	196.900000
759.393433	195.800000
759.430603	196.100000
759.467773	196.000000
759.505005	203.200000
759.542175	202.600000
759.579346	198.700000
759.616516	197.800000
759.653687	201.400000
759.690918	195.000000
759.728027	198.900000
759.765259	200.400000
759.802429	202.100000
759.839539	201.800000
759.876770	206.500000
759.913940	209.000000
759.951111	200.400000
759.988281	200.000000
760.025452	197.800000
760.062561	197.300000
760.099792	208.100000
760.136963	204.700000
760.174072	200.400000
760.211243	194.200000
760.248413	197.100000
760.285583	196.600000
760.322754	212.400000
760.359863	207.500000
760.397034	207.900000
760.434204	201.400000
760.471375	201.900000
760.508545	200.300000
760.545715	201.000000
760.582825	198.700000
760.619995	205.700000
760.657166	196.100000
760.694275	209.100000
760.731445	203.000000
760.768555	204.800000
760.805664	208.600000
760.842834	203.800000
760.879944	207.200000
760.917114	203.800000
760.954285	203.000000
760.991394	197.300000
761.028564	210.300000
761.065674	208.100000
761.102783	200.500000
761.139954	209.400000
761.177124	210.000000
761.214172	209.800000
761.251343	203.500000
761.288452	204.600000
761.325562	210.000000
761.362732	202.700000
761.399841	205.600000
761.436951	207.400000
761.474121	201.600000
761.511169	206.300000
761.548340	212.000000
761.585449	209.400000
761.622559	210.500000
761.659668	208.400000
761.696838	212.300000
761.733887	208.900000
761.771057	204.800000
761.808167	205.800000
761.845276	210.100000
761.882385	219.400000
761.919434	207.600000
761.956604	226.800000
761.993713	205.600000
762.030762	214.500000
762.067871	208.100000
762.105042	208.200000
762.142090	215.500000
762.179199	210.900000
762.216309	215.400000
762.253418	225.300000
762.290527	219.200000
762.327637	216.400000
762.364685	206.300000
762.401794	215.800000
762.438904	213.400000
762.475952	209.100000
762.513062	207.100000
762.550110	208.600000
762.587219	221.600000
762.624329	221.900000
762.661377	214.600000
762.698486	215.500000
762.735596	213.500000
762.772644	208.800000
762.809753	204.800000
762.846863	213.900000
762.883911	218.800000
762.921021	218.700000
762.958069	215.100000
762.995117	223.300000
763.032227	221.800000
763.069336	214.900000
763.106323	210.200000
763.143433	210.600000
763.180481	218.400000
763.217590	218.300000
763.254639	213.200000
763.291687	215.600000
763.328735	223.400000
763.365845	216.000000
763.402893	216.300000
763.439941	218.500000
763.477051	220.200000
763.514038	222.700000
763.551147	217.300000
763.588196	220.300000
763.625244	219.600000
763.662292	225.400000
763.699402	227.700000
763.736389	221.800000
763.773499	230.200000
763.810486	222.800000
763.847534	219.400000
763.884644	222.900000
763.921631	219.400000
763.958679	232.000000
763.995728	220.900000
764.032776	230.300000
764.069824	219.700000
764.106873	226.800000
764.143860	232.700000
764.180969	222.400000
764.218018	229.900000
764.255005	222.000000
764.292053	224.600000
764.329102	234.300000
764.366089	234.500000
764.403137	234.200000
764.440125	223.600000
764.477173	227.300000
764.514221	230.200000
764.551208	228.900000
764.588257	224.500000
764.625305	233.700000
764.662292	238.500000
764.699341	240.900000
764.736389	234.600000
764.773376	247.300000
764.810425	234.800000
764.847473	243.700000
764.884399	237.500000
764.921448	246.000000
764.958435	245.500000
764.995483	234.400000
765.032532	250.200000
765.069458	238.100000
765.106506	238.100000
765.143555	236.900000
765.180481	239.900000
765.217529	247.300000
765.254578	232.900000
765.291504	241.800000
765.328552	240.300000
765.365540	237.800000
765.402527	252.400000
765.439575	239.100000
765.476501	233.900000
765.513550	236.700000
765.550537	241.800000
765.587463	250.900000
765.624512	241.400000
765.661499	232.500000
765.698486	248.100000
765.735474	238.700000
765.772461	241.800000
765.809448	251.600000
765.846436	247.600000
765.883423	252.700000
765.920410	247.200000
765.957397	243.500000
765.994385	248.300000
766.031311	258.200000
766.068359	250.800000
766.105286	249.300000
766.142273	253.400000
766.179260	250.500000
766.216187	242.800000
766.253174	242.600000
766.290161	249.000000
766.327148	252.600000
766.364136	253.900000
766.401123	268.900000
766.438049	245.600000
766.475037	259.900000
766.512024	256.600000
766.548950	270.800000
766.585937	263.800000
766.622864	260.900000
766.659790	256.300000
766.696777	248.000000
766.733704	263.800000
766.770691	255.000000
766.807678	269.000000
766.844604	263.000000
766.881531	261.500000
766.918518	266.100000
766.955444	269.700000
766.992432	261.200000
767.029358	263.200000
767.066284	269.000000
767.103271	263.400000
767.140198	293.000000
767.177124	279.900000
767.214050	268.700000
767.251038	271.500000
767.287964	268.400000
767.324890	264.700000
767.361816	268.600000
767.398743	274.200000
767.435730	265.900000
767.472595	271.700000
767.509583	277.000000
767.546509	264.300000
767.583374	269.100000
767.620361	264.200000
767.657288	270.900000
767.694214	271.000000
767.731140	267.900000
767.768066	271.200000
767.804993	275.600000
767.841919	266.000000
767.878845	273.200000
767.915710	282.000000
767.952698	274.100000
767.989563	277.000000
768.026489	274.500000
768.063416	270.000000
768.100281	270.000000
768.137207	285.400000
768.174133	281.000000
768.211060	280.700000
768.247986	279.100000
768.284912	280.100000
768.321777	281.100000
768.358704	276.800000
768.395630	280.900000
768.432495	274.900000
768.469421	282.200000
768.506348	286.600000
768.543152	290.800000
768.580078	288.600000
768.616943	287.600000
768.653870	289.400000
768.690796	286.100000
768.727661	287.100000
768.764587	287.000000
768.801453	282.900000
768.838318	292.600000
768.875244	290.300000
768.912109	296.700000
768.948975	289.600000
768.985901	288.600000
769.022766	289.900000
769.059631	293.800000
769.096558	287.400000
769.133362	289.400000
769.170288	292.500000
769.207214	291.500000
769.244019	296.000000
769.280945	295.100000
769.317810	300.200000
769.354675	295.400000
769.391541	304.200000
769.428406	299.100000
769.465271	307.300000
769.502136	298.200000
769.539062	302.300000
769.575867	302.100000
769.612732	304.100000
769.649597	308.400000
769.686462	312.400000
769.723328	303.900000
769.760193	301.800000
769.797058	306.800000
769.833923	313.800000
769.870728	309.100000
769.907593	314.100000
769.944519	310.600000
769.981323	313.900000
770.018188	317.100000
770.055054	313.200000
770.091858	314.000000
770.128723	322.400000
770.165588	329.100000
770.202393	313.400000
770.239258	324.700000
770.276062	322.600000
770.312927	320.700000
770.349792	329.800000
770.386597	325.500000
770.423462	337.700000
770.460327	341.800000
770.497131	328.900000
770.533997	323.100000
770.570862	335.600000
770.607605	337.200000
770.644470	332.700000
770.681335	337.800000
770.718140	336.200000
770.754944	331.800000
770.791809	329.200000
770.828613	333.900000
770.865479	334.200000
770.902222	347.600000
770.939087	340.900000
770.975952	329.600000
771.012695	338.400000
771.049561	351.400000
771.086365	340.400000
771.123169	336.900000
771.159973	341.200000
771.196838	342.200000
771.233582	346.200000
771.270447	346.400000
771.307251	348.600000
771.344055	345.800000
771.380859	349.500000
771.417664	344.400000
771.454468	354.800000
771.491272	355.900000
771.528076	353.700000
771.564880	353.400000
771.601685	361.600000
771.638428	350.400000
771.675293	359.800000
771.712097	349.400000
771.748840	367.600000
771.785645	357.200000
771.822449	363.300000
771.859253	363.500000
771.896057	361.900000
771.932861	371.500000
771.969604	360.900000
772.006409	355.800000
772.043213	368.500000
772.079956	365.500000
772.116760	360.400000
772.153503	362.800000
772.190308	374.300000
772.227112	363.800000
772.263855	359.100000
772.300659	366.500000
772.337463	376.300000
772.374207	364.000000
772.411011	363.400000
772.447754	365.000000
772.484497	381.900000
772.521301	373.700000
772.558105	369.600000
772.594849	374.200000
772.631592	377.400000
772.668396	378.000000
772.705139	380.900000
772.741882	373.800000
772.778625	387.600000
772.815430	390.200000
772.852173	383.600000
772.888916	392.600000
772.925720	392.500000
772.962463	398.200000
772.999207	391.100000
773.035950	397.800000
773.072754	395.400000
773.109436	390.200000
773.146240	390.900000
773.182922	391.300000
773.219727	399.900000
773.256470	395.900000
773.293152	383.600000
773.329956	391.700000
773.366699	397.400000
773.403381	388.600000
773.440186	395.900000
773.476929	399.200000
773.513611	390.700000
773.550354	392.100000
773.587158	392.200000
773.623840	388.600000
773.660583	396.200000
773.697327	408.600000
773.734009	398.100000
773.770813	399.800000
773.807495	395.100000
773.844238	396.600000
773.880981	411.700000
773.917664	406.900000
773.954407	414.900000
773.991150	406.700000
774.027832	409.900000
774.064575	403.800000
774.101318	410.400000
774.138000	415.000000
774.174744	411.000000
774.211487	412.200000
774.248108	401.400000
774.284851	400.000000
774.321594	411.100000
774.358276	410.800000
774.395020	423.000000
774.431702	421.100000
774.468384	411.900000
774.505127	407.400000
774.541809	417.300000
774.578491	424.900000
774.615234	428.500000
774.651917	415.500000
774.688599	421.800000
774.725342	430.100000
774.762024	425.800000
774.798706	431.200000
774.835449	436.000000
774.872070	440.400000
774.908813	438.000000
774.945496	433.700000
774.982178	434.200000
775.018860	436.800000
775.055542	440.000000
775.092224	441.300000
775.128967	447.400000
775.165588	447.300000
775.202271	440.400000
775.239014	450.900000
775.275635	450.100000
775.312317	443.900000
775.349060	453.500000
775.385681	451.400000
775.422363	444.200000
775.459045	450.700000
775.495667	452.100000
775.532410	456.100000
775.569092	456.100000
775.605713	458.600000
775.642395	457.700000
775.679016	460.200000
775.715698	458.800000
775.752380	463.100000
775.789001	457.800000
775.825684	456.400000
775.862366	461.100000
775.898987	473.200000
775.935669	463.200000
775.972351	484.600000
776.008972	479.200000
776.045654	478.800000
776.082336	474.100000
776.118958	474.600000
776.155640	475.100000
776.192322	481.900000
776.228882	488.200000
776.265564	486.500000
776.302185	483.300000
776.338867	492.100000
776.375488	481.400000
776.412109	494.100000
776.448792	498.300000
776.485413	505.700000
776.522034	494.300000
776.558716	492.700000
776.595337	492.200000
776.631958	499.500000
776.668579	499.300000
776.705261	508.600000
776.741882	504.900000
776.778503	504.700000
776.815186	500.000000
776.851746	510.500000
776.888367	507.400000
776.924988	520.400000
776.961609	506.300000
776.998291	512.000000
777.034851	502.100000
777.071472	519.800000
777.108154	513.900000
777.144714	527.200000
777.181335	521.300000
777.218018	512.500000
777.254578	522.900000
777.291199	520.400000
777.327759	527.000000
777.364380	533.900000
777.401062	538.600000
777.437622	552.800000
777.474243	538.500000
777.510864	547.800000
777.547424	541.100000
777.584045	545.600000
777.620667	545.000000
777.657227	547.700000
777.693848	550.300000
777.730469	564.800000
777.767029	554.700000
777.803650	559.000000
777.840271	551.400000
777.876831	552.800000
777.913452	563.200000
777.950012	544.700000
777.986633	545.700000
778.023193	545.600000
778.059753	543.800000
778.096375	544.700000
778.132996	557.100000
778.169556	547.500000
778.206116	549.900000
778.242737	546.700000
778.279297	553.400000
778.315857	545.000000
778.352478	553.300000
778.389038	560.600000
778.425598	561.100000
778.462219	566.500000
778.498718	563.900000
778.535339	571.600000
778.571838	571.100000
778.608459	578.800000
778.645020	570.000000
778.681580	576.200000
778.718140	581.500000
778.754761	571.100000
778.791260	578.500000
778.827881	588.600000
778.864441	585.200000
778.900940	589.100000
778.937561	591.100000
778.974121	585.900000
779.010620	573.500000
779.047241	575.400000
779.083801	587.700000
779.120300	582.600000
779.156860	588.400000
779.193359	583.700000
779.229980	583.300000
779.266541	585.000000
779.303040	593.200000
779.339600	583.300000
779.376160	579.100000
779.412659	584.800000
779.449219	578.800000
779.485779	589.800000
779.522278	587.900000
779.558838	592.100000
779.595398	593.300000
779.631897	589.300000
779.668457	579.500000
779.705017	591.900000
779.741516	585.300000
779.778076	581.200000
779.814575	586.900000
779.851074	590.600000
779.887634	587.300000
779.924133	597.300000
779.960693	587.700000
779.997253	596.600000
780.033691	602.900000
780.070251	605.400000
780.106812	612.500000
780.143250	605.600000
780.179810	599.900000
780.216370	601.400000
780.252808	608.000000
780.289368	617.100000
780.325867	615.600000
780.362366	610.600000
780.398865	620.500000
780.435364	615.900000
780.471863	625.100000
780.508423	622.200000
780.544861	627.700000
780.581421	627.800000
780.617920	617.000000
780.654419	616.300000
780.690918	624.700000
780.727417	634.300000
780.763916	628.900000
780.800415	638.400000
780.836914	626.500000
780.873352	634.700000
780.909912	624.800000
780.946411	631.100000
780.982849	640.700000
781.019348	654.200000
781.055786	643.400000
781.092346	641.700000
781.128845	649.500000
781.165283	655.200000
781.201782	659.200000
781.238281	664.400000
781.274719	666.600000
781.311218	661.100000
781.347717	670.600000
781.384155	657.000000
781.420654	662.500000
781.457092	671.900000
781.493591	666.100000
781.530090	662.800000
781.566528	669.000000
781.602966	670.900000
781.639465	665.000000
781.675903	662.100000
781.712402	671.500000
781.748901	677.800000
781.785278	667.800000
781.821777	672.800000
781.858276	671.500000
781.894714	686.100000
781.931152	678.800000
781.967651	691.500000
782.004089	682.400000
782.040527	696.800000
782.076965	699.300000
782.113403	700.700000
782.149902	705.400000
782.186340	699.300000
782.222778	714.700000
782.259277	703.900000
782.295654	704.900000
782.332092	712.400000
782.368591	711.800000
782.404968	707.100000
782.441467	712.500000
782.477905	714.900000
782.514282	708.900000
782.550781	721.500000
782.587219	720.600000
782.623596	724.700000
782.660095	725.200000
782.696472	733.600000
782.732910	734.900000
782.769348	740.700000
782.805786	755.900000
782.842224	753.500000
782.878662	748.100000
782.915039	752.200000
782.951477	756.300000
782.987915	749.200000
783.024292	766.500000
783.060730	767.300000
783.097168	756.100000
783.133545	749.700000
783.169983	748.400000
783.206421	743.700000
783.242798	746.600000
783.279236	734.000000
783.315613	728.400000
783.352051	722.600000
783.388489	718.200000
783.424866	707.200000
783.461304	714.700000
783.497681	721.200000
783.534058	718.300000
783.570496	719.100000
783.606934	714.200000
783.643250	722.600000
783.679687	731.600000
783.716125	723.700000
783.752441	737.500000
783.788879	755.600000
783.825317	766.800000
783.861633	771.400000
783.898071	769.200000
783.934448	788.400000
783.970825	795.600000
784.007263	797.300000
784.043579	805.000000
784.080017	807.800000
784.116394	799.600000
784.152710	802.000000
784.189148	805.500000
784.225525	804.300000
784.261902	796.600000
784.298279	790.600000
784.334656	791.100000
784.371033	777.500000
784.407410	781.600000
784.443787	768.100000
784.480164	750.600000
784.516541	735.200000
784.552856	739.900000
784.589233	730.400000
784.625610	728.700000
784.661987	753.600000
784.698364	745.600000
784.734741	740.000000
784.771057	741.200000
784.807434	744.000000
784.843811	752.100000
784.880127	751.800000
784.916504	775.600000
784.952881	774.900000
784.989197	762.400000
785.025574	753.400000
785.061951	740.100000
785.098267	731.200000
785.134644	697.700000
785.170959	666.000000
785.207275	635.700000
785.243652	604.200000
785.279968	554.900000
785.316345	526.400000
785.352722	500.800000
785.388977	482.100000
785.425354	462.300000
785.461731	458.400000
785.498047	465.300000
785.534363	475.000000
785.570679	489.800000
785.606995	511.200000
785.643372	541.600000
785.679687	569.400000
785.716003	585.600000
785.752380	610.900000
785.788635	638.100000
785.825012	677.600000
785.861328	705.500000
785.897644	714.500000
785.933960	739.800000
785.970337	757.600000
786.006592	777.900000
786.042908	789.400000
786.079285	804.500000
786.115540	817.800000
786.151855	819.800000
786.188171	810.700000
786.224487	811.200000
786.260803	806.300000
786.297119	815.800000
786.333435	810.200000
786.369751	801.300000
786.406006	806.500000
786.442322	790.500000
786.478638	783.300000
786.514954	798.800000
786.551270	794.600000
786.587585	804.500000
786.623840	790.900000
786.660156	788.300000
786.696472	774.600000
786.732727	771.900000
786.769043	776.300000
786.805298	764.600000
786.841614	768.700000
786.877930	779.100000
786.914124	769.400000
786.950439	792.000000
786.986755	797.600000
787.023010	816.300000
787.059326	824.200000
787.095642	823.100000
787.131836	836.400000
787.168152	826.500000
787.204468	826.700000
787.240723	844.700000
787.276978	847.800000
787.313293	854.200000
787.349548	848.300000
787.385803	844.900000
787.422058	837.500000
787.458313	827.000000
787.494629	831.800000
787.530823	831.400000
787.567139	819.600000
787.603455	816.700000
787.639648	803.200000
787.675903	810.700000
787.712219	807.200000
787.748413	805.800000
787.784729	817.800000
787.820984	802.600000
787.857178	792.000000
787.893494	790.000000
787.929749	792.800000
787.965942	800.900000
788.002258	817.500000
788.038452	829.200000
788.074707	823.200000
788.110962	831.600000
788.147217	832.000000
788.183472	842.200000
788.219727	852.900000
788.255920	869.900000
788.292175	882.100000
788.328430	878.700000
788.364624	863.700000
788.400879	857.200000
788.437134	859.300000
788.473328	863.600000
788.509583	863.400000
788.545837	858.100000
788.582031	856.000000
788.618286	851.400000
788.654480	845.900000
788.690735	856.800000
788.726990	879.500000
788.763184	874.400000
788.799377	891.000000
788.835632	878.000000
788.871826	889.200000
788.908081	886.600000
788.944336	879.700000
788.980469	897.300000
789.016724	887.900000
789.052979	890.700000
789.089111	882.900000
789.125366	891.300000
789.161621	876.700000
789.197754	886.300000
789.234009	880.800000
789.270142	874.800000
789.306396	867.600000
789.342590	864.700000
789.378784	842.100000
789.414978	837.900000
789.451233	858.300000
789.487366	856.500000
789.523621	873.400000
789.559814	864.400000
789.595947	855.900000
789.632202	864.400000
789.668335	876.800000
789.704529	892.800000
789.740784	908.000000
789.776917	910.900000
789.813110	902.300000
789.849304	917.800000
789.885498	913.200000
789.921692	927.900000
789.957886	934.200000
789.994019	940.600000
790.030212	938.900000
790.066406	945.200000
790.102539	935.700000
790.138733	949.200000
790.174927	947.900000
790.211060	968.500000
790.247253	951.300000
790.283386	943.600000
790.319580	927.400000
790.355774	911.300000
790.391907	910.400000
790.428101	929.500000
790.464294	921.400000
790.500427	922.700000
790.536621	907.900000
790.572754	890.900000
790.608887	886.100000
790.645081	892.400000
790.681274	907.600000
790.717346	911.500000
790.753540	899.400000
790.789734	875.900000
790.825867	858.500000
790.862000	865.000000
790.898132	878.400000
790.934265	876.500000
790.970459	883.400000
791.006592	879.600000
791.042725	878.000000
791.078918	865.800000
791.114990	861.400000
791.151184	859.500000
791.187317	882.600000
791.223389	877.700000
791.259583	862.200000
791.295715	865.300000
791.331848	866.900000
791.367981	880.700000
791.404114	886.600000
791.440247	888.000000
791.476379	895.100000
791.512451	880.300000
791.548584	879.000000
791.584778	869.900000
791.620850	888.500000
791.656982	895.800000
791.693115	900.300000
791.729187	895.800000
791.765381	883.200000
791.801514	886.900000
791.837585	892.800000
791.873718	901.200000
791.909851	907.500000
791.945923	913.100000
791.982056	880.500000
792.018188	876.600000
792.054260	876.300000
792.090393	879.300000
792.126465	870.800000
792.162598	880.000000
792.198669	865.100000
792.234741	863.200000
792.270874	853.500000
792.307007	841.400000
792.343079	848.600000
792.379150	860.300000
792.415283	846.200000
792.451355	851.800000
792.487488	829.900000
792.523560	830.600000
792.559631	817.800000
792.595764	784.200000
792.631836	748.500000
792.667908	741.100000
792.703979	720.200000
792.740051	740.200000
792.776184	771.700000
792.812256	782.500000
792.848328	792.400000
792.884399	800.100000
792.920471	806.000000
792.956543	799.200000
792.992615	802.000000
793.028748	799.300000
793.064758	804.200000
793.100830	818.400000
793.136963	835.800000
793.172974	836.300000
793.209045	826.700000
793.245178	839.500000
793.281189	820.600000
793.317261	826.900000
793.353271	832.100000
793.389404	843.600000
793.425476	837.800000
793.461487	823.500000
793.497559	814.900000
793.533630	819.900000
793.569641	815.300000
793.605713	818.400000
793.641785	822.200000
793.677795	831.200000
793.713867	820.100000
793.749878	825.800000
793.785950	835.600000
793.822021	843.300000
793.858032	823.700000
793.894104	844.400000
793.930176	830.800000
793.966187	835.400000
794.002258	822.400000
794.038269	829.500000
794.074280	826.000000
794.110352	854.700000
794.146423	835.400000
794.182373	829.500000
794.218445	827.000000
794.254517	818.700000
794.290466	802.000000
794.326538	810.800000
794.362549	817.300000
794.398560	821.800000
794.434631	824.100000
794.470581	809.000000
794.506653	802.200000
794.542664	807.600000
794.578674	811.700000
794.614685	812.800000
794.650757	809.300000
794.686707	809.400000
794.722778	801.600000
794.758789	807.800000
794.794739	814.100000
794.830811	838.900000
794.866821	857.800000
794.902771	853.900000
794.938843	844.400000
794.974792	845.500000
795.010803	845.300000
795.046814	848.900000
795.082825	840.800000
795.118835	856.400000
795.154846	834.400000
795.190796	840.100000
795.226807	819.600000
795.262817	824.700000
795.298767	824.000000
795.334778	831.900000
795.370850	823.400000
795.406799	827.200000
795.442810	813.700000
795.478821	812.600000
795.514709	809.000000
795.550720	829.800000
795.586670	811.300000
795.622681	819.300000
795.658691	820.500000
795.694641	821.000000
795.730652	808.700000
795.766663	814.700000
795.802551	816.900000
795.838562	839.600000
795.874573	827.200000
795.910522	824.500000
795.946472	815.600000
795.982483	816.200000
796.018433	813.700000
796.054382	826.100000
796.090393	818.300000
796.126282	813.700000
796.162292	809.700000
796.198242	798.900000
796.234192	796.800000
796.270203	794.900000
796.306091	800.100000
796.342041	809.900000
796.378052	803.800000
796.413940	798.000000
796.449951	807.900000
796.485901	801.400000
796.521790	807.300000
796.557800	822.200000
796.593689	823.400000
796.629639	815.200000
796.665649	812.700000
796.701599	807.300000
796.737488	800.700000
796.773437	811.800000
796.809387	813.000000
796.845337	815.000000
796.881287	806.400000
796.917175	787.300000
796.953125	786.200000
796.989075	799.900000
797.024963	802.800000
797.060913	801.500000
797.096863	797.900000
797.132751	791.600000
797.168701	779.000000
797.204590	783.200000
797.240540	786.200000
797.276489	794.500000
797.312439	804.000000
797.348328	799.100000
797.384277	787.800000
797.420166	777.800000
797.456055	775.000000
797.492004	773.100000
797.527893	781.300000
797.563843	788.000000
797.599731	779.500000
797.635620	764.700000
797.671570	771.300000
797.707520	777.200000
797.743347	774.500000
797.779297	783.100000
797.815125	775.300000
797.851074	769.800000
797.887024	755.800000
797.922913	750.500000
797.958801	757.800000
797.994690	757.200000
798.030579	768.100000
798.066467	773.400000
798.102356	761.600000
798.138245	752.800000
798.174133	747.100000
798.210083	754.600000
798.245911	762.400000
798.281799	765.900000
798.317749	758.200000
798.353577	749.200000
798.389465	746.000000
798.425293	743.100000
798.461243	747.200000
798.497131	752.800000
798.532959	755.400000
798.568848	767.700000
798.604736	750.400000
798.640564	733.800000
798.676453	737.500000
798.712402	737.000000
798.748230	747.700000
798.784119	745.300000
798.820007	743.600000
798.855835	741.400000
798.891724	731.200000
798.927551	726.600000
798.963379	733.800000
798.999268	731.500000
799.035095	725.300000
799.070984	718.700000
799.106873	709.300000
799.142700	713.000000
799.178528	707.700000
799.214417	707.600000
799.250244	721.000000
799.286133	714.900000
799.321960	713.600000
799.357788	705.300000
799.393677	698.200000
799.429504	696.200000
799.465332	701.300000
799.501221	707.100000
799.537048	705.000000
799.572876	697.600000
799.608704	697.700000
799.644531	703.900000
799.680359	706.400000
799.716248	717.100000
799.752014	726.800000
799.787903	710.800000
799.823730	707.900000
799.859558	697.900000
799.895386	700.600000
799.931213	703.900000
799.967041	698.200000
800.002869	698.100000
800.038696	719.700000
800.074463	691.700000
800.110352	699.800000
800.146179	687.800000
800.181946	701.700000
800.217773	700.900000
800.253540	696.500000
800.289429	691.800000
800.325256	685.500000
800.361023	675.700000
800.396851	681.400000
800.432678	688.600000
800.468445	688.000000
800.504272	684.900000
800.540100	674.000000
800.575867	671.700000
800.611694	675.000000
800.647461	669.400000
800.683289	674.000000
800.719116	678.700000
800.754883	678.200000
800.790649	664.700000
800.826477	659.000000
800.862244	677.100000
800.898071	665.700000
800.933838	665.400000
800.969604	665.100000
801.005432	660.400000
801.041199	662.900000
801.076965	649.800000
801.112793	644.000000
801.148560	640.800000
801.184326	641.200000
801.220154	649.100000
801.255859	636.400000
801.291687	637.100000
801.327454	634.700000
801.363281	635.400000
801.398987	630.000000
801.434814	632.400000
801.470520	643.000000
801.506287	630.600000
801.542114	625.100000
801.577820	632.200000
801.613647	629.800000
801.649414	626.000000
801.685120	630.400000
801.720886	635.500000
801.756714	625.200000
801.792419	618.400000
801.828186	607.900000
801.863892	619.800000
801.899719	608.800000
801.935486	609.000000
801.971252	615.800000
802.006958	612.300000
802.042725	605.700000
802.078430	606.200000
802.114197	602.800000
802.149963	621.400000
802.185669	604.900000
802.221436	605.600000
802.257202	607.600000
802.292908	604.900000
802.328674	608.100000
802.364441	611.300000
802.400146	608.300000
802.435913	603.600000
802.471558	603.300000
802.507324	598.500000
802.543091	597.400000
802.578796	609.100000
802.614502	604.500000
802.650269	611.000000
802.685974	596.300000
802.721741	601.200000
802.757446	602.900000
802.793152	597.600000
802.828918	607.800000
802.864624	605.500000
802.900330	606.900000
802.936035	600.000000
802.971802	600.400000
803.007446	591.200000
803.043213	584.800000
803.078857	596.300000
803.114624	580.500000
803.150330	589.300000
803.185974	583.700000
803.221741	583.900000
803.257446	595.500000
803.293152	594.400000
803.328857	587.100000
803.364563	584.800000
803.400208	579.100000
803.435974	584.500000
803.471680	577.200000
803.507324	572.400000
803.543030	583.700000
803.578735	587.900000
803.614441	578.800000
803.650146	586.600000
803.685791	575.700000
803.721497	574.700000
803.757202	566.300000
803.792847	575.200000
803.828552	565.400000
803.864258	566.000000
803.899902	564.900000
803.935608	550.300000
803.971313	555.100000
804.006958	556.500000
804.042664	550.800000
804.078308	556.700000
804.113953	551.500000
804.149658	560.600000
804.185364	548.800000
804.221008	556.500000
804.256714	544.900000
804.292297	542.100000
804.328003	543.100000
804.363708	534.300000
804.399292	540.500000
804.434998	538.100000
804.470703	530.500000
804.506287	542.800000
804.541992	535.900000
804.577637	538.300000
804.613281	526.800000
804.648926	523.600000
804.684570	526.800000
804.720215	523.200000
804.755920	521.400000
804.791565	519.600000
804.827209	527.000000
804.862854	519.300000
804.898437	512.800000
804.934143	515.400000
804.969788	512.800000
805.005371	516.100000
805.041077	516.000000
805.076721	515.500000
805.112305	503.800000
805.147949	505.800000
805.183655	500.900000
805.219238	506.300000
805.254883	504.600000
805.290466	512.900000
805.326111	504.500000
805.361755	498.600000
805.397400	502.000000
805.432983	503.400000
805.468628	499.200000
805.504211	505.400000
805.539856	502.300000
805.575500	508.300000
805.611084	498.800000
805.646729	485.200000
805.682373	489.700000
805.717957	501.400000
805.753601	500.100000
805.789246	483.600000
805.824768	496.400000
805.860413	496.700000
805.895996	485.600000
805.931641	484.200000
805.967224	492.700000
806.002869	485.100000
806.038452	495.700000
806.074036	496.500000
806.109619	483.600000
806.145264	480.800000
806.180847	482.900000
806.216431	479.400000
806.252014	484.700000
806.287659	485.500000
806.323181	491.700000
806.358826	486.600000
806.394409	467.000000
806.429993	471.500000
806.465576	487.100000
806.501160	470.400000
806.536743	463.600000
806.572327	475.200000
806.607910	472.900000
806.643494	474.900000
806.679077	466.400000
806.714661	467.000000
806.750244	470.300000
806.785828	458.400000
806.821350	464.400000
806.856934	470.000000
806.892517	465.200000
806.928101	456.000000
806.963684	459.700000
806.999268	470.300000
807.034790	452.000000
807.070374	458.500000
807.105896	450.600000
807.141479	447.900000
807.177063	457.100000
807.212585	449.800000
807.248169	449.000000
807.283752	453.500000
807.319275	449.400000
807.354858	451.400000
807.390381	447.300000
807.425903	444.400000
807.461487	441.000000
807.497070	436.700000
807.532593	437.900000
807.568115	433.800000
807.603699	433.000000
807.639221	429.100000
807.674744	434.800000
807.710266	440.800000
807.745850	441.300000
807.781372	434.300000
807.816895	430.100000
807.852417	433.400000
807.888000	433.100000
807.923523	424.800000
807.959045	432.000000
807.994629	420.900000
808.030090	420.700000
808.065613	427.800000
808.101135	430.600000
808.136658	425.400000
808.172241	423.800000
808.207764	424.300000
808.243225	419.800000
808.278809	413.800000
808.314270	421.700000
808.349792	409.400000
808.385315	411.200000
808.420837	416.000000
808.456360	422.000000
808.491882	421.500000
808.527344	415.100000
808.562866	425.000000
808.598389	416.000000
808.633850	411.700000
808.669434	407.700000
808.704895	416.500000
808.740417	421.000000
808.775940	413.000000
808.811462	410.400000
808.846924	404.300000
808.882385	399.700000
808.917847	402.200000
808.953369	404.200000
808.988892	401.100000
809.024353	409.600000
809.059875	407.500000
809.095398	402.400000
809.130798	396.300000
809.166321	395.800000
809.201843	397.300000
809.237305	397.800000
809.272766	406.500000
809.308228	391.300000
809.343750	391.600000
809.379211	393.600000
809.414734	394.300000
809.450134	402.300000
809.485657	386.300000
809.521118	391.500000
809.556580	391.100000
809.592102	387.900000
809.627502	386.400000
809.663025	385.200000
809.698486	382.200000
809.733887	378.200000
809.769409	383.600000
809.804871	372.800000
809.840271	377.500000
809.875793	378.000000
809.911194	383.100000
809.946655	374.200000
809.982178	370.500000
810.017639	376.500000
810.053040	371.300000
810.088501	370.900000
810.123901	370.100000
810.159424	367.300000
810.194885	363.600000
810.230286	370.100000
810.265747	363.200000
810.301208	359.000000
810.336609	364.100000
810.372070	357.600000
810.407532	357.700000
810.442932	360.800000
810.478394	364.800000
810.513794	360.600000
810.549255	356.100000
810.584717	357.100000
810.620117	350.400000
810.655518	355.800000
810.690979	351.300000
810.726379	353.900000
810.761841	341.900000
810.797302	344.500000
810.832642	342.800000
810.868103	353.900000
810.903564	341.700000
810.938904	350.300000
810.974365	335.600000
811.009827	341.200000
811.045166	336.200000
811.080627	330.200000
811.115967	335.300000
811.151428	342.700000
811.186829	333.900000
811.222229	336.700000
811.257629	328.200000
811.293091	335.000000
811.328430	341.700000
811.363892	337.800000
811.399292	339.900000
811.434631	333.500000
811.470093	338.400000
811.505493	327.900000
811.540833	328.600000
811.576294	335.500000
811.611694	330.300000
811.647034	324.600000
811.682434	326.300000
811.717773	330.800000
811.753235	336.700000
811.788635	326.200000
811.823975	327.800000
811.859375	337.100000
811.894775	321.500000
811.930115	324.400000
811.965515	324.700000
812.000916	326.500000
812.036255	322.400000
812.071655	324.200000
812.106995	318.000000
812.142395	318.600000
812.177795	326.300000
812.213196	322.400000
812.248474	324.900000
812.283875	315.900000
812.319214	318.300000
812.354614	320.500000
812.390015	315.300000
812.425293	316.800000
812.460693	316.300000
812.496094	314.000000
812.531433	310.900000
812.566772	309.900000
812.602173	311.700000
812.637451	314.400000
812.672852	308.400000
812.708191	310.100000
812.743530	305.900000
812.778931	300.700000
812.814270	304.100000
812.849609	307.300000
812.884949	305.800000
812.920227	298.700000
812.955627	315.900000
812.990967	304.100000
813.026306	299.500000
813.061646	289.100000
813.096985	288.600000
813.132324	288.200000
813.167664	291.400000
813.203003	295.700000
813.238281	284.400000
813.273682	284.300000
813.308960	281.800000
813.344299	283.600000
813.379639	292.400000
813.414978	285.900000
813.450256	285.100000
813.485596	287.600000
813.520874	280.300000
813.556213	282.900000
813.591614	287.000000
813.626831	279.700000
813.662170	283.800000
813.697510	294.100000
813.732788	276.500000
813.768127	283.700000
813.803467	284.100000
813.838745	278.000000
813.874084	282.000000
813.909363	281.600000
813.944641	279.800000
813.979980	270.500000
814.015320	274.400000
814.050598	272.100000
814.085876	274.600000
814.121155	274.200000
814.156494	271.700000
814.191772	271.300000
814.227051	268.400000
814.262390	271.300000
814.297668	269.700000
814.332947	274.300000
814.368225	263.000000
814.403564	269.700000
814.438782	264.400000
814.474121	268.200000
814.509338	263.700000
814.544617	273.100000
814.579956	260.500000
814.615173	272.700000
814.650513	268.700000
814.685791	264.500000
814.721008	264.900000
814.756348	266.100000
814.791626	260.900000
814.826843	263.100000
814.862122	262.000000
814.897400	258.300000
814.932678	262.800000
814.967957	261.300000
815.003235	260.200000
815.038452	255.700000
815.073730	254.000000
815.108948	264.800000
815.144226	260.200000
815.179504	265.600000
815.214722	250.800000
815.250000	250.300000
815.285278	258.100000
815.320496	251.900000
815.355774	255.600000
815.391052	256.400000
815.426270	254.700000
815.461487	252.300000
815.496765	247.400000
815.531982	244.700000
815.567261	250.300000
815.602539	257.700000
815.637695	253.200000
815.672974	253.600000
815.708191	255.500000
815.743408	256.600000
815.778687	247.700000
815.813904	259.400000
815.849121	241.400000
815.884399	243.700000
815.919556	243.400000
815.954834	244.200000
815.990051	247.900000
816.025269	251.300000
816.060486	240.500000
816.095703	240.500000
816.130920	245.400000
816.166199	239.000000
816.201416	244.800000
816.236572	249.800000
816.271851	239.100000
816.307007	247.100000
816.342224	236.700000
816.377441	240.100000
816.412659	234.000000
816.447876	243.400000
816.483093	239.000000
816.518250	239.400000
816.553467	235.200000
816.588745	240.600000
816.623901	234.800000
816.659119	229.300000
816.694275	234.000000
816.729492	229.600000
816.764709	266.700000
816.799927	227.600000
816.835083	232.700000
816.870300	226.900000
816.905457	229.700000
816.940674	230.800000
816.975830	229.000000
817.010986	225.400000
817.046204	226.400000
817.081421	224.500000
817.116577	224.100000
817.151733	233.300000
817.186951	232.100000
817.222107	228.400000
817.257324	231.200000
817.292419	229.600000
817.327637	220.000000
817.362854	225.500000
817.398010	219.500000
817.433167	223.100000
817.468323	221.200000
817.503479	222.700000
817.538635	231.700000
817.573853	225.500000
817.608948	223.100000
817.644165	219.300000
817.679321	218.000000
817.714478	220.100000
817.749634	221.100000
817.784790	233.300000
817.819946	228.100000
817.855103	210.300000
817.890198	218.700000
817.925415	211.400000
817.960571	219.700000
817.995667	218.900000
818.030823	220.100000
818.066040	216.600000
818.101135	218.700000
818.136292	217.800000
818.171448	210.900000
818.206543	215.400000
818.241699	217.900000
818.276855	217.700000
818.311951	214.200000
818.347107	210.700000
818.382263	217.100000
818.417358	224.000000
818.452515	222.000000
818.487610	223.000000
818.522766	211.200000
818.557922	223.100000
818.593018	217.500000
818.628113	216.600000
818.663269	208.600000
818.698364	213.900000
818.733521	209.700000
818.768677	216.000000
818.803711	207.200000
818.838867	209.200000
818.874023	211.800000
818.909058	208.400000
818.944214	204.800000
818.979370	215.100000
819.014404	210.800000
819.049561	206.900000
819.084595	212.800000
819.119751	204.400000
819.154846	211.000000
819.189941	207.100000
819.225037	204.100000
819.260193	198.600000
819.295227	202.400000
819.330322	197.400000
819.365479	198.600000
819.400513	229.100000
819.435608	198.300000
819.470764	193.300000
819.505798	198.000000
819.540894	199.600000
819.575989	199.500000
819.611084	205.800000
819.646179	208.200000
819.681213	203.100000
819.716309	201.200000
819.751404	199.600000
819.786438	205.700000
819.821533	195.500000
819.856628	201.000000
819.891663	205.400000
819.926758	210.600000
819.961853	205.300000
819.996887	197.200000
820.031982	203.800000
820.067017	197.700000
820.102112	228.500000
820.137207	197.200000
820.172302	212.700000
820.207275	197.000000
820.242371	194.600000
820.277405	195.800000
820.312500	197.700000
820.347534	200.800000
820.382568	204.000000
820.417664	196.300000
820.452759	197.100000
820.487732	194.000000
820.522827	196.200000
820.557861	194.500000
820.592896	194.800000
820.627930	197.500000
820.662964	193.800000
820.698059	199.500000
820.733093	195.400000
820.768127	200.100000
820.803162	195.900000
820.838196	192.600000
820.873230	198.400000
820.908264	195.700000
820.943298	190.200000
820.978333	200.300000
821.013367	196.600000
821.048401	200.900000
821.083435	201.200000
821.118469	188.200000
821.153503	201.200000
821.188477	195.000000
821.223511	188.500000
821.258484	194.600000
821.293579	196.000000
821.328613	186.800000
821.363647	193.800000
821.398621	188.600000
821.433655	192.000000
821.468628	206.100000
821.503662	193.800000
821.538696	197.300000
821.573669	190.200000
821.608704	196.900000
821.643677	191.300000
821.678650	197.100000
821.713684	202.800000
821.748718	192.200000
821.783691	194.800000
821.818726	194.800000
821.853638	195.200000
821.888672	192.600000
821.923706	193.400000
821.958618	189.700000
821.993652	190.700000
822.028687	197.700000
822.063599	201.100000
822.098633	194.800000
822.133667	189.900000
822.168579	194.000000
822.203613	194.500000
822.238586	191.400000
822.273560	196.500000
822.308533	189.100000
822.343567	191.100000
822.378479	190.400000
822.413452	192.000000
822.448425	188.400000
822.483398	198.400000
822.518372	197.700000
822.553345	189.600000
822.588318	200.100000
822.623291	191.400000
822.658203	190.400000
822.693237	192.400000
822.728210	188.100000
822.763123	193.200000
822.798096	187.300000
822.833069	191.200000
822.867981	192.300000
822.902954	193.600000
822.937927	195.900000
822.972900	202.600000
823.007874	184.700000
823.042725	195.600000
823.077698	206.300000
823.112671	187.800000
823.147583	190.900000
823.182556	194.200000
823.217529	197.400000
823.252441	190.600000
823.287415	205.500000
823.322388	195.100000
823.357239	191.900000
823.392212	198.500000
823.427185	196.800000
823.462097	187.400000
823.497009	195.600000
823.531982	189.600000
823.566895	193.300000
823.601807	188.100000
823.636719	191.600000
823.671631	194.100000
823.706604	191.100000
823.741455	194.700000
823.776428	186.900000
823.811340	196.600000
823.846252	199.200000
823.881165	199.900000
823.916138	193.500000
823.950989	201.100000
823.985901	189.500000
824.020813	193.000000
824.055725	191.600000
824.090637	186.500000
824.125610	193.500000
824.160461	192.700000
824.195374	193.600000
824.230225	196.700000
824.265198	184.300000
824.300110	188.500000
824.334961	201.400000
824.369873	183.200000
824.404785	195.500000
824.439636	199.200000
824.474548	183.300000
824.509460	181.600000
824.544312	197.300000
824.579224	193.900000
824.614075	195.100000
824.648987	190.100000
824.683899	190.200000
824.718811	188.500000
824.753662	198.400000
824.788574	196.000000
824.823364	193.200000
824.858276	189.400000
824.893188	195.800000
824.928040	196.900000
824.962952	194.300000
824.997803	195.700000
825.032654	192.500000
825.067566	195.200000
825.102417	188.900000
825.137268	189.700000
825.172119	191.000000
825.206970	188.100000
825.241882	187.600000
825.276733	187.100000
825.311646	188.000000
825.346436	185.400000
825.381348	185.100000
825.416138	191.100000
825.450989	187.500000
825.485901	181.800000
825.520691	182.500000
825.555542	184.500000
825.590454	189.300000
825.625244	182.800000
825.660095	194.600000
825.695007	192.000000
825.729797	188.500000
825.764648	185.800000
825.799438	188.100000
825.834290	190.500000
825.869202	182.400000
825.903992	189.300000
825.938843	186.100000
825.973694	183.900000
826.008484	200.400000
826.043335	184.100000
826.078186	179.300000
826.112976	193.500000
826.147827	192.800000
826.182678	197.800000
826.217468	181.000000
826.252319	191.800000
826.287109	183.800000
826.321899	195.700000
826.356750	186.600000
826.391541	181.900000
826.426392	193.200000
826.461182	188.100000
826.495972	182.900000
826.530823	178.100000
826.565613	188.400000
826.600403	182.600000
826.635254	191.300000
826.670044	178.800000
826.704834	180.400000
826.739685	182.500000
826.774475	187.800000
826.809265	186.700000
826.844055	185.200000
826.878906	192.600000
826.913635	188.900000
826.948425	189.300000
826.983215	188.600000
827.018005	191.100000
827.052856	185.800000
827.087585	189.300000
827.122375	181.100000
827.157227	185.900000
827.191956	199.100000
827.226746	183.100000
827.261536	191.300000
827.296265	180.100000
827.331116	185.300000
827.365906	191.200000
827.400635	185.000000
827.435425	179.200000
827.470215	194.400000
827.504944	184.800000
827.539734	191.700000
827.574463	187.200000
827.609253	193.400000
827.644043	187.700000
827.678772	192.400000
827.713562	184.400000
827.748352	186.000000
827.783081	183.300000
827.817871	188.000000
827.852600	182.000000
827.887329	186.800000
827.922119	177.300000
827.956848	190.800000
827.991638	200.900000
828.026367	188.700000
828.061157	187.900000
828.095886	184.800000
828.130615	201.700000
828.165344	177.300000
828.200073	187.200000
828.234863	183.600000
828.269592	185.900000
828.304321	191.100000
828.339111	186.500000
828.373779	183.000000
828.408569	192.600000
828.443298	189.900000
828.477966	184.900000
828.512756	187.700000
828.547424	181.900000
828.582214	184.000000
828.616943	185.400000
828.651672	184.200000
828.686340	191.100000
828.721130	183.400000
828.755798	186.100000
828.790527	185.800000
828.825256	190.300000
828.859924	187.100000
828.894714	192.300000
828.929443	194.600000
828.964111	183.800000
828.998840	184.100000
829.033569	185.000000
829.068237	184.100000
829.102966	184.300000
829.137634	188.400000
829.172363	189.400000
829.207092	187.700000
829.241821	182.000000
829.276489	179.500000
829.311157	186.300000
829.345825	184.600000
829.380554	191.500000
829.415283	180.700000
829.449951	180.700000
829.484619	195.000000
829.519348	193.900000
829.554016	187.100000
829.588745	186.900000
829.623413	180.300000
829.658081	198.900000
829.692749	182.000000
829.727417	192.700000
829.762146	187.500000
829.796814	183.700000
829.831482	185.100000
829.866150	188.500000
829.900879	183.700000
829.935486	189.700000
829.970154	184.400000
830.004883	197.000000
830.039490	188.400000
830.074219	182.800000
830.108887	187.700000
830.143494	184.600000
830.178223	181.800000
830.212891	183.400000
830.247498	185.700000
830.282166	194.600000
830.316772	194.100000
830.351501	184.600000
830.386169	187.400000
830.420776	185.000000
830.455444	186.500000
830.490112	182.700000
830.524719	177.200000
830.559387	187.100000
830.594055	189.800000
830.628662	186.200000
830.663330	186.800000
830.697998	195.400000
830.732605	186.000000
830.767273	189.600000
830.801941	185.900000
830.836487	195.400000
830.871155	189.100000
830.905762	188.800000
830.940430	180.800000
830.975098	183.100000
831.009644	187.300000
831.044312	195.000000
831.078979	188.900000
831.113525	178.100000
831.148193	186.900000
831.182861	182.900000
831.217407	189.900000
831.252075	201.600000
831.286621	182.500000
831.321289	182.600000
831.355896	187.200000
831.390564	193.600000
831.425110	187.900000
831.459778	192.900000
831.494324	199.400000
831.528931	190.500000
831.563599	190.600000
831.598145	180.400000
831.632751	185.500000
831.667419	185.600000
831.701965	188.300000
831.736572	190.700000
831.771179	181.100000
831.805786	184.300000
831.840393	192.200000
831.874939	178.500000
831.909546	190.100000
831.944153	179.200000
831.978760	184.600000
832.013306	181.500000
832.047913	192.700000
832.082458	195.100000
832.117065	182.800000
832.151672	195.800000
832.186218	187.900000
832.220825	190.500000
832.255432	178.000000
832.289978	183.300000
832.324585	187.200000
832.359192	189.000000
832.393677	185.000000
832.428284	187.400000
832.462830	183.900000
832.497437	186.300000
832.531982	189.300000
832.566589	186.400000
832.601135	187.000000
832.635681	178.900000
832.670227	186.200000
832.704773	195.500000
832.739380	187.400000
832.773926	188.200000
832.808472	182.800000
832.843079	186.500000
832.877563	189.300000
832.912170	183.300000
832.946716	178.700000
832.981201	192.300000
833.015808	189.000000
833.050293	186.200000
833.084839	181.400000
833.119446	184.600000
833.153992	190.800000
833.188477	186.400000
833.223022	182.600000
833.257568	188.000000
833.292114	194.000000
833.326660	198.400000
833.361145	184.300000
833.395691	177.300000
833.430237	185.700000
833.464783	189.600000
833.499329	184.600000
833.533875	180.800000
833.568359	189.200000
833.602905	191.600000
833.637390	190.200000
833.671875	183.200000
833.706421	185.500000
833.740906	182.200000
833.775452	177.000000
833.809998	183.300000
833.844482	194.600000
833.879028	185.900000
833.913513	184.800000
833.947998	189.300000
833.982544	182.300000
834.017090	183.400000
834.051514	177.700000
834.086060	188.800000
834.120544	186.400000
834.155029	187.100000
834.189575	183.900000
834.223999	189.200000
834.258545	187.400000
834.293030	188.300000
834.327515	185.700000
834.362000	180.900000
834.396545	190.600000
834.430969	186.400000
834.465454	191.200000
834.500000	177.800000
834.534424	188.700000
834.568970	177.400000
834.603455	178.000000
834.637878	183.100000
834.672363	186.900000
834.706909	187.400000
834.741333	187.100000
834.775818	180.300000
834.810242	182.700000
834.844727	187.100000
834.879211	186.300000
834.913635	187.600000
834.948181	187.300000
834.982666	186.700000
835.017090	186.300000
835.051575	188.200000
835.086060	184.800000
835.120483	190.200000
835.154907	189.800000
835.189331	184.700000
835.223816	189.000000
835.258301	180.700000
835.292786	181.700000
835.327209	191.300000
835.361694	182.200000
835.396057	184.100000
835.430542	189.300000
835.465027	188.000000
835.499390	181.100000
835.533875	206.600000
835.568359	182.800000
835.602722	180.200000
835.637207	187.900000
835.671692	180.900000
835.706055	201.500000
835.740540	188.500000
835.774902	188.100000
835.809387	189.400000
835.843811	181.100000
835.878235	194.200000
835.912659	179.800000
835.947083	185.500000
835.981506	184.000000
836.015930	180.100000
836.050354	191.700000
836.084778	195.600000
836.119202	191.200000
836.153625	200.600000
836.187988	182.400000
836.222473	183.600000
836.256897	185.200000
836.291260	186.700000
836.325684	188.400000
836.360046	184.100000
836.394470	185.400000
836.428894	193.400000
836.463318	182.000000
836.497681	191.500000
836.532104	194.300000
836.566467	189.200000
836.600891	186.200000
836.635315	192.000000
836.669678	190.500000
836.704102	191.400000
836.738525	188.700000
836.772888	179.200000
836.807251	183.800000
836.841675	189.600000
836.876038	181.100000
836.910461	182.900000
836.944763	190.300000
836.979187	182.700000
837.013611	193.100000
837.047974	180.400000
837.082336	198.100000
837.116699	188.600000
837.151062	186.700000
837.185486	179.800000
837.219849	185.900000
837.254211	189.700000
837.288574	186.900000
837.322937	181.800000
837.357300	175.000000
837.391663	198.500000
837.426086	192.900000
837.460388	186.700000
837.494751	191.000000
837.529114	182.700000
837.563477	191.800000
837.597839	187.700000
837.632141	185.900000
837.666565	183.600000
837.700928	189.600000
837.735229	190.500000
837.769592	189.700000
837.803955	190.900000
837.838257	183.500000
837.872620	182.500000
837.906982	195.300000
837.941284	186.900000
837.975647	188.800000
838.010010	193.800000
838.044312	185.100000
838.078674	184.700000
838.112976	188.100000
838.147339	191.300000
838.181702	187.000000
838.216003	196.100000
838.250366	187.600000
838.284668	191.400000
838.318970	179.500000
838.353333	186.300000
838.387634	186.100000
838.421936	186.100000
838.456299	189.000000
838.490601	195.100000
838.524902	191.000000
838.559265	192.100000
838.593567	191.800000
838.627869	180.700000
838.662170	190.000000
838.696472	180.400000
838.730774	183.800000
838.765137	190.600000
838.799377	173.100000
838.833740	187.600000
838.868042	192.700000
838.902283	179.300000
838.936646	192.600000
838.970947	189.700000
839.005188	193.500000
839.039551	180.200000
839.073792	193.000000
839.108093	185.900000
839.142395	196.300000
839.176697	181.900000
839.210937	188.100000
839.245300	199.100000
839.279541	180.500000
839.313843	186.200000
839.348145	190.200000
839.382385	192.100000
839.416687	191.300000
839.450989	190.600000
839.485229	184.800000
839.519531	182.900000
839.553833	192.400000
839.588013	187.200000
839.622314	187.900000
839.656555	188.700000
839.690857	186.900000
839.725159	182.000000
839.759460	185.000000
839.793640	184.000000
839.827942	185.100000
839.862183	182.700000
839.896423	188.200000
839.930725	197.100000
839.964966	193.500000
839.999207	193.400000
840.033508	193.000000
840.067688	184.500000
840.101990	194.600000
840.136230	186.200000
840.170471	196.000000
840.204712	183.100000
840.238953	182.300000
840.273193	187.600000
840.307434	190.200000
840.341736	183.300000
840.375916	181.800000
840.410217	183.900000
840.444397	192.200000
840.478638	189.400000
840.512878	193.700000
840.547119	188.000000
840.581360	189.700000
840.615601	197.200000
840.649780	197.300000
840.684021	187.200000
840.718262	196.400000
840.752441	192.700000
840.786682	188.400000
840.820862	188.300000
840.855103	195.900000
840.889343	186.600000
840.923584	192.300000
840.957764	188.600000
840.992004	190.400000
841.026184	201.400000
841.060425	185.600000
841.094666	184.100000
841.128845	190.900000
841.163025	188.200000
841.197266	190.700000
841.231445	187.700000
841.265686	189.600000
841.299866	182.700000
841.334045	195.700000
841.368286	186.400000
841.402405	195.900000
841.436646	191.200000
841.470825	185.200000
841.505005	186.400000
841.539185	183.100000
841.573425	183.800000
841.607544	186.900000
841.641785	187.700000
841.675964	182.400000
841.710144	187.800000
841.744324	183.900000
841.778503	186.600000
841.812683	183.400000
841.846863	197.800000
841.881042	195.100000
841.915222	183.300000
841.949402	202.200000
841.983521	179.300000
842.017700	186.200000
842.051880	188.200000
842.086060	190.300000
842.120239	186.900000
842.154419	184.100000
842.188538	187.900000
842.222717	183.400000
842.256897	197.500000
842.291016	185.700000
842.325195	189.800000
842.359375	198.500000
842.393494	194.700000
842.427673	187.400000
842.461853	189.900000
842.495911	196.000000
842.530090	189.800000
842.564209	186.600000
842.598389	189.800000
842.632568	187.700000
842.666626	190.800000
842.700806	183.000000
842.734985	184.800000
842.769043	190.000000
842.803223	187.900000
842.837402	185.100000
842.871460	185.500000
842.905640	195.200000
842.939697	184.000000
842.973877	188.800000
843.007996	192.200000
843.042175	197.000000
843.076233	185.800000
843.110413	189.700000
843.144470	196.800000
843.178589	190.800000
843.212769	186.300000
843.246826	192.000000
843.280945	185.800000
843.315125	185.900000
843.349182	184.200000
843.383301	193.900000
843.417419	199.500000
843.451538	187.600000
843.485657	186.300000
843.519714	185.100000
843.553833	190.300000
843.587952	185.000000
843.622070	183.600000
843.656128	191.700000
843.690247	186.400000
843.724304	185.500000
843.758423	190.200000
843.792542	186.800000
843.826599	187.500000
843.860718	185.700000
843.894836	180.700000
843.928894	188.400000
843.963013	190.300000
843.997070	183.600000
844.031128	182.100000
844.065247	192.100000
844.099304	192.400000
844.133362	188.600000
844.167480	190.000000
844.201599	195.600000
844.235596	189.800000
844.269714	189.500000
844.303711	188.800000
844.337830	179.800000
844.371948	190.700000
844.405945	189.100000
844.440063	182.300000
844.474121	201.400000
844.508118	187.100000
844.542236	187.700000
844.576294	186.900000
844.610352	183.000000
844.644409	187.300000
844.678406	180.500000
844.712524	193.200000
844.746582	195.200000
844.780640	187.100000
844.814636	188.400000
844.848755	200.000000
844.882751	186.300000
844.916809	193.300000
844.950867	191.100000
844.984863	196.200000
845.018921	187.600000
845.052979	184.000000
845.086975	188.000000
845.121033	181.600000
845.155090	185.200000
845.189087	195.100000
845.223145	185.800000
845.257141	188.400000
845.291199	191.700000
845.325256	195.600000
845.359253	188.900000
845.393250	199.500000
845.427307	186.800000
845.461304	190.400000
845.495361	188.800000
845.529358	199.400000
845.563354	185.800000
845.597412	183.200000
845.631409	196.700000
845.665405	194.900000
845.699463	192.700000
845.733459	187.100000
845.767456	196.700000
845.801453	186.900000
845.835449	194.800000
845.869446	192.300000
845.903503	192.600000
845.937439	186.300000
845.971497	194.200000
846.005493	182.500000
846.039429	193.400000
846.073486	198.200000
846.107483	185.900000
846.141418	188.500000
846.175476	187.700000
846.209473	194.700000
846.243408	182.900000
846.277405	190.400000
846.311401	183.900000
846.345337	188.600000
846.379395	194.300000
846.413330	186.100000
846.447327	197.000000
846.481323	185.100000
846.515259	184.900000
846.549255	188.400000
846.583252	190.900000
846.617187	184.200000
846.651184	189.500000
846.685120	187.000000
846.719055	195.000000
846.753052	194.600000
846.786987	192.800000
846.820984	183.300000
846.854980	195.900000
846.888916	184.500000
846.922852	190.500000
846.956848	195.800000
846.990723	183.800000
847.024719	189.400000
847.058716	186.600000
847.092590	195.600000
847.126587	189.800000
847.160522	186.600000
847.194458	192.400000
847.228455	185.000000
847.262390	183.600000
847.296265	186.600000
847.330261	195.300000
847.364136	185.400000
847.398132	186.300000
847.432068	188.200000
847.466003	187.000000
847.499939	188.200000
847.533875	192.100000
847.567749	186.600000
847.601746	186.300000
847.635681	190.900000
847.669556	180.700000
847.703491	193.000000
847.737427	203.400000
847.771301	183.000000
847.805237	191.900000
847.839233	187.900000
847.873108	188.800000
847.907043	186.900000
847.940918	195.300000
847.974854	188.700000
848.008789	192.500000
848.042664	188.800000
848.076538	192.500000
848.110474	186.700000
848.144348	190.700000
848.178284	182.300000
848.212219	190.500000
848.246094	186.000000
848.279968	190.000000
848.313904	192.100000
848.347778	189.900000
848.381653	187.100000
848.415588	185.200000
848.449463	185.400000
848.483337	191.700000
848.517212	193.200000
848.551086	189.000000
848.585022	184.200000
848.618835	198.500000
848.652771	184.600000
848.686646	184.900000
848.720520	196.600000
848.754395	188.400000
848.788330	192.300000
848.822144	191.900000
848.856018	186.500000
848.889954	198.000000
848.923767	184.300000
848.957642	185.500000
848.991577	192.400000
849.025391	186.700000
849.059265	188.700000
849.093079	184.200000
849.126953	182.600000
849.160828	193.300000
849.194641	189.400000
849.228577	186.200000
849.262451	187.200000
849.296265	187.100000
849.330139	184.400000
849.364014	187.800000
849.397827	191.300000
849.431702	189.000000
849.465515	192.700000
849.499329	179.900000
849.533203	183.600000
849.567078	179.000000
849.600891	191.800000
849.634766	186.700000
849.668518	193.200000
849.702393	188.700000
849.736267	180.900000
849.770020	197.900000
849.803894	192.000000
849.837769	189.300000
849.871521	189.100000
849.905396	192.800000
849.939270	182.700000
849.973022	186.700000
850.006897	192.000000
850.040710	190.500000
850.074524	192.100000
850.108337	187.000000
850.142151	193.700000
850.175964	194.900000
850.209778	189.700000
850.243530	175.500000
850.277405	193.400000
850.311218	188.400000
850.344971	185.500000
850.378845	195.500000
850.412659	185.600000
850.446411	189.300000
850.480225	190.300000
850.514038	194.200000
850.547791	190.800000
850.581665	189.100000
850.615417	186.400000
850.649231	189.700000
850.683044	188.700000
850.716858	187.700000
850.750610	189.200000
850.784424	191.300000
850.818176	185.900000
850.851929	188.000000
850.885742	186.700000
850.919495	188.100000
850.953308	196.000000
850.987122	195.000000
851.020874	182.800000
851.054626	181.600000
851.088440	192.400000
851.122192	191.600000
851.156006	189.000000
851.189697	188.500000
851.223511	181.700000
851.257263	192.600000
851.291077	192.100000
851.324829	188.500000
851.358582	185.300000
851.392334	187.200000
851.426086	187.100000
851.459900	197.200000
851.493591	190.400000
851.527344	189.400000
851.561157	187.600000
851.594849	191.200000
851.628662	189.500000
851.662415	197.500000
851.696106	190.100000
851.729858	192.900000
851.763611	183.400000
851.797363	190.700000
851.831116	183.300000
851.864868	192.200000
851.898560	193.000000
851.932312	185.800000
851.966064	190.300000
851.999817	188.500000
852.033569	187.200000
852.067261	193.200000
852.101013	183.400000
852.134766	188.500000
852.168457	179.800000
852.202209	193.100000
852.235901	185.300000
852.269592	192.000000
852.303345	196.500000
852.337036	193.200000
852.370789	188.100000
852.404541	192.200000
852.438171	184.900000
852.471924	189.200000
852.505676	182.800000
852.539307	191.400000
852.573059	185.400000
852.606812	186.400000
852.640442	188.200000
852.674194	194.700000
852.707886	198.600000
852.741577	196.100000
852.775269	183.300000
852.809021	188.600000
852.842651	191.400000
852.876404	193.900000
852.910034	189.300000
852.943787	194.100000
852.977478	191.300000
853.011108	183.800000
853.044861	186.700000
853.078552	195.000000
853.112183	190.700000
853.145874	189.400000
853.179626	179.200000
853.213257	190.200000
853.246948	187.500000
853.280640	194.800000
853.314270	189.300000
853.347961	195.300000
853.381653	192.500000
853.415283	193.300000
853.448975	186.700000
853.482605	189.600000
853.516296	187.700000
853.549988	182.400000
853.583618	192.000000
853.617310	189.700000
853.651001	190.700000
853.684631	183.800000
853.718323	186.600000
853.751953	195.800000
853.785583	180.900000
853.819275	192.700000
853.852966	190.200000
853.886536	180.600000
853.920227	183.900000
853.953918	194.300000
853.987488	187.600000
854.021179	193.300000
854.054749	196.800000
854.088440	191.400000
854.122131	185.700000
854.155701	192.800000
854.189331	185.200000
854.223022	191.700000
854.256592	190.400000
854.290283	186.000000
854.323914	193.100000
854.357483	191.900000
854.391174	191.200000
854.424744	197.400000
854.458374	189.900000
854.492065	199.500000
854.525696	192.600000
854.559265	196.900000
854.592896	199.100000
854.626465	190.200000
854.660095	189.100000
854.693787	192.500000
854.727356	187.200000
854.760986	193.400000
854.794617	189.600000
854.828186	188.600000
854.861816	191.100000
854.895447	190.900000
854.929016	190.000000
854.962585	191.900000
854.996155	196.400000
855.029785	192.000000
855.063416	190.100000
855.097046	194.300000
855.130615	183.900000
855.164185	194.900000
855.197754	189.000000
855.231384	193.100000
855.264954	187.000000
855.298523	193.600000
855.332153	189.600000
855.365723	197.200000
855.399292	183.700000
855.432922	187.800000
855.466492	191.300000
855.500061	185.200000
855.533630	185.400000
855.567200	192.500000
855.600769	191.800000
855.634338	193.900000
855.667969	190.700000
855.701477	184.500000
855.735046	185.300000
855.768616	181.300000
855.802185	191.300000
855.835754	205.200000
855.869324	181.000000
855.902893	187.400000
855.936401	196.100000
855.969971	189.400000
856.003540	181.800000
856.037109	191.400000
856.070618	188.800000
856.104187	183.500000
856.137695	187.500000
856.171265	179.300000
856.204834	188.400000
856.238403	193.900000
856.271912	186.900000
856.305481	190.400000
856.338989	183.000000
856.372559	191.800000
856.406128	190.600000
856.439636	192.700000
856.473145	188.000000
856.506653	195.600000
856.540222	189.700000
856.573792	196.100000
856.607300	193.400000
856.640808	183.200000
856.674377	190.900000
856.707825	218.700000
856.741394	195.400000
856.774902	183.600000
856.808472	181.600000
856.841980	192.300000
856.875488	198.000000
856.908936	182.600000
856.942505	189.100000
856.976013	189.000000
857.009521	186.600000
857.043030	188.700000
857.076477	187.700000
857.110046	194.000000
857.143555	189.900000
857.177063	193.700000
857.210571	186.500000
857.244080	181.000000
857.277527	192.300000
857.311035	187.800000
857.344543	193.000000
857.378052	189.500000
857.411499	193.800000
857.445068	197.300000
857.478516	189.500000
857.512024	183.500000
857.545532	186.400000
857.578979	192.000000
857.612427	188.700000
857.645874	184.700000
857.679382	190.100000
857.712891	194.400000
857.746399	188.800000
857.779846	194.600000
857.813354	193.700000
857.846741	188.800000
857.880249	184.300000
857.913757	189.900000
857.947266	190.700000
857.980652	192.900000
858.014160	185.500000
858.047546	187.000000
858.081055	187.900000
858.114563	198.500000
858.147949	183.200000
858.181458	193.200000
858.214844	187.200000
858.248352	179.500000
858.281799	193.900000
858.315308	202.400000
858.348694	192.500000
858.382141	198.300000
858.415588	192.300000
858.449036	194.200000
858.482483	190.900000
858.515930	186.100000
858.549377	188.700000
858.582825	198.200000
858.616211	192.100000
858.649658	192.000000
858.683105	184.000000
858.716553	186.900000
858.750000	182.900000
858.783386	187.800000
858.816833	181.200000
858.850281	192.300000
858.883728	190.400000
858.917114	189.200000
858.950562	196.900000
858.983948	197.700000
859.017395	193.200000
859.050781	188.400000
859.084167	184.500000
859.117615	183.700000
859.151062	191.500000
859.184448	185.200000
859.217834	186.800000
859.251282	187.300000
859.284668	184.800000
859.318054	181.800000
859.351440	186.800000
859.384888	197.600000
859.418274	182.000000
859.451721	181.100000
859.485046	193.100000
859.518494	191.400000
859.551819	186.200000
859.585266	191.000000
859.618652	193.800000
859.652039	183.700000
859.685425	185.000000
859.718811	182.500000
859.752197	177.600000
859.785583	193.800000
859.819031	196.700000
859.852356	191.600000
859.885742	187.400000
859.919067	187.500000
859.952454	185.600000
859.985901	193.000000
860.019287	187.300000
860.052612	0.000000
860.085999	0.000000
860.119324	0.000000
860.152710	0.000000
860.186096	0.000000
860.219421	0.000000
860.252808	0.000000
860.286133	0.000000
860.319519	0.000000
860.352905	0.000000
860.386292	0.000000
860.419617	0.000000
860.452942	0.000000
860.486267	0.000000
860.519653	0.000000
860.553040	0.000000
860.586365	0.000000
860.619690	0.000000
860.653076	0.000000
860.686340	0.000000
860.719727	0.000000
860.753113	0.000000
860.786377	0.000000
860.819763	0.000000
860.853027	0.000000
860.886414	0.000000
860.919739	0.000000
860.953125	0.000000
860.986389	0.000000
861.019714	0.000000
861.053040	0.000000
861.086365	0.000000
861.119690	0.000000
861.153076	0.000000
861.186340	0.000000
861.219666	0.000000
861.252930	0.000000
861.286316	0.000000
861.319641	0.000000
861.352905	0.000000
861.386230	0.000000
861.419495	0.000000
861.452820	0.000000
861.486145	0.000000
861.519470	0.000000
861.552734	0.000000
861.586060	0.000000
861.619324	0.000000
861.652649	0.000000
861.685974	0.000000
861.719238	0.000000
861.752563	0.000000
861.785828	0.000000
861.819092	0.000000
861.852417	0.000000
861.885742	0.000000
861.918945	0.000000
861.952271	0.000000
861.985535	0.000000
862.018799	0.000000
862.052124	0.000000
862.085449	0.000000
862.118652	0.000000
862.151978	0.000000
862.185181	0.000000
862.218506	0.000000
862.251770	0.000000
862.285034	0.000000
862.318298	0.000000
862.351562	0.000000
862.384827	0.000000
862.418091	0.000000
862.451355	0.000000
862.484619	0.000000
862.517883	0.000000
862.551086	0.000000
862.584351	0.000000
862.617676	0.000000
862.650940	0.000000
862.684143	0.000000
862.717407	0.000000
862.750610	0.000000
862.783875	0.000000
862.817139	0.000000
862.850342	0.000000
862.883606	0.000000
862.916870	0.000000
862.950073	0.000000
862.983337	0.000000
863.016602	0.000000
863.049805	0.000000
863.083069	0.000000
863.116211	0.000000
863.149475	0.000000
863.182739	0.000000
863.216003	0.000000
863.249146	0.000000
863.282410	0.000000
863.315613	0.000000
863.348816	0.000000
863.382080	0.000000
863.415222	0.000000
863.448486	0.000000
863.481689	0.000000
863.514893	0.000000
863.548157	0.000000
863.581360	0.000000
863.614502	0.000000
863.647766	0.000000
863.680908	0.000000
863.714172	0.000000
863.747375	0.000000
863.780579	0.000000
863.813721	0.000000
863.846985	0.000000
863.880127	0.000000
863.913330	0.000000
863.946533	0.000000
863.979675	0.000000
864.012939	0.000000
