Model Number: SPM-001-M   
Serial Number: 10090201
Firmware Version: 004.17.6
Exposure Time: 500000.000000us
Data Taken on: 03-03-2021 09:53:00.169
Wavelength	Amplitude
733.770752	0.000000
733.808716	0.000000
733.846619	0.000000
733.884583	0.000000
733.922546	0.000000
733.960449	0.000000
733.998413	0.000000
734.036377	0.000000
734.074219	0.000000
734.112183	0.000000
734.150085	0.000000
734.188049	0.000000
734.226013	0.000000
734.263916	0.000000
734.301819	0.000000
734.339783	0.000000
734.377686	0.000000
734.415588	0.000000
734.453552	0.000000
734.491455	0.000000
734.529419	0.000000
734.567322	0.000000
734.605225	0.000000
734.643127	0.000000
734.681091	0.000000
734.718994	0.000000
734.756897	0.000000
734.794800	0.000000
734.832703	0.000000
734.870667	0.000000
734.908508	0.000000
734.946472	0.000000
734.984375	0.000000
735.022278	0.000000
735.060181	0.000000
735.098083	0.000000
735.135986	0.000000
735.173889	0.000000
735.211792	0.000000
735.249695	0.000000
735.287598	0.000000
735.325439	0.000000
735.363403	0.000000
735.401306	0.000000
735.439148	0.000000
735.477051	0.000000
735.515015	0.000000
735.552856	0.000000
735.590759	0.000000
735.628662	0.000000
735.666504	0.000000
735.704407	0.000000
735.742310	0.000000
735.780212	0.000000
735.818115	0.000000
735.856018	0.000000
735.893860	0.000000
735.931763	0.000000
735.969604	0.000000
736.007507	0.000000
736.045410	0.000000
736.083252	0.000000
736.121094	0.000000
736.158997	0.000000
736.196838	0.000000
736.234741	0.000000
736.272644	0.000000
736.310486	0.000000
736.348389	0.000000
736.386230	0.000000
736.424072	0.000000
736.461975	0.000000
736.499878	0.000000
736.537720	0.000000
736.575562	0.000000
736.613403	0.000000
736.651306	0.000000
736.689148	0.000000
736.726990	0.000000
736.764893	0.000000
736.802734	0.000000
736.840576	0.000000
736.878418	0.000000
736.916321	0.000000
736.954102	0.000000
736.992004	0.000000
737.029846	0.000000
737.067688	0.000000
737.105530	0.000000
737.143372	0.000000
737.181213	0.000000
737.219116	0.000000
737.256897	0.000000
737.294739	0.000000
737.332642	0.000000
737.370422	0.000000
737.408325	0.000000
737.446167	0.000000
737.483948	0.000000
737.521790	0.000000
737.559692	0.000000
737.597473	0.000000
737.635315	0.000000
737.673157	0.000000
737.710999	0.000000
737.748840	0.000000
737.786621	0.000000
737.824463	0.000000
737.862305	0.000000
737.900085	0.000000
737.937927	0.000000
737.975769	0.000000
738.013550	0.000000
738.051392	0.000000
738.089233	0.000000
738.127014	0.000000
738.164856	0.000000
738.202698	0.000000
738.240479	0.000000
738.278320	0.000000
738.316162	0.000000
738.353943	0.000000
738.391785	0.000000
738.429565	0.000000
738.467407	0.000000
738.505188	0.000000
738.542969	0.000000
738.580811	0.000000
738.618652	0.000000
738.656372	0.000000
738.694214	0.000000
738.732056	0.000000
738.769836	0.000000
738.807617	0.000000
738.845459	0.000000
738.883240	0.000000
738.921021	0.000000
738.958862	0.000000
738.996582	0.000000
739.034424	0.000000
739.072205	0.000000
739.109985	0.000000
739.147827	0.000000
739.185547	0.000000
739.223389	0.000000
739.261169	0.000000
739.298889	0.000000
739.336731	0.000000
739.374512	0.000000
739.412292	0.000000
739.450073	0.000000
739.487854	0.000000
739.525635	0.000000
739.563416	0.000000
739.601135	0.000000
739.638977	0.000000
739.676758	0.000000
739.714478	0.000000
739.752258	0.000000
739.790100	0.000000
739.827820	0.000000
739.865601	0.000000
739.903381	0.000000
739.941101	0.000000
739.978882	189.100000
740.016724	183.900000
740.054443	190.800000
740.092224	182.900000
740.130005	183.300000
740.167725	183.900000
740.205505	183.100000
740.243225	191.900000
740.281006	187.700000
740.318787	179.100000
740.356506	192.300000
740.394287	190.600000
740.432068	182.500000
740.469727	178.200000
740.507507	190.300000
740.545288	185.000000
740.583008	189.400000
740.620789	185.800000
740.658569	179.000000
740.696228	185.200000
740.734009	192.100000
740.771790	174.900000
740.809509	190.000000
740.847229	181.600000
740.884949	183.300000
740.922729	177.100000
740.960449	184.700000
740.998169	181.500000
741.035950	182.400000
741.073669	187.100000
741.111389	186.500000
741.149170	195.600000
741.186890	196.400000
741.224609	190.400000
741.262329	188.200000
741.300110	196.000000
741.337769	181.700000
741.375549	179.600000
741.413208	186.800000
741.450989	182.400000
741.488708	183.600000
741.526367	184.200000
741.564148	190.700000
741.601868	189.900000
741.639526	184.300000
741.677307	188.300000
741.715027	187.600000
741.752686	182.100000
741.790466	190.900000
741.828186	189.200000
741.865845	179.800000
741.903564	177.900000
741.941345	184.600000
741.979004	183.000000
742.016724	186.500000
742.054382	186.400000
742.092102	190.700000
742.129822	179.700000
742.167480	182.700000
742.205200	184.400000
742.242920	186.500000
742.280640	190.500000
742.318359	181.300000
742.356079	183.600000
742.393738	188.700000
742.431396	186.200000
742.469116	188.800000
742.506775	178.300000
742.544495	187.500000
742.582214	190.100000
742.619873	184.800000
742.657593	193.700000
742.695251	189.700000
742.732971	186.200000
742.770630	188.000000
742.808289	187.400000
742.846008	186.800000
742.883728	189.600000
742.921326	186.100000
742.959045	182.800000
742.996765	185.300000
743.034424	185.700000
743.072083	183.100000
743.109802	185.600000
743.147400	179.800000
743.185120	187.500000
743.222839	184.800000
743.260437	192.400000
743.298157	187.500000
743.335754	178.800000
743.373474	184.300000
743.411133	179.600000
743.448792	185.700000
743.486450	185.900000
743.524170	178.100000
743.561768	186.200000
743.599487	191.700000
743.637146	196.400000
743.674744	183.800000
743.712463	184.500000
743.750122	186.900000
743.787720	187.400000
743.825439	182.700000
743.863037	183.700000
743.900696	185.900000
743.938416	210.700000
743.976013	186.000000
744.013672	194.400000
744.051331	191.300000
744.088928	194.100000
744.126587	191.400000
744.164307	186.100000
744.201904	183.700000
744.239563	188.700000
744.277222	188.900000
744.314819	183.600000
744.352478	193.700000
744.390137	186.700000
744.427734	189.800000
744.465393	184.000000
744.502991	183.200000
744.540649	189.100000
744.578308	187.700000
744.615906	179.900000
744.653564	177.100000
744.691223	190.100000
744.728821	180.400000
744.766418	185.800000
744.804077	189.400000
744.841675	184.700000
744.879333	180.000000
744.916992	185.300000
744.954529	184.300000
744.992187	192.800000
745.029785	185.400000
745.067444	182.400000
745.105042	188.500000
745.142639	188.700000
745.180298	197.000000
745.217896	183.400000
745.255493	184.800000
745.293152	189.600000
745.330750	190.800000
745.368347	195.900000
745.405945	190.500000
745.443604	186.800000
745.481140	190.300000
745.518799	186.000000
745.556396	190.700000
745.593994	191.300000
745.631592	186.800000
745.669189	182.000000
745.706787	187.100000
745.744385	182.600000
745.781982	188.100000
745.819580	184.800000
745.857178	183.600000
745.894775	186.100000
745.932373	185.600000
745.969971	187.900000
746.007568	176.300000
746.045166	194.800000
746.082764	190.600000
746.120300	190.600000
746.157898	188.000000
746.195557	186.000000
746.233093	179.600000
746.270691	190.500000
746.308228	187.800000
746.345825	192.300000
746.383423	189.200000
746.420959	181.500000
746.458557	182.400000
746.496155	184.900000
746.533691	185.700000
746.571289	181.400000
746.608887	185.900000
746.646423	189.500000
746.684021	185.900000
746.721619	184.600000
746.759155	187.500000
746.796753	180.800000
746.834351	180.000000
746.871826	183.900000
746.909424	192.600000
746.946960	188.200000
746.984558	184.800000
747.022156	184.800000
747.059631	194.200000
747.097229	190.200000
747.134827	184.500000
747.172363	193.000000
747.209900	189.600000
747.247498	183.300000
747.285034	192.500000
747.322571	193.200000
747.360168	184.500000
747.397644	179.100000
747.435242	189.100000
747.472778	193.300000
747.510315	185.100000
747.547913	184.500000
747.585388	193.500000
747.622925	185.400000
747.660522	179.300000
747.697998	182.100000
747.735596	186.000000
747.773132	182.900000
747.810669	186.300000
747.848206	188.400000
747.885742	181.300000
747.923279	181.000000
747.960815	188.000000
747.998352	186.600000
748.035889	191.600000
748.073425	188.400000
748.110901	184.100000
748.148437	181.900000
748.185974	186.600000
748.223511	195.600000
748.261047	187.600000
748.298584	186.900000
748.336060	185.000000
748.373596	187.700000
748.411133	207.000000
748.448608	182.400000
748.486145	191.400000
748.523682	194.100000
748.561218	193.600000
748.598755	186.900000
748.636292	189.100000
748.673706	183.900000
748.711243	195.000000
748.748718	188.100000
748.786255	187.400000
748.823792	185.900000
748.861267	182.600000
748.898804	188.600000
748.936340	188.800000
748.973816	185.000000
749.011292	193.100000
749.048828	187.300000
749.086304	188.800000
749.123840	197.100000
749.161316	182.700000
749.198792	196.600000
749.236328	193.400000
749.273743	186.900000
749.311279	184.700000
749.348816	189.100000
749.386230	185.800000
749.423767	176.200000
749.461304	188.800000
749.498718	187.300000
749.536255	192.100000
749.573730	197.600000
749.611206	191.600000
749.648682	186.200000
749.686218	185.700000
749.723633	190.100000
749.761169	183.200000
749.798645	181.900000
749.836060	183.800000
749.873596	183.400000
749.911011	185.000000
749.948547	193.400000
749.986023	186.100000
750.023437	185.900000
750.060913	179.400000
750.098450	181.600000
750.135864	185.600000
750.173340	187.700000
750.210815	192.100000
750.248291	182.400000
750.285767	184.800000
750.323242	194.200000
750.360657	188.900000
750.398132	182.200000
750.435608	190.300000
750.473022	182.900000
750.510498	181.800000
750.547974	184.500000
750.585449	184.700000
750.622925	177.400000
750.660339	196.100000
750.697815	186.900000
750.735291	185.100000
750.772644	188.300000
750.810120	188.000000
750.847595	190.300000
750.885010	182.400000
750.922485	194.800000
750.959961	184.900000
750.997375	194.300000
751.034851	192.400000
751.072266	191.900000
751.109680	180.100000
751.147156	193.900000
751.184570	188.700000
751.221985	187.800000
751.259460	178.600000
751.296875	185.800000
751.334290	188.900000
751.371765	190.400000
751.409180	191.400000
751.446594	192.500000
751.484070	189.300000
751.521423	187.900000
751.558899	188.600000
751.596375	195.100000
751.633728	193.700000
751.671204	198.400000
751.708618	183.200000
751.746033	186.800000
751.783447	181.600000
751.820801	182.900000
751.858276	190.600000
751.895691	186.300000
751.933105	184.300000
751.970520	183.000000
752.007935	184.000000
752.045349	189.400000
752.082764	187.100000
752.120178	183.500000
752.157532	183.600000
752.195007	182.700000
752.232422	189.600000
752.269775	190.400000
752.307190	191.300000
752.344543	181.400000
752.382019	187.500000
752.419434	185.100000
752.456787	190.600000
752.494202	191.700000
752.531616	188.700000
752.568970	191.500000
752.606384	189.500000
752.643799	189.500000
752.681152	196.000000
752.718567	189.300000
752.755981	180.400000
752.793335	191.600000
752.830750	180.600000
752.868164	193.000000
752.905518	183.800000
752.942932	190.000000
752.980225	182.000000
753.017639	191.300000
753.055054	185.300000
753.092407	190.000000
753.129822	191.700000
753.167175	196.100000
753.204529	186.800000
753.241943	184.400000
753.279358	180.500000
753.316650	190.900000
753.354065	188.000000
753.391479	192.400000
753.428772	194.800000
753.466187	190.400000
753.503479	180.600000
753.540894	184.900000
753.578308	180.600000
753.615601	181.900000
753.653015	186.500000
753.690369	185.800000
753.727722	181.600000
753.765076	181.100000
753.802490	181.200000
753.839783	179.000000
753.877136	183.100000
753.914551	200.700000
753.951843	181.400000
753.989258	191.400000
754.026611	187.800000
754.063904	188.300000
754.101257	183.400000
754.138611	181.200000
754.175964	187.300000
754.213318	199.300000
754.250610	179.800000
754.288025	185.700000
754.325378	181.300000
754.362671	193.900000
754.400024	185.100000
754.437378	196.700000
754.474670	196.100000
754.512085	184.300000
754.549438	187.700000
754.586731	185.800000
754.624084	184.600000
754.661438	183.700000
754.698730	194.500000
754.736084	185.600000
754.773376	185.900000
754.810730	188.400000
754.848083	185.600000
754.885315	190.100000
754.922668	178.600000
754.960022	182.000000
754.997314	190.200000
755.034668	185.000000
755.072021	186.000000
755.109253	182.900000
755.146606	193.000000
755.183960	184.300000
755.221252	195.100000
755.258545	191.000000
755.295898	192.600000
755.333191	192.100000
755.370544	188.500000
755.407776	185.300000
755.445129	185.800000
755.482422	189.700000
755.519714	183.700000
755.557068	178.400000
755.594360	177.900000
755.631653	190.800000
755.668945	195.300000
755.706299	187.600000
755.743530	197.800000
755.780884	191.600000
755.818176	192.700000
755.855408	190.500000
755.892761	188.000000
755.930054	186.800000
755.967346	189.200000
756.004639	189.300000
756.041870	187.700000
756.079224	191.300000
756.116516	184.400000
756.153748	192.300000
756.191040	196.200000
756.228394	189.000000
756.265625	183.000000
756.302917	188.100000
756.340210	185.600000
756.377441	194.100000
756.414795	194.100000
756.452087	186.800000
756.489319	181.200000
756.526611	189.800000
756.563843	189.900000
756.601135	197.700000
756.638428	199.200000
756.675659	187.300000
756.712952	193.100000
756.750244	191.300000
756.787476	190.400000
756.824768	195.600000
756.862061	187.000000
756.899292	236.900000
756.936584	192.700000
756.973816	198.700000
757.011047	200.700000
757.048340	189.300000
757.085632	189.400000
757.122864	204.800000
757.160156	185.600000
757.197327	191.000000
757.234619	193.500000
757.271912	188.700000
757.309082	193.100000
757.346375	185.800000
757.383667	194.700000
757.420837	191.000000
757.458130	191.900000
757.495422	188.400000
757.532593	190.900000
757.569885	183.000000
757.607117	184.900000
757.644348	190.800000
757.681580	200.200000
757.718811	178.800000
757.756042	188.400000
757.793335	188.900000
757.830505	193.300000
757.867798	188.500000
757.905029	186.200000
757.942200	193.900000
757.979492	186.400000
758.016724	189.800000
758.053894	189.500000
758.091187	208.700000
758.128418	190.300000
758.165588	191.500000
758.202820	201.400000
758.240112	189.000000
758.277283	201.700000
758.314514	194.000000
758.351685	189.100000
758.388916	202.600000
758.426147	197.300000
758.463379	201.100000
758.500610	194.600000
758.537842	193.300000
758.575012	199.400000
758.612244	186.900000
758.649475	206.000000
758.686646	187.800000
758.723877	200.800000
758.761108	201.400000
758.798279	193.800000
758.835510	195.200000
758.872742	199.600000
758.909851	195.500000
758.947083	197.200000
758.984253	195.400000
759.021484	198.500000
759.058716	198.000000
759.095886	198.400000
759.133057	194.700000
759.170288	197.500000
759.207458	189.900000
759.244690	205.100000
759.281860	202.700000
759.319031	195.100000
759.356262	192.400000
759.393433	195.200000
759.430603	193.800000
759.467773	195.300000
759.505005	200.400000
759.542175	201.900000
759.579346	194.100000
759.616516	196.300000
759.653687	198.100000
759.690918	194.900000
759.728027	196.900000
759.765259	199.200000
759.802429	199.900000
759.839539	200.300000
759.876770	204.100000
759.913940	209.100000
759.951111	200.300000
759.988281	199.800000
760.025452	196.100000
760.062561	194.400000
760.099792	206.000000
760.136963	201.700000
760.174072	198.500000
760.211243	193.800000
760.248413	194.000000
760.285583	195.900000
760.322754	211.200000
760.359863	208.400000
760.397034	206.900000
760.434204	200.800000
760.471375	200.600000
760.508545	198.500000
760.545715	198.700000
760.582825	197.000000
760.619995	206.200000
760.657166	195.000000
760.694275	207.500000
760.731445	202.700000
760.768555	203.000000
760.805664	204.700000
760.842834	202.700000
760.879944	204.200000
760.917114	202.600000
760.954285	200.400000
760.991394	196.200000
761.028564	208.000000
761.065674	205.500000
761.102783	196.600000
761.139954	208.000000
761.177124	205.900000
761.214172	208.000000
761.251343	200.200000
761.288452	203.900000
761.325562	204.200000
761.362732	198.800000
761.399841	201.700000
761.436951	205.600000
761.474121	198.400000
761.511169	205.500000
761.548340	206.400000
761.585449	206.800000
761.622559	206.600000
761.659668	206.200000
761.696838	210.500000
761.733887	207.900000
761.771057	202.300000
761.808167	205.500000
761.845276	208.900000
761.882385	217.300000
761.919434	206.300000
761.956604	225.600000
761.993713	202.900000
762.030762	214.500000
762.067871	207.300000
762.105042	207.400000
762.142090	215.900000
762.179199	209.700000
762.216309	212.900000
762.253418	223.900000
762.290527	216.900000
762.327637	215.400000
762.364685	204.500000
762.401794	213.600000
762.438904	212.700000
762.475952	208.500000
762.513062	205.800000
762.550110	209.200000
762.587219	221.000000
762.624329	218.000000
762.661377	213.300000
762.698486	213.200000
762.735596	212.400000
762.772644	207.500000
762.809753	203.700000
762.846863	212.000000
762.883911	215.800000
762.921021	215.700000
762.958069	213.200000
762.995117	220.100000
763.032227	220.400000
763.069336	210.900000
763.106323	208.700000
763.143433	206.200000
763.180481	216.300000
763.217590	214.800000
763.254639	213.400000
763.291687	211.700000
763.328735	222.500000
763.365845	212.700000
763.402893	213.100000
763.439941	214.900000
763.477051	219.200000
763.514038	217.800000
763.551147	213.800000
763.588196	217.100000
763.625244	217.500000
763.662292	223.000000
763.699402	226.400000
763.736389	220.600000
763.773499	230.300000
763.810486	222.200000
763.847534	220.100000
763.884644	221.500000
763.921631	218.300000
763.958679	230.100000
763.995728	221.400000
764.032776	228.000000
764.069824	216.500000
764.106873	224.400000
764.143860	230.000000
764.180969	220.700000
764.218018	231.200000
764.255005	220.100000
764.292053	221.800000
764.329102	232.500000
764.366089	232.200000
764.403137	231.300000
764.440125	222.900000
764.477173	225.000000
764.514221	230.200000
764.551208	228.300000
764.588257	221.000000
764.625305	232.000000
764.662292	236.600000
764.699341	240.500000
764.736389	228.400000
764.773376	244.200000
764.810425	232.600000
764.847473	239.400000
764.884399	233.300000
764.921448	242.000000
764.958435	239.600000
764.995483	231.800000
765.032532	246.600000
765.069458	235.100000
765.106506	234.800000
765.143555	232.200000
765.180481	236.100000
765.217529	244.500000
765.254578	227.400000
765.291504	240.800000
765.328552	236.700000
765.365540	236.600000
765.402527	247.800000
765.439575	235.700000
765.476501	231.000000
765.513550	235.100000
765.550537	238.000000
765.587463	247.400000
765.624512	236.800000
765.661499	229.800000
765.698486	245.200000
765.735474	236.700000
765.772461	239.700000
765.809448	249.300000
765.846436	245.800000
765.883423	251.800000
765.920410	243.500000
765.957397	239.800000
765.994385	244.000000
766.031311	254.700000
766.068359	247.800000
766.105286	247.300000
766.142273	254.000000
766.179260	248.000000
766.216187	240.600000
766.253174	238.200000
766.290161	248.600000
766.327148	249.700000
766.364136	250.000000
766.401123	264.400000
766.438049	244.000000
766.475037	257.400000
766.512024	254.700000
766.548950	266.500000
766.585937	260.800000
766.622864	256.100000
766.659790	256.400000
766.696777	243.100000
766.733704	261.200000
766.770691	249.300000
766.807678	263.300000
766.844604	257.700000
766.881531	256.500000
766.918518	261.200000
766.955444	266.100000
766.992432	256.800000
767.029358	261.200000
767.066284	262.200000
767.103271	261.800000
767.140198	289.600000
767.177124	279.300000
767.214050	264.400000
767.251038	268.300000
767.287964	263.200000
767.324890	259.300000
767.361816	264.800000
767.398743	272.400000
767.435730	262.900000
767.472595	268.700000
767.509583	272.800000
767.546509	264.000000
767.583374	268.200000
767.620361	262.200000
767.657288	267.700000
767.694214	267.900000
767.731140	266.100000
767.768066	267.200000
767.804993	272.800000
767.841919	263.900000
767.878845	271.200000
767.915710	278.000000
767.952698	269.900000
767.989563	275.100000
768.026489	275.400000
768.063416	268.500000
768.100281	268.100000
768.137207	281.400000
768.174133	275.900000
768.211060	278.300000
768.247986	276.000000
768.284912	274.700000
768.321777	277.000000
768.358704	271.400000
768.395630	276.300000
768.432495	269.900000
768.469421	280.700000
768.506348	280.700000
768.543152	289.900000
768.580078	283.300000
768.616943	286.400000
768.653870	284.900000
768.690796	286.500000
768.727661	281.600000
768.764587	283.600000
768.801453	277.500000
768.838318	289.100000
768.875244	286.100000
768.912109	291.800000
768.948975	282.900000
768.985901	286.900000
769.022766	285.700000
769.059631	290.900000
769.096558	284.400000
769.133362	283.800000
769.170288	286.000000
769.207214	288.200000
769.244019	292.700000
769.280945	292.200000
769.317810	296.100000
769.354675	291.800000
769.391541	300.500000
769.428406	298.000000
769.465271	305.200000
769.502136	296.200000
769.539062	298.900000
769.575867	298.000000
769.612732	301.100000
769.649597	306.000000
769.686462	307.900000
769.723328	303.600000
769.760193	299.700000
769.797058	303.000000
769.833923	309.900000
769.870728	305.700000
769.907593	308.100000
769.944519	305.800000
769.981323	308.800000
770.018188	309.800000
770.055054	309.100000
770.091858	309.700000
770.128723	316.900000
770.165588	324.100000
770.202393	310.500000
770.239258	324.300000
770.276062	323.200000
770.312927	322.800000
770.349792	329.600000
770.386597	326.200000
770.423462	334.700000
770.460327	339.600000
770.497131	322.900000
770.533997	318.800000
770.570862	334.300000
770.607605	333.200000
770.644470	328.700000
770.681335	331.200000
770.718140	331.100000
770.754944	326.100000
770.791809	327.100000
770.828613	330.500000
770.865479	331.100000
770.902222	343.800000
770.939087	336.900000
770.975952	327.700000
771.012695	333.200000
771.049561	349.500000
771.086365	338.000000
771.123169	335.100000
771.159973	340.900000
771.196838	338.000000
771.233582	343.800000
771.270447	340.800000
771.307251	346.700000
771.344055	340.600000
771.380859	347.700000
771.417664	341.400000
771.454468	351.200000
771.491272	348.300000
771.528076	352.900000
771.564880	348.300000
771.601685	362.000000
771.638428	347.200000
771.675293	355.200000
771.712097	345.800000
771.748840	365.000000
771.785645	353.500000
771.822449	357.000000
771.859253	359.700000
771.896057	354.300000
771.932861	365.600000
771.969604	355.300000
772.006409	349.200000
772.043213	363.900000
772.079956	358.900000
772.116760	354.400000
772.153503	360.800000
772.190308	373.400000
772.227112	361.600000
772.263855	357.000000
772.300659	366.500000
772.337463	370.300000
772.374207	361.700000
772.411011	358.800000
772.447754	365.800000
772.484497	379.000000
772.521301	372.500000
772.558105	369.800000
772.594849	371.100000
772.631592	374.500000
772.668396	373.700000
772.705139	375.200000
772.741882	371.900000
772.778625	385.200000
772.815430	385.500000
772.852173	376.000000
772.888916	383.400000
772.925720	387.500000
772.962463	391.900000
772.999207	384.800000
773.035950	392.700000
773.072754	387.000000
773.109436	382.200000
773.146240	385.200000
773.182922	384.500000
773.219727	391.200000
773.256470	389.000000
773.293152	380.300000
773.329956	387.700000
773.366699	391.700000
773.403381	382.400000
773.440186	390.000000
773.476929	392.800000
773.513611	388.100000
773.550354	390.400000
773.587158	390.100000
773.623840	385.000000
773.660583	391.700000
773.697327	404.900000
773.734009	394.600000
773.770813	394.600000
773.807495	389.300000
773.844238	393.700000
773.880981	405.300000
773.917664	399.000000
773.954407	406.400000
773.991150	397.500000
774.027832	402.700000
774.064575	395.100000
774.101318	400.700000
774.138000	404.500000
774.174744	404.600000
774.211487	405.800000
774.248108	394.100000
774.284851	397.000000
774.321594	406.800000
774.358276	404.600000
774.395020	413.300000
774.431702	409.800000
774.468384	403.500000
774.505127	399.600000
774.541809	408.600000
774.578491	418.900000
774.615234	420.100000
774.651917	410.000000
774.688599	416.900000
774.725342	426.800000
774.762024	422.400000
774.798706	423.700000
774.835449	424.400000
774.872070	431.800000
774.908813	431.500000
774.945496	424.700000
774.982178	431.200000
775.018860	433.200000
775.055542	437.400000
775.092224	437.900000
775.128967	443.700000
775.165588	442.100000
775.202271	436.600000
775.239014	447.800000
775.275635	444.600000
775.312317	440.600000
775.349060	445.900000
775.385681	445.200000
775.422363	439.700000
775.459045	446.600000
775.495667	447.400000
775.532410	450.000000
775.569092	450.700000
775.605713	451.300000
775.642395	451.300000
775.679016	454.400000
775.715698	456.200000
775.752380	457.100000
775.789001	454.500000
775.825684	453.600000
775.862366	454.900000
775.898987	467.500000
775.935669	458.100000
775.972351	477.200000
776.008972	472.100000
776.045654	472.300000
776.082336	464.900000
776.118958	466.600000
776.155640	471.500000
776.192322	478.500000
776.228882	480.200000
776.265564	480.900000
776.302185	478.100000
776.338867	489.600000
776.375488	475.900000
776.412109	488.400000
776.448792	490.300000
776.485413	499.600000
776.522034	490.600000
776.558716	485.200000
776.595337	486.300000
776.631958	496.300000
776.668579	495.300000
776.705261	503.300000
776.741882	500.500000
776.778503	497.200000
776.815186	495.500000
776.851746	504.600000
776.888367	500.900000
776.924988	513.000000
776.961609	502.800000
776.998291	501.800000
777.034851	493.900000
777.071472	507.000000
777.108154	501.300000
777.144714	517.500000
777.181335	513.600000
777.218018	505.200000
777.254578	514.400000
777.291199	512.800000
777.327759	516.400000
777.364380	526.000000
777.401062	531.700000
777.437622	544.400000
777.474243	532.000000
777.510864	539.500000
777.547424	532.500000
777.584045	537.400000
777.620667	538.200000
777.657227	540.900000
777.693848	544.000000
777.730469	554.300000
777.767029	549.900000
777.803650	555.800000
777.840271	548.900000
777.876831	548.000000
777.913452	553.800000
777.950012	537.100000
777.986633	537.200000
778.023193	535.100000
778.059753	534.000000
778.096375	536.400000
778.132996	548.200000
778.169556	540.700000
778.206116	542.700000
778.242737	538.100000
778.279297	548.500000
778.315857	537.900000
778.352478	545.500000
778.389038	558.300000
778.425598	558.000000
778.462219	564.500000
778.498718	561.700000
778.535339	567.400000
778.571838	565.400000
778.608459	572.600000
778.645020	563.000000
778.681580	574.500000
778.718140	574.900000
778.754761	565.600000
778.791260	571.800000
778.827881	581.100000
778.864441	577.800000
778.900940	579.000000
778.937561	581.000000
778.974121	581.900000
779.010620	569.800000
779.047241	577.300000
779.083801	589.400000
779.120300	586.100000
779.156860	587.000000
779.193359	583.500000
779.229980	586.200000
779.266541	589.700000
779.303040	590.700000
779.339600	582.600000
779.376160	577.000000
779.412659	581.700000
779.449219	572.800000
779.485779	579.400000
779.522278	583.400000
779.558838	587.200000
779.595398	590.600000
779.631897	588.400000
779.668457	578.200000
779.705017	590.000000
779.741516	580.500000
779.778076	574.600000
779.814575	578.700000
779.851074	587.900000
779.887634	578.900000
779.924133	587.900000
779.960693	572.100000
779.997253	581.200000
780.033691	584.500000
780.070251	590.000000
780.106812	599.700000
780.143250	597.900000
780.179810	593.000000
780.216370	596.400000
780.252808	600.900000
780.289368	610.800000
780.325867	612.500000
780.362366	608.700000
780.398865	619.700000
780.435364	613.100000
780.471863	622.900000
780.508423	614.300000
780.544861	620.300000
780.581421	622.900000
780.617920	613.400000
780.654419	611.900000
780.690918	615.400000
780.727417	626.800000
780.763916	621.800000
780.800415	627.200000
780.836914	613.700000
780.873352	631.400000
780.909912	620.800000
780.946411	625.200000
780.982849	629.600000
781.019348	647.800000
781.055786	640.500000
781.092346	635.900000
781.128845	644.700000
781.165283	650.300000
781.201782	656.800000
781.238281	658.400000
781.274719	659.100000
781.311218	654.100000
781.347717	662.300000
781.384155	650.500000
781.420654	652.100000
781.457092	662.500000
781.493591	655.500000
781.530090	651.200000
781.566528	651.800000
781.602966	653.100000
781.639465	650.700000
781.675903	645.500000
781.712402	657.100000
781.748901	665.300000
781.785278	656.400000
781.821777	663.800000
781.858276	662.800000
781.894714	675.400000
781.931152	670.700000
781.967651	683.200000
782.004089	678.700000
782.040527	688.900000
782.076965	689.800000
782.113403	691.400000
782.149902	697.700000
782.186340	689.400000
782.222778	705.800000
782.259277	691.900000
782.295654	688.500000
782.332092	698.700000
782.368591	701.900000
782.404968	691.700000
782.441467	698.800000
782.477905	700.800000
782.514282	696.900000
782.550781	706.100000
782.587219	710.300000
782.623596	717.700000
782.660095	723.900000
782.696472	733.200000
782.732910	733.300000
782.769348	738.100000
782.805786	757.600000
782.842224	753.300000
782.878662	750.000000
782.915039	751.800000
782.951477	751.000000
782.987915	743.000000
783.024292	750.600000
783.060730	761.300000
783.097168	748.200000
783.133545	742.300000
783.169983	740.400000
783.206421	730.700000
783.242798	732.600000
783.279236	725.100000
783.315613	721.600000
783.352051	719.200000
783.388489	710.700000
783.424866	699.500000
783.461304	706.000000
783.497681	712.200000
783.534058	709.500000
783.570496	708.800000
783.606934	708.400000
783.643250	716.800000
783.679687	725.400000
783.716125	720.900000
783.752441	733.200000
783.788879	757.600000
783.825317	765.700000
783.861633	772.200000
783.898071	777.200000
783.934448	786.800000
783.970825	794.400000
784.007263	798.500000
784.043579	802.200000
784.080017	801.900000
784.116394	795.000000
784.152710	802.200000
784.189148	807.100000
784.225525	804.700000
784.261902	789.800000
784.298279	783.700000
784.334656	782.300000
784.371033	772.200000
784.407410	774.100000
784.443787	757.100000
784.480164	744.000000
784.516541	727.600000
784.552856	730.500000
784.589233	728.300000
784.625610	722.400000
784.661987	755.400000
784.698364	746.200000
784.734741	741.500000
784.771057	738.100000
784.807434	752.400000
784.843811	772.700000
784.880127	769.600000
784.916504	798.400000
784.952881	804.400000
784.989197	804.200000
785.025574	805.200000
785.061951	802.200000
785.098267	823.200000
785.134644	816.500000
785.170959	817.500000
785.207275	825.300000
785.243652	814.600000
785.279968	793.000000
785.316345	792.200000
785.352722	787.800000
785.388977	784.100000
785.425354	762.700000
785.461731	743.300000
785.498047	735.400000
785.534363	724.100000
785.570679	718.000000
785.606995	704.100000
785.643372	679.500000
785.679687	616.200000
785.716003	527.200000
785.752380	438.200000
785.788635	375.900000
785.825012	347.200000
785.861328	346.600000
785.897644	352.400000
785.933960	414.400000
785.970337	486.300000
786.006592	594.100000
786.042908	678.500000
786.079285	749.100000
786.115540	787.000000
786.151855	803.900000
786.188171	801.600000
786.224487	800.600000
786.260803	794.300000
786.297119	798.600000
786.333435	796.200000
786.369751	791.900000
786.406006	790.200000
786.442322	777.900000
786.478638	771.600000
786.514954	792.900000
786.551270	785.200000
786.587585	796.300000
786.623840	787.000000
786.660156	777.500000
786.696472	760.600000
786.732727	754.300000
786.769043	764.400000
786.805298	760.500000
786.841614	772.200000
786.877930	782.000000
786.914124	769.900000
786.950439	789.900000
786.986755	796.000000
787.023010	805.800000
787.059326	818.700000
787.095642	822.700000
787.131836	835.000000
787.168152	827.900000
787.204468	828.400000
787.240723	844.700000
787.276978	853.200000
787.313293	858.800000
787.349548	847.000000
787.385803	852.700000
787.422058	841.700000
787.458313	831.400000
787.494629	827.900000
787.530823	829.900000
787.567139	824.200000
787.603455	810.200000
787.639648	803.300000
787.675903	807.200000
787.712219	805.000000
787.748413	806.900000
787.784729	816.600000
787.820984	801.200000
787.857178	802.900000
787.893494	802.900000
787.929749	800.800000
787.965942	815.200000
788.002258	838.000000
788.038452	854.400000
788.074707	861.100000
788.110962	865.200000
788.147217	853.900000
788.183472	862.500000
788.219727	867.600000
788.255920	880.200000
788.292175	879.000000
788.328430	876.600000
788.364624	864.400000
788.400879	863.600000
788.437134	875.300000
788.473328	875.200000
788.509583	873.500000
788.545837	863.000000
788.582031	865.200000
788.618286	850.500000
788.654480	843.500000
788.690735	861.500000
788.726990	876.800000
788.763184	871.600000
788.799377	881.900000
788.835632	875.900000
788.871826	890.800000
788.908081	885.600000
788.944336	885.300000
788.980469	901.000000
789.016724	897.400000
789.052979	904.300000
789.089111	885.700000
789.125366	896.300000
789.161621	877.500000
789.197754	895.800000
789.234009	887.900000
789.270142	882.600000
789.306396	869.100000
789.342590	862.000000
789.378784	841.500000
789.414978	834.100000
789.451233	847.900000
789.487366	850.400000
789.523621	861.600000
789.559814	857.900000
789.595947	851.700000
789.632202	854.900000
789.668335	865.200000
789.704529	879.200000
789.740784	899.800000
789.776917	907.700000
789.813110	896.500000
789.849304	914.400000
789.885498	915.600000
789.921692	932.400000
789.957886	935.200000
789.994019	936.400000
790.030212	931.500000
790.066406	939.900000
790.102539	932.700000
790.138733	941.800000
790.174927	936.100000
790.211060	952.400000
790.247253	937.200000
790.283386	931.700000
790.319580	924.200000
790.355774	905.600000
790.391907	901.300000
790.428101	925.600000
790.464294	919.900000
790.500427	918.900000
790.536621	900.200000
790.572754	889.800000
790.608887	889.300000
790.645081	902.900000
790.681274	919.200000
790.717346	919.800000
790.753540	898.400000
790.789734	866.800000
790.825867	854.700000
790.862000	859.600000
790.898132	873.000000
790.934265	876.600000
790.970459	881.800000
791.006592	882.100000
791.042725	885.700000
791.078918	867.300000
791.114990	860.000000
791.151184	862.600000
791.187317	882.300000
791.223389	873.300000
791.259583	857.000000
791.295715	861.400000
791.331848	864.900000
791.367981	868.100000
791.404114	881.200000
791.440247	884.000000
791.476379	894.800000
791.512451	875.100000
791.548584	877.900000
791.584778	870.500000
791.620850	887.600000
791.656982	894.200000
791.693115	900.600000
791.729187	893.600000
791.765381	889.300000
791.801514	886.800000
791.837585	888.000000
791.873718	892.700000
791.909851	911.400000
791.945923	917.900000
791.982056	892.400000
792.018188	895.000000
792.054260	902.200000
792.090393	899.000000
792.126465	888.900000
792.162598	899.100000
792.198669	888.600000
792.234741	882.800000
792.270874	871.200000
792.307007	855.300000
792.343079	857.000000
792.379150	873.200000
792.415283	855.300000
792.451355	854.000000
792.487488	828.800000
792.523560	819.100000
792.559631	806.300000
792.595764	775.500000
792.631836	746.000000
792.667908	734.600000
792.703979	718.900000
792.740051	736.200000
792.776184	768.200000
792.812256	775.900000
792.848328	780.600000
792.884399	795.500000
792.920471	797.200000
792.956543	792.000000
792.992615	796.800000
793.028748	793.400000
793.064758	792.700000
793.100830	808.900000
793.136963	827.900000
793.172974	830.400000
793.209045	825.500000
793.245178	837.700000
793.281189	815.200000
793.317261	825.200000
793.353271	823.400000
793.389404	835.700000
793.425476	827.900000
793.461487	813.100000
793.497559	806.100000
793.533630	807.200000
793.569641	798.800000
793.605713	805.000000
793.641785	812.400000
793.677795	824.200000
793.713867	812.200000
793.749878	814.900000
793.785950	831.200000
793.822021	834.500000
793.858032	819.700000
793.894104	835.700000
793.930176	825.000000
793.966187	826.200000
794.002258	810.300000
794.038269	816.200000
794.074280	814.500000
794.110352	842.900000
794.146423	822.000000
794.182373	816.600000
794.218445	810.800000
794.254517	808.800000
794.290466	794.000000
794.326538	806.900000
794.362549	805.500000
794.398560	816.400000
794.434631	820.400000
794.470581	800.700000
794.506653	795.400000
794.542664	802.400000
794.578674	805.100000
794.614685	809.300000
794.650757	811.500000
794.686707	805.000000
794.722778	796.100000
794.758789	803.500000
794.794739	808.800000
794.830811	830.300000
794.866821	853.600000
794.902771	845.700000
794.938843	838.900000
794.974792	836.400000
795.010803	841.700000
795.046814	845.700000
795.082825	835.400000
795.118835	846.300000
795.154846	828.400000
795.190796	833.000000
795.226807	811.700000
795.262817	817.600000
795.298767	817.400000
795.334778	826.200000
795.370850	820.700000
795.406799	824.100000
795.442810	809.800000
795.478821	803.200000
795.514709	802.900000
795.550720	826.400000
795.586670	807.500000
795.622681	818.300000
795.658691	821.400000
795.694641	814.200000
795.730652	803.700000
795.766663	815.600000
795.802551	813.300000
795.838562	830.600000
795.874573	823.500000
795.910522	818.400000
795.946472	807.600000
795.982483	811.200000
796.018433	810.100000
796.054382	823.000000
796.090393	806.900000
796.126282	799.500000
796.162292	789.700000
796.198242	788.800000
796.234192	790.800000
796.270203	788.900000
796.306091	794.200000
796.342041	812.800000
796.378052	801.700000
796.413940	805.200000
796.449951	803.300000
796.485901	797.400000
796.521790	802.400000
796.557800	814.400000
796.593689	812.600000
796.629639	802.700000
796.665649	800.700000
796.701599	799.000000
796.737488	795.200000
796.773437	796.700000
796.809387	798.900000
796.845337	805.700000
796.881287	799.600000
796.917175	779.000000
796.953125	776.500000
796.989075	782.300000
797.024963	783.800000
797.060913	789.300000
797.096863	790.300000
797.132751	780.600000
797.168701	761.700000
797.204590	774.400000
797.240540	777.700000
797.276489	786.600000
797.312439	789.300000
797.348328	786.200000
797.384277	781.800000
797.420166	767.600000
797.456055	766.000000
797.492004	765.700000
797.527893	773.200000
797.563843	783.600000
797.599731	770.500000
797.635620	755.800000
797.671570	766.800000
797.707520	772.900000
797.743347	769.000000
797.779297	781.500000
797.815125	778.300000
797.851074	768.700000
797.887024	761.900000
797.922913	744.700000
797.958801	756.800000
797.994690	750.100000
798.030579	760.900000
798.066467	770.000000
798.102356	753.000000
798.138245	746.200000
798.174133	738.400000
798.210083	750.900000
798.245911	763.300000
798.281799	760.100000
798.317749	761.000000
798.353577	753.600000
798.389465	746.700000
798.425293	738.900000
798.461243	744.300000
798.497131	748.300000
798.532959	753.600000
798.568848	758.400000
798.604736	746.400000
798.640564	729.100000
798.676453	728.700000
798.712402	732.800000
798.748230	743.500000
798.784119	740.400000
798.820007	748.100000
798.855835	741.000000
798.891724	736.200000
798.927551	727.700000
798.963379	738.100000
798.999268	729.500000
799.035095	729.900000
799.070984	716.800000
799.106873	706.800000
799.142700	709.200000
799.178528	701.500000
799.214417	699.300000
799.250244	719.800000
799.286133	711.700000
799.321960	710.100000
799.357788	702.100000
799.393677	701.800000
799.429504	698.100000
799.465332	698.700000
799.501221	706.700000
799.537048	708.700000
799.572876	696.400000
799.608704	695.400000
799.644531	700.900000
799.680359	702.600000
799.716248	712.600000
799.752014	721.600000
799.787903	713.300000
799.823730	707.100000
799.859558	699.500000
799.895386	704.300000
799.931213	700.600000
799.967041	695.200000
800.002869	700.300000
800.038696	712.700000
800.074463	696.300000
800.110352	698.200000
800.146179	689.700000
800.181946	697.400000
800.217773	699.300000
800.253540	701.300000
800.289429	693.900000
800.325256	679.700000
800.361023	673.900000
800.396851	677.200000
800.432678	680.100000
800.468445	683.500000
800.504272	682.500000
800.540100	666.400000
800.575867	663.200000
800.611694	668.900000
800.647461	665.500000
800.683289	670.600000
800.719116	679.700000
800.754883	670.700000
800.790649	661.000000
800.826477	651.700000
800.862244	673.400000
800.898071	653.800000
800.933838	657.800000
800.969604	655.300000
801.005432	652.800000
801.041199	650.300000
801.076965	645.700000
801.112793	637.000000
801.148560	635.400000
801.184326	637.200000
801.220154	641.400000
801.255859	631.800000
801.291687	639.200000
801.327454	631.500000
801.363281	634.600000
801.398987	627.400000
801.434814	630.100000
801.470520	636.200000
801.506287	624.500000
801.542114	619.700000
801.577820	621.800000
801.613647	620.100000
801.649414	619.100000
801.685120	624.300000
801.720886	627.800000
801.756714	619.000000
801.792419	610.600000
801.828186	603.900000
801.863892	611.500000
801.899719	604.000000
801.935486	601.800000
801.971252	609.200000
802.006958	604.500000
802.042725	596.900000
802.078430	597.200000
802.114197	595.600000
802.149963	612.200000
802.185669	601.000000
802.221436	600.600000
802.257202	600.200000
802.292908	596.900000
802.328674	606.900000
802.364441	603.600000
802.400146	606.700000
802.435913	606.400000
802.471558	601.200000
802.507324	594.300000
802.543091	588.100000
802.578796	602.000000
802.614502	602.800000
802.650269	607.500000
802.685974	597.200000
802.721741	601.200000
802.757446	601.100000
802.793152	602.000000
802.828918	611.700000
802.864624	604.800000
802.900330	611.500000
802.936035	606.900000
802.971802	600.600000
803.007446	594.800000
803.043213	584.000000
803.078857	593.800000
803.114624	580.400000
803.150330	589.600000
803.185974	581.800000
803.221741	580.100000
803.257446	592.200000
803.293152	593.200000
803.328857	587.700000
803.364563	585.900000
803.400208	578.600000
803.435974	583.600000
803.471680	574.700000
803.507324	567.900000
803.543030	578.100000
803.578735	582.000000
803.614441	573.700000
803.650146	585.900000
803.685791	569.000000
803.721497	573.900000
803.757202	562.200000
803.792847	571.300000
803.828552	562.700000
803.864258	561.800000
803.899902	557.500000
803.935608	547.400000
803.971313	554.000000
804.006958	553.400000
804.042664	545.500000
804.078308	559.000000
804.113953	552.900000
804.149658	558.300000
804.185364	544.900000
804.221008	561.800000
804.256714	547.500000
804.292297	543.300000
804.328003	541.200000
804.363708	536.800000
804.399292	537.700000
804.434998	538.500000
804.470703	528.600000
804.506287	543.800000
804.541992	531.700000
804.577637	537.000000
804.613281	524.400000
804.648926	521.300000
804.684570	525.600000
804.720215	519.700000
804.755920	519.700000
804.791565	517.500000
804.827209	521.100000
804.862854	521.000000
804.898437	512.600000
804.934143	517.800000
804.969788	513.400000
805.005371	515.700000
805.041077	514.100000
805.076721	513.600000
805.112305	503.100000
805.147949	505.100000
805.183655	500.300000
805.219238	506.500000
805.254883	503.000000
805.290466	507.000000
805.326111	499.300000
805.361755	489.100000
805.397400	491.400000
805.432983	493.600000
805.468628	490.600000
805.504211	495.700000
805.539856	490.300000
805.575500	497.000000
805.611084	490.400000
805.646729	481.800000
805.682373	485.700000
805.717957	495.900000
805.753601	494.800000
805.789246	478.600000
805.824768	495.400000
805.860413	496.400000
805.895996	486.200000
805.931641	485.000000
805.967224	496.500000
806.002869	483.200000
806.038452	496.000000
806.074036	490.600000
806.109619	480.300000
806.145264	477.800000
806.180847	481.500000
806.216431	477.200000
806.252014	482.200000
806.287659	480.000000
806.323181	486.000000
806.358826	478.500000
806.394409	461.000000
806.429993	469.300000
806.465576	485.200000
806.501160	466.200000
806.536743	460.600000
806.572327	469.900000
806.607910	467.600000
806.643494	461.700000
806.679077	464.100000
806.714661	464.000000
806.750244	463.800000
806.785828	456.300000
806.821350	458.400000
806.856934	464.400000
806.892517	458.500000
806.928101	450.500000
806.963684	455.700000
806.999268	462.000000
807.034790	447.300000
807.070374	455.200000
807.105896	446.400000
807.141479	444.400000
807.177063	451.600000
807.212585	445.900000
807.248169	445.600000
807.283752	450.200000
807.319275	445.500000
807.354858	446.700000
807.390381	440.100000
807.425903	440.300000
807.461487	435.000000
807.497070	433.100000
807.532593	434.200000
807.568115	432.400000
807.603699	431.300000
807.639221	426.500000
807.674744	427.300000
807.710266	434.600000
807.745850	436.900000
807.781372	431.500000
807.816895	426.400000
807.852417	431.000000
807.888000	429.600000
807.923523	423.200000
807.959045	427.600000
807.994629	422.500000
808.030090	420.200000
808.065613	425.700000
808.101135	427.300000
808.136658	425.400000
808.172241	422.600000
808.207764	423.000000
808.243225	418.100000
808.278809	415.500000
808.314270	420.300000
808.349792	408.200000
808.385315	405.400000
808.420837	414.800000
808.456360	419.900000
808.491882	420.400000
808.527344	416.900000
808.562866	426.400000
808.598389	417.800000
808.633850	411.900000
808.669434	406.200000
808.704895	417.500000
808.740417	420.800000
808.775940	413.800000
808.811462	405.300000
808.846924	405.500000
808.882385	399.200000
808.917847	398.600000
808.953369	400.800000
808.988892	397.600000
809.024353	404.600000
809.059875	404.400000
809.095398	398.100000
809.130798	391.700000
809.166321	391.700000
809.201843	392.300000
809.237305	394.400000
809.272766	402.900000
809.308228	389.600000
809.343750	391.700000
809.379211	391.900000
809.414734	390.300000
809.450134	398.600000
809.485657	381.200000
809.521118	389.800000
809.556580	383.200000
809.592102	383.600000
809.627502	379.000000
809.663025	378.000000
809.698486	374.600000
809.733887	374.500000
809.769409	378.400000
809.804871	368.300000
809.840271	371.700000
809.875793	376.100000
809.911194	378.700000
809.946655	372.500000
809.982178	366.100000
810.017639	374.900000
810.053040	369.000000
810.088501	369.100000
810.123901	367.700000
810.159424	365.900000
810.194885	360.200000
810.230286	365.200000
810.265747	359.800000
810.301208	355.800000
810.336609	359.600000
810.372070	352.100000
810.407532	353.200000
810.442932	355.700000
810.478394	361.700000
810.513794	358.200000
810.549255	353.900000
810.584717	354.800000
810.620117	347.600000
810.655518	355.500000
810.690979	352.200000
810.726379	349.900000
810.761841	340.200000
810.797302	342.300000
810.832642	340.000000
810.868103	351.400000
810.903564	340.100000
810.938904	344.900000
810.974365	333.500000
811.009827	338.000000
811.045166	333.400000
811.080627	324.100000
811.115967	330.900000
811.151428	341.200000
811.186829	331.600000
811.222229	334.600000
811.257629	326.900000
811.293091	332.600000
811.328430	340.400000
811.363892	335.300000
811.399292	338.200000
811.434631	329.900000
811.470093	337.500000
811.505493	325.900000
811.540833	330.200000
811.576294	331.600000
811.611694	326.800000
811.647034	324.400000
811.682434	327.300000
811.717773	328.700000
811.753235	332.400000
811.788635	325.100000
811.823975	326.600000
811.859375	331.100000
811.894775	319.600000
811.930115	321.000000
811.965515	320.700000
812.000916	324.400000
812.036255	321.100000
812.071655	323.500000
812.106995	319.000000
812.142395	317.200000
812.177795	326.200000
812.213196	322.900000
812.248474	324.100000
812.283875	316.200000
812.319214	320.800000
812.354614	319.400000
812.390015	315.300000
812.425293	317.100000
812.460693	316.600000
812.496094	312.900000
812.531433	308.700000
812.566772	307.400000
812.602173	312.300000
812.637451	313.400000
812.672852	310.300000
812.708191	310.600000
812.743530	305.000000
812.778931	299.500000
812.814270	301.500000
812.849609	307.400000
812.884949	302.100000
812.920227	295.600000
812.955627	312.100000
812.990967	304.100000
813.026306	299.700000
813.061646	289.500000
813.096985	285.400000
813.132324	283.800000
813.167664	287.400000
813.203003	293.000000
813.238281	281.000000
813.273682	281.400000
813.308960	280.200000
813.344299	281.400000
813.379639	290.000000
813.414978	283.300000
813.450256	281.500000
813.485596	286.700000
813.520874	275.200000
813.556213	282.800000
813.591614	284.600000
813.626831	277.400000
813.662170	280.400000
813.697510	292.000000
813.732788	274.300000
813.768127	281.200000
813.803467	282.100000
813.838745	275.800000
813.874084	279.700000
813.909363	279.500000
813.944641	277.500000
813.979980	268.800000
814.015320	273.000000
814.050598	271.500000
814.085876	274.400000
814.121155	271.900000
814.156494	269.100000
814.191772	270.700000
814.227051	264.400000
814.262390	268.400000
814.297668	268.700000
814.332947	272.000000
814.368225	262.000000
814.403564	268.000000
814.438782	264.300000
814.474121	265.500000
814.509338	262.000000
814.544617	271.100000
814.579956	261.100000
814.615173	273.400000
814.650513	270.300000
814.685791	262.600000
814.721008	265.300000
814.756348	264.400000
814.791626	261.400000
814.826843	260.900000
814.862122	261.400000
814.897400	256.800000
814.932678	261.900000
814.967957	259.500000
815.003235	259.000000
815.038452	252.900000
815.073730	254.300000
815.108948	261.700000
815.144226	258.500000
815.179504	262.200000
815.214722	249.200000
815.250000	247.400000
815.285278	255.500000
815.320496	249.100000
815.355774	251.500000
815.391052	255.500000
815.426270	251.200000
815.461487	249.900000
815.496765	246.800000
815.531982	242.700000
815.567261	248.700000
815.602539	254.800000
815.637695	251.600000
815.672974	252.000000
815.708191	253.500000
815.743408	253.400000
815.778687	247.000000
815.813904	257.300000
815.849121	240.100000
815.884399	241.300000
815.919556	243.100000
815.954834	242.000000
815.990051	246.100000
816.025269	250.300000
816.060486	239.700000
816.095703	240.600000
816.130920	244.400000
816.166199	238.700000
816.201416	244.400000
816.236572	248.100000
816.271851	238.900000
816.307007	245.600000
816.342224	235.500000
816.377441	238.200000
816.412659	229.900000
816.447876	241.700000
816.483093	236.800000
816.518250	236.800000
816.553467	233.800000
816.588745	239.300000
816.623901	232.400000
816.659119	227.800000
816.694275	229.500000
816.729492	229.700000
816.764709	264.800000
816.799927	226.700000
816.835083	231.400000
816.870300	226.200000
816.905457	228.100000
816.940674	232.500000
816.975830	225.700000
817.010986	223.300000
817.046204	224.700000
817.081421	222.500000
817.116577	221.200000
817.151733	230.200000
817.186951	229.700000
817.222107	226.400000
817.257324	227.300000
817.292419	227.000000
817.327637	218.800000
817.362854	224.000000
817.398010	218.300000
817.433167	221.000000
817.468323	220.200000
817.503479	221.600000
817.538635	229.800000
817.573853	224.700000
817.608948	220.800000
817.644165	219.300000
817.679321	216.300000
817.714478	216.600000
817.749634	221.000000
817.784790	232.200000
817.819946	226.400000
817.855103	209.400000
817.890198	217.400000
817.925415	210.700000
817.960571	218.400000
817.995667	219.000000
818.030823	219.800000
818.066040	213.200000
818.101135	217.700000
818.136292	214.500000
818.171448	209.500000
818.206543	213.200000
818.241699	217.300000
818.276855	215.800000
818.311951	212.500000
818.347107	209.600000
818.382263	215.700000
818.417358	220.000000
818.452515	220.500000
818.487610	220.700000
818.522766	208.800000
818.557922	218.500000
818.593018	216.400000
818.628113	214.300000
818.663269	210.100000
818.698364	212.200000
818.733521	207.100000
818.768677	211.500000
818.803711	206.600000
818.838867	206.700000
818.874023	210.500000
818.909058	206.100000
818.944214	204.400000
818.979370	210.800000
819.014404	209.000000
819.049561	206.400000
819.084595	212.900000
819.119751	201.000000
819.154846	210.500000
819.189941	205.600000
819.225037	202.900000
819.260193	197.400000
819.295227	202.000000
819.330322	194.400000
819.365479	197.300000
819.400513	228.100000
819.435608	195.300000
819.470764	193.400000
819.505798	198.100000
819.540894	198.600000
819.575989	197.600000
819.611084	205.600000
819.646179	206.500000
819.681213	202.500000
819.716309	200.700000
819.751404	198.800000
819.786438	204.800000
819.821533	195.300000
819.856628	200.200000
819.891663	202.500000
819.926758	209.400000
819.961853	205.200000
819.996887	197.800000
820.031982	203.000000
820.067017	197.400000
820.102112	227.100000
820.137207	195.300000
820.172302	212.100000
820.207275	195.800000
820.242371	196.200000
820.277405	194.400000
820.312500	196.700000
820.347534	197.700000
820.382568	201.100000
820.417664	192.300000
820.452759	195.300000
820.487732	192.700000
820.522827	193.400000
820.557861	192.100000
820.592896	193.500000
820.627930	192.100000
820.662964	193.600000
820.698059	196.200000
820.733093	193.000000
820.768127	197.900000
820.803162	194.400000
820.838196	190.700000
820.873230	195.600000
820.908264	195.100000
820.943298	191.500000
820.978333	199.600000
821.013367	196.000000
821.048401	198.200000
821.083435	201.500000
821.118469	185.500000
821.153503	198.900000
821.188477	193.600000
821.223511	188.300000
821.258484	193.700000
821.293579	195.600000
821.328613	186.800000
821.363647	192.600000
821.398621	187.600000
821.433655	190.300000
821.468628	205.800000
821.503662	191.800000
821.538696	195.300000
821.573669	189.700000
821.608704	196.800000
821.643677	193.200000
821.678650	196.200000
821.713684	200.000000
821.748718	191.200000
821.783691	192.600000
821.818726	192.900000
821.853638	193.900000
821.888672	190.600000
821.923706	192.300000
821.958618	190.400000
821.993652	189.600000
822.028687	198.100000
822.063599	199.700000
822.098633	193.500000
822.133667	188.100000
822.168579	191.000000
822.203613	192.500000
822.238586	188.200000
822.273560	193.800000
822.308533	189.300000
822.343567	188.600000
822.378479	190.400000
822.413452	189.900000
822.448425	188.200000
822.483398	195.600000
822.518372	196.300000
822.553345	187.800000
822.588318	199.700000
822.623291	188.600000
822.658203	190.200000
822.693237	189.500000
822.728210	187.500000
822.763123	191.300000
822.798096	187.100000
822.833069	189.600000
822.867981	192.000000
822.902954	192.700000
822.937927	195.100000
822.972900	201.300000
823.007874	184.500000
823.042725	195.800000
823.077698	204.100000
823.112671	186.900000
823.147583	191.100000
823.182556	194.800000
823.217529	197.000000
823.252441	188.700000
823.287415	204.000000
823.322388	194.100000
823.357239	192.300000
823.392212	198.200000
823.427185	197.200000
823.462097	185.700000
823.497009	194.400000
823.531982	188.200000
823.566895	192.500000
823.601807	186.200000
823.636719	189.900000
823.671631	194.100000
823.706604	188.700000
823.741455	194.100000
823.776428	184.000000
823.811340	195.900000
823.846252	197.000000
823.881165	197.700000
823.916138	190.900000
823.950989	199.600000
823.985901	188.500000
824.020813	191.600000
824.055725	189.100000
824.090637	185.100000
824.125610	192.400000
824.160461	192.400000
824.195374	191.400000
824.230225	195.000000
824.265198	182.600000
824.300110	187.900000
824.334961	200.200000
824.369873	182.600000
824.404785	192.800000
824.439636	198.600000
824.474548	181.500000
824.509460	180.800000
824.544312	194.300000
824.579224	193.900000
824.614075	194.000000
824.648987	189.900000
824.683899	189.300000
824.718811	188.600000
824.753662	197.600000
824.788574	196.700000
824.823364	191.300000
824.858276	187.800000
824.893188	193.800000
824.928040	197.100000
824.962952	192.500000
824.997803	195.000000
825.032654	191.900000
825.067566	194.200000
825.102417	186.900000
825.137268	189.400000
825.172119	190.700000
825.206970	188.000000
825.241882	190.000000
825.276733	186.700000
825.311646	187.000000
825.346436	184.700000
825.381348	185.600000
825.416138	189.900000
825.450989	186.600000
825.485901	180.600000
825.520691	181.300000
825.555542	183.500000
825.590454	188.300000
825.625244	181.900000
825.660095	196.200000
825.695007	191.300000
825.729797	187.800000
825.764648	183.100000
825.799438	187.100000
825.834290	187.400000
825.869202	182.100000
825.903992	188.300000
825.938843	185.900000
825.973694	181.600000
826.008484	199.900000
826.043335	181.800000
826.078186	180.200000
826.112976	192.500000
826.147827	193.300000
826.182678	195.000000
826.217468	181.100000
826.252319	191.600000
826.287109	183.800000
826.321899	193.200000
826.356750	185.400000
826.391541	181.100000
826.426392	192.200000
826.461182	184.800000
826.495972	181.300000
826.530823	177.600000
826.565613	187.800000
826.600403	181.000000
826.635254	190.800000
826.670044	177.800000
826.704834	179.500000
826.739685	180.700000
826.774475	188.100000
826.809265	185.500000
826.844055	184.400000
826.878906	192.300000
826.913635	187.700000
826.948425	189.200000
826.983215	187.500000
827.018005	191.200000
827.052856	184.600000
827.087585	188.500000
827.122375	179.600000
827.157227	184.600000
827.191956	197.300000
827.226746	180.300000
827.261536	189.800000
827.296265	179.700000
827.331116	183.300000
827.365906	188.200000
827.400635	182.200000
827.435425	177.700000
827.470215	191.200000
827.504944	184.400000
827.539734	189.000000
827.574463	186.000000
827.609253	191.800000
827.644043	186.200000
827.678772	190.600000
827.713562	183.800000
827.748352	182.800000
827.783081	182.600000
827.817871	186.500000
827.852600	181.800000
827.887329	185.900000
827.922119	176.800000
827.956848	188.100000
827.991638	200.300000
828.026367	186.500000
828.061157	186.900000
828.095886	183.600000
828.130615	201.400000
828.165344	176.200000
828.200073	186.800000
828.234863	183.000000
828.269592	185.700000
828.304321	190.300000
828.339111	187.100000
828.373779	184.200000
828.408569	190.200000
828.443298	188.800000
828.477966	184.700000
828.512756	186.600000
828.547424	180.900000
828.582214	183.000000
828.616943	184.100000
828.651672	184.600000
828.686340	189.900000
828.721130	181.900000
828.755798	185.000000
828.790527	185.400000
828.825256	185.500000
828.859924	184.800000
828.894714	191.400000
828.929443	193.000000
828.964111	181.800000
828.998840	187.600000
829.033569	182.600000
829.068237	182.800000
829.102966	182.300000
829.137634	186.500000
829.172363	186.800000
829.207092	186.200000
829.241821	182.000000
829.276489	179.400000
829.311157	185.600000
829.345825	184.700000
829.380554	189.800000
829.415283	182.000000
829.449951	177.600000
829.484619	193.400000
829.519348	190.800000
829.554016	186.300000
829.588745	185.600000
829.623413	180.000000
829.658081	195.700000
829.692749	180.100000
829.727417	190.300000
829.762146	188.100000
829.796814	181.800000
829.831482	183.900000
829.866150	185.600000
829.900879	184.600000
829.935486	187.800000
829.970154	183.700000
830.004883	196.300000
830.039490	186.700000
830.074219	181.400000
830.108887	186.100000
830.143494	185.400000
830.178223	179.200000
830.212891	183.300000
830.247498	186.000000
830.282166	193.400000
830.316772	191.500000
830.351501	183.100000
830.386169	184.600000
830.420776	182.900000
830.455444	186.300000
830.490112	182.400000
830.524719	178.600000
830.559387	186.700000
830.594055	188.700000
830.628662	185.100000
830.663330	185.300000
830.697998	194.500000
830.732605	186.400000
830.767273	187.400000
830.801941	184.200000
830.836487	193.900000
830.871155	186.800000
830.905762	187.000000
830.940430	178.700000
830.975098	182.500000
831.009644	185.700000
831.044312	193.400000
831.078979	186.500000
831.113525	178.400000
831.148193	185.700000
831.182861	184.500000
831.217407	188.200000
831.252075	201.900000
831.286621	180.900000
831.321289	182.700000
831.355896	183.700000
831.390564	190.900000
831.425110	186.000000
831.459778	192.300000
831.494324	196.900000
831.528931	189.600000
831.563599	188.900000
831.598145	179.300000
831.632751	185.100000
831.667419	186.000000
831.701965	186.400000
831.736572	190.200000
831.771179	178.800000
831.805786	182.600000
831.840393	191.600000
831.874939	178.900000
831.909546	189.700000
831.944153	178.400000
831.978760	184.100000
832.013306	182.500000
832.047913	190.600000
832.082458	194.600000
832.117065	182.500000
832.151672	195.500000
832.186218	186.400000
832.220825	189.100000
832.255432	177.800000
832.289978	182.800000
832.324585	187.200000
832.359192	188.500000
832.393677	183.500000
832.428284	185.900000
832.462830	184.500000
832.497437	186.200000
832.531982	189.300000
832.566589	183.100000
832.601135	186.600000
832.635681	176.700000
832.670227	186.400000
832.704773	192.700000
832.739380	187.500000
832.773926	186.400000
832.808472	181.300000
832.843079	185.100000
832.877563	188.500000
832.912170	183.000000
832.946716	177.900000
832.981201	189.100000
833.015808	187.900000
833.050293	184.200000
833.084839	181.300000
833.119446	182.200000
833.153992	189.900000
833.188477	184.400000
833.223022	181.400000
833.257568	187.000000
833.292114	192.500000
833.326660	195.600000
833.361145	183.300000
833.395691	176.500000
833.430237	185.400000
833.464783	189.000000
833.499329	183.200000
833.533875	180.200000
833.568359	189.200000
833.602905	191.300000
833.637390	190.300000
833.671875	182.700000
833.706421	184.700000
833.740906	181.600000
833.775452	177.500000
833.809998	182.800000
833.844482	193.700000
833.879028	184.400000
833.913513	183.300000
833.947998	187.700000
833.982544	181.800000
834.017090	183.400000
834.051514	176.000000
834.086060	188.800000
834.120544	185.000000
834.155029	187.000000
834.189575	183.300000
834.223999	187.800000
834.258545	186.000000
834.293030	185.500000
834.327515	185.100000
834.362000	181.800000
834.396545	188.700000
834.430969	184.300000
834.465454	189.300000
834.500000	177.200000
834.534424	187.400000
834.568970	175.400000
834.603455	175.200000
834.637878	181.500000
834.672363	185.200000
834.706909	185.600000
834.741333	185.100000
834.775818	178.800000
834.810242	180.400000
834.844727	186.800000
834.879211	183.000000
834.913635	186.900000
834.948181	186.500000
834.982666	186.700000
835.017090	182.900000
835.051575	189.000000
835.086060	182.200000
835.120483	189.900000
835.154907	187.800000
835.189331	185.500000
835.223816	187.600000
835.258301	181.000000
835.292786	179.200000
835.327209	191.400000
835.361694	181.200000
835.396057	184.100000
835.430542	188.900000
835.465027	186.300000
835.499390	178.900000
835.533875	207.700000
835.568359	182.700000
835.602722	179.000000
835.637207	185.700000
835.671692	181.400000
835.706055	202.400000
835.740540	187.600000
835.774902	188.700000
835.809387	186.100000
835.843811	180.000000
835.878235	193.600000
835.912659	179.300000
835.947083	182.400000
835.981506	185.700000
836.015930	179.100000
836.050354	191.200000
836.084778	193.000000
836.119202	189.400000
836.153625	199.500000
836.187988	182.200000
836.222473	183.000000
836.256897	187.400000
836.291260	184.100000
836.325684	188.100000
836.360046	182.700000
836.394470	184.800000
836.428894	191.200000
836.463318	182.400000
836.497681	187.800000
836.532104	193.200000
836.566467	186.800000
836.600891	184.400000
836.635315	189.400000
836.669678	189.100000
836.704102	188.500000
836.738525	187.300000
836.772888	177.100000
836.807251	183.500000
836.841675	187.300000
836.876038	181.200000
836.910461	181.500000
836.944763	189.100000
836.979187	181.200000
837.013611	191.700000
837.047974	177.600000
837.082336	198.000000
837.116699	187.500000
837.151062	184.600000
837.185486	179.700000
837.219849	183.800000
837.254211	188.300000
837.288574	185.500000
837.322937	180.700000
837.357300	173.200000
837.391663	197.400000
837.426086	190.900000
837.460388	186.600000
837.494751	189.600000
837.529114	183.900000
837.563477	190.900000
837.597839	187.100000
837.632141	185.300000
837.666565	182.200000
837.700928	189.100000
837.735229	187.600000
837.769592	188.300000
837.803955	190.500000
837.838257	182.800000
837.872620	181.900000
837.906982	193.500000
837.941284	186.000000
837.975647	186.800000
838.010010	191.700000
838.044312	184.400000
838.078674	182.800000
838.112976	186.300000
838.147339	188.700000
838.181702	184.900000
838.216003	195.300000
838.250366	186.300000
838.284668	188.800000
838.318970	177.200000
838.353333	187.200000
838.387634	183.300000
838.421936	186.400000
838.456299	187.100000
838.490601	192.100000
838.524902	189.000000
838.559265	190.200000
838.593567	188.800000
838.627869	180.700000
838.662170	187.300000
838.696472	179.300000
838.730774	182.100000
838.765137	191.200000
838.799377	170.000000
838.833740	187.300000
838.868042	191.600000
838.902283	178.700000
838.936646	191.000000
838.970947	188.400000
839.005188	190.000000
839.039551	180.300000
839.073792	192.300000
839.108093	184.800000
839.142395	194.300000
839.176697	180.400000
839.210937	186.200000
839.245300	198.100000
839.279541	180.000000
839.313843	185.300000
839.348145	187.900000
839.382385	191.300000
839.416687	189.500000
839.450989	188.200000
839.485229	185.400000
839.519531	181.200000
839.553833	190.100000
839.588013	186.100000
839.622314	187.400000
839.656555	187.300000
839.690857	186.200000
839.725159	179.400000
839.759460	185.400000
839.793640	183.600000
839.827942	185.600000
839.862183	179.500000
839.896423	186.700000
839.930725	195.200000
839.964966	192.900000
839.999207	191.400000
840.033508	192.900000
840.067688	182.300000
840.101990	194.900000
840.136230	184.000000
840.170471	194.100000
840.204712	181.500000
840.238953	181.500000
840.273193	186.100000
840.307434	189.300000
840.341736	181.700000
840.375916	179.900000
840.410217	182.800000
840.444397	191.300000
840.478638	188.100000
840.512878	193.000000
840.547119	186.000000
840.581360	189.000000
840.615601	195.300000
840.649780	197.400000
840.684021	185.200000
840.718262	193.600000
840.752441	192.100000
840.786682	188.000000
840.820862	187.300000
840.855103	194.700000
840.889343	185.800000
840.923584	191.900000
840.957764	187.900000
840.992004	189.000000
841.026184	200.900000
841.060425	186.200000
841.094666	182.600000
841.128845	189.400000
841.163025	186.900000
841.197266	187.300000
841.231445	185.700000
841.265686	188.300000
841.299866	181.800000
841.334045	193.100000
841.368286	185.900000
841.402405	196.300000
841.436646	191.000000
841.470825	184.200000
841.505005	185.300000
841.539185	182.500000
841.573425	182.100000
841.607544	184.500000
841.641785	186.700000
841.675964	180.400000
841.710144	185.800000
841.744324	183.500000
841.778503	186.500000
841.812683	181.300000
841.846863	195.100000
841.881042	191.900000
841.915222	183.700000
841.949402	200.000000
841.983521	179.400000
842.017700	184.100000
842.051880	188.000000
842.086060	187.700000
842.120239	187.100000
842.154419	184.000000
842.188538	187.100000
842.222717	182.100000
842.256897	196.300000
842.291016	184.000000
842.325195	188.800000
842.359375	197.300000
842.393494	195.900000
842.427673	187.100000
842.461853	189.600000
842.495911	194.500000
842.530090	190.100000
842.564209	186.000000
842.598389	188.800000
842.632568	187.600000
842.666626	191.500000
842.700806	183.800000
842.734985	183.600000
842.769043	189.600000
842.803223	185.900000
842.837402	185.800000
842.871460	184.100000
842.905640	195.800000
842.939697	183.100000
842.973877	188.200000
843.007996	193.700000
843.042175	195.900000
843.076233	183.400000
843.110413	188.800000
843.144470	195.800000
843.178589	189.900000
843.212769	184.000000
843.246826	191.700000
843.280945	185.200000
843.315125	186.300000
843.349182	184.000000
843.383301	192.700000
843.417419	198.700000
843.451538	186.900000
843.485657	185.900000
843.519714	186.100000
843.553833	186.500000
843.587952	185.700000
843.622070	181.900000
843.656128	189.400000
843.690247	183.900000
843.724304	185.700000
843.758423	188.300000
843.792542	186.000000
843.826599	186.200000
843.860718	184.200000
843.894836	179.600000
843.928894	187.500000
843.963013	187.600000
843.997070	183.300000
844.031128	180.600000
844.065247	191.900000
844.099304	191.300000
844.133362	190.100000
844.167480	188.500000
844.201599	194.500000
844.235596	187.600000
844.269714	189.000000
844.303711	189.300000
844.337830	178.900000
844.371948	190.500000
844.405945	187.400000
844.440063	181.200000
844.474121	202.400000
844.508118	185.200000
844.542236	187.000000
844.576294	185.200000
844.610352	182.400000
844.644409	185.300000
844.678406	178.000000
844.712524	192.400000
844.746582	193.100000
844.780640	186.900000
844.814636	186.700000
844.848755	199.000000
844.882751	183.500000
844.916809	192.400000
844.950867	189.400000
844.984863	195.200000
845.018921	184.400000
845.052979	183.200000
845.086975	187.600000
845.121033	181.000000
845.155090	183.300000
845.189087	193.100000
845.223145	183.200000
845.257141	187.200000
845.291199	189.500000
845.325256	196.000000
845.359253	186.700000
845.393250	199.300000
845.427307	184.400000
845.461304	188.400000
845.495361	187.400000
845.529358	197.700000
845.563354	183.800000
845.597412	183.200000
845.631409	194.200000
845.665405	194.600000
845.699463	191.900000
845.733459	186.500000
845.767456	194.400000
845.801453	185.700000
845.835449	192.800000
845.869446	192.500000
845.903503	191.800000
845.937439	184.100000
845.971497	193.300000
846.005493	181.500000
846.039429	191.600000
846.073486	198.000000
846.107483	184.800000
846.141418	187.200000
846.175476	186.100000
846.209473	193.000000
846.243408	184.000000
846.277405	189.100000
846.311401	182.300000
846.345337	188.100000
846.379395	192.600000
846.413330	184.600000
846.447327	196.200000
846.481323	184.000000
846.515259	184.300000
846.549255	188.000000
846.583252	189.900000
846.617187	183.400000
846.651184	189.800000
846.685120	186.900000
846.719055	196.100000
846.753052	191.100000
846.786987	193.500000
846.820984	181.400000
846.854980	193.800000
846.888916	183.200000
846.922852	189.000000
846.956848	194.800000
846.990723	183.200000
847.024719	187.400000
847.058716	187.000000
847.092590	193.300000
847.126587	188.400000
847.160522	183.800000
847.194458	191.900000
847.228455	184.000000
847.262390	183.300000
847.296265	184.600000
847.330261	193.300000
847.364136	185.000000
847.398132	185.200000
847.432068	187.100000
847.466003	187.500000
847.499939	184.600000
847.533875	190.400000
847.567749	185.400000
847.601746	186.200000
847.635681	189.800000
847.669556	179.900000
847.703491	193.600000
847.737427	202.800000
847.771301	183.300000
847.805237	190.500000
847.839233	187.900000
847.873108	187.200000
847.907043	186.200000
847.940918	194.100000
847.974854	189.700000
848.008789	192.500000
848.042664	188.100000
848.076538	190.900000
848.110474	188.800000
848.144348	189.900000
848.178284	181.800000
848.212219	188.300000
848.246094	184.700000
848.279968	188.500000
848.313904	189.700000
848.347778	187.800000
848.381653	187.400000
848.415588	183.600000
848.449463	185.500000
848.483337	188.800000
848.517212	192.200000
848.551086	186.900000
848.585022	182.400000
848.618835	195.400000
848.652771	185.100000
848.686646	182.400000
848.720520	196.000000
848.754395	185.900000
848.788330	192.300000
848.822144	190.500000
848.856018	187.000000
848.889954	195.900000
848.923767	182.800000
848.957642	183.800000
848.991577	191.200000
849.025391	184.900000
849.059265	187.100000
849.093079	183.900000
849.126953	181.800000
849.160828	192.700000
849.194641	189.200000
849.228577	185.000000
849.262451	187.000000
849.296265	184.800000
849.330139	183.200000
849.364014	188.100000
849.397827	191.100000
849.431702	187.400000
849.465515	192.900000
849.499329	178.900000
849.533203	183.000000
849.567078	177.900000
849.600891	191.600000
849.634766	186.000000
849.668518	192.300000
849.702393	188.600000
849.736267	181.600000
849.770020	198.300000
849.803894	192.000000
849.837769	188.500000
849.871521	187.500000
849.905396	192.700000
849.939270	183.900000
849.973022	186.000000
850.006897	191.100000
850.040710	189.500000
850.074524	190.500000
850.108337	185.800000
850.142151	190.900000
850.175964	194.300000
850.209778	186.600000
850.243530	175.800000
850.277405	192.200000
850.311218	188.800000
850.344971	185.600000
850.378845	194.700000
850.412659	183.700000
850.446411	188.400000
850.480225	185.700000
850.514038	192.500000
850.547791	189.400000
850.581665	187.400000
850.615417	184.300000
850.649231	189.100000
850.683044	184.900000
850.716858	185.900000
850.750610	186.600000
850.784424	191.700000
850.818176	184.000000
850.851929	185.800000
850.885742	184.300000
850.919495	187.800000
850.953308	193.200000
850.987122	194.800000
851.020874	181.800000
851.054626	181.000000
851.088440	189.000000
851.122192	191.900000
851.156006	187.100000
851.189697	186.800000
851.223511	180.900000
851.257263	192.700000
851.291077	191.000000
851.324829	186.600000
851.358582	184.000000
851.392334	186.200000
851.426086	185.700000
851.459900	196.400000
851.493591	187.400000
851.527344	188.700000
851.561157	187.600000
851.594849	190.700000
851.628662	189.600000
851.662415	194.500000
851.696106	188.400000
851.729858	191.600000
851.763611	181.600000
851.797363	188.600000
851.831116	182.800000
851.864868	191.000000
851.898560	192.600000
851.932312	184.400000
851.966064	190.500000
851.999817	187.600000
852.033569	187.200000
852.067261	191.600000
852.101013	184.500000
852.134766	186.200000
852.168457	178.200000
852.202209	190.400000
852.235901	183.600000
852.269592	189.000000
852.303345	197.000000
852.337036	191.400000
852.370789	187.500000
852.404541	190.100000
852.438171	185.800000
852.471924	185.700000
852.505676	181.500000
852.539307	189.600000
852.573059	183.600000
852.606812	184.300000
852.640442	187.000000
852.674194	192.500000
852.707886	197.900000
852.741577	194.900000
852.775269	184.300000
852.809021	188.600000
852.842651	191.100000
852.876404	192.400000
852.910034	189.100000
852.943787	193.200000
852.977478	190.100000
853.011108	183.400000
853.044861	185.000000
853.078552	194.700000
853.112183	189.700000
853.145874	189.300000
853.179626	180.000000
853.213257	188.000000
853.246948	186.500000
853.280640	195.400000
853.314270	187.700000
853.347961	195.000000
853.381653	191.800000
853.415283	192.900000
853.448975	184.800000
853.482605	189.400000
853.516296	188.400000
853.549988	182.200000
853.583618	190.400000
853.617310	190.000000
853.651001	189.100000
853.684631	183.300000
853.718323	184.700000
853.751953	195.900000
853.785583	179.800000
853.819275	191.300000
853.852966	188.900000
853.886536	179.300000
853.920227	181.200000
853.953918	192.500000
853.987488	186.000000
854.021179	190.300000
854.054749	194.600000
854.088440	189.900000
854.122131	182.400000
854.155701	192.400000
854.189331	182.100000
854.223022	191.600000
854.256592	189.600000
854.290283	185.000000
854.323914	189.400000
854.357483	190.600000
854.391174	189.600000
854.424744	198.000000
854.458374	189.200000
854.492065	198.700000
854.525696	186.800000
854.559265	195.200000
854.592896	197.900000
854.626465	189.600000
854.660095	187.600000
854.693787	190.800000
854.727356	187.200000
854.760986	194.100000
854.794617	189.500000
854.828186	186.700000
854.861816	190.400000
854.895447	189.500000
854.929016	190.200000
854.962585	191.100000
854.996155	196.900000
855.029785	190.000000
855.063416	191.200000
855.097046	193.400000
855.130615	182.100000
855.164185	194.300000
855.197754	188.300000
855.231384	190.500000
855.264954	187.200000
855.298523	192.600000
855.332153	188.900000
855.365723	194.400000
855.399292	184.600000
855.432922	185.300000
855.466492	190.500000
855.500061	182.800000
855.533630	184.700000
855.567200	191.300000
855.600769	192.500000
855.634338	191.000000
855.667969	190.200000
855.701477	184.500000
855.735046	184.600000
855.768616	179.200000
855.802185	189.200000
855.835754	200.200000
855.869324	179.800000
855.902893	186.200000
855.936401	194.400000
855.969971	188.300000
856.003540	181.900000
856.037109	191.400000
856.070618	188.900000
856.104187	180.100000
856.137695	187.200000
856.171265	178.500000
856.204834	188.700000
856.238403	192.100000
856.271912	185.600000
856.305481	190.300000
856.338989	181.700000
856.372559	190.200000
856.406128	191.900000
856.439636	192.400000
856.473145	186.500000
856.506653	193.400000
856.540222	187.600000
856.573792	194.700000
856.607300	192.700000
856.640808	181.100000
856.674377	188.300000
856.707825	217.200000
856.741394	193.900000
856.774902	183.500000
856.808472	180.100000
856.841980	190.500000
856.875488	196.000000
856.908936	180.400000
856.942505	185.800000
856.976013	187.100000
857.009521	183.900000
857.043030	189.600000
857.076477	186.100000
857.110046	192.700000
857.143555	187.600000
857.177063	191.900000
857.210571	186.300000
857.244080	181.800000
857.277527	191.100000
857.311035	187.300000
857.344543	190.900000
857.378052	187.500000
857.411499	191.200000
857.445068	197.300000
857.478516	186.300000
857.512024	182.200000
857.545532	185.600000
857.578979	192.200000
857.612427	187.100000
857.645874	185.200000
857.679382	189.600000
857.712891	192.800000
857.746399	186.800000
857.779846	194.900000
857.813354	193.400000
857.846741	188.700000
857.880249	184.700000
857.913757	189.900000
857.947266	189.300000
857.980652	193.300000
858.014160	184.500000
858.047546	187.200000
858.081055	186.700000
858.114563	198.000000
858.147949	182.600000
858.181458	192.600000
858.214844	186.600000
858.248352	180.300000
858.281799	192.400000
858.315308	201.000000
858.348694	191.000000
858.382141	196.900000
858.415588	190.700000
858.449036	194.700000
858.482483	189.300000
858.515930	185.200000
858.549377	188.200000
858.582825	194.600000
858.616211	190.400000
858.649658	190.100000
858.683105	182.700000
858.716553	185.400000
858.750000	182.000000
858.783386	186.100000
858.816833	179.700000
858.850281	189.000000
858.883728	190.500000
858.917114	187.800000
858.950562	196.600000
858.983948	195.100000
859.017395	192.100000
859.050781	185.300000
859.084167	183.400000
859.117615	181.600000
859.151062	191.100000
859.184448	184.200000
859.217834	185.500000
859.251282	184.300000
859.284668	183.800000
859.318054	178.600000
859.351440	184.400000
859.384888	196.700000
859.418274	179.900000
859.451721	178.800000
859.485046	192.600000
859.518494	190.100000
859.551819	184.500000
859.585266	189.900000
859.618652	191.800000
859.652039	182.000000
859.685425	183.600000
859.718811	181.100000
859.752197	177.100000
859.785583	194.700000
859.819031	195.100000
859.852356	189.800000
859.885742	186.500000
859.919067	186.700000
859.952454	187.500000
859.985901	192.500000
860.019287	187.400000
860.052612	0.000000
860.085999	0.000000
860.119324	0.000000
860.152710	0.000000
860.186096	0.000000
860.219421	0.000000
860.252808	0.000000
860.286133	0.000000
860.319519	0.000000
860.352905	0.000000
860.386292	0.000000
860.419617	0.000000
860.452942	0.000000
860.486267	0.000000
860.519653	0.000000
860.553040	0.000000
860.586365	0.000000
860.619690	0.000000
860.653076	0.000000
860.686340	0.000000
860.719727	0.000000
860.753113	0.000000
860.786377	0.000000
860.819763	0.000000
860.853027	0.000000
860.886414	0.000000
860.919739	0.000000
860.953125	0.000000
860.986389	0.000000
861.019714	0.000000
861.053040	0.000000
861.086365	0.000000
861.119690	0.000000
861.153076	0.000000
861.186340	0.000000
861.219666	0.000000
861.252930	0.000000
861.286316	0.000000
861.319641	0.000000
861.352905	0.000000
861.386230	0.000000
861.419495	0.000000
861.452820	0.000000
861.486145	0.000000
861.519470	0.000000
861.552734	0.000000
861.586060	0.000000
861.619324	0.000000
861.652649	0.000000
861.685974	0.000000
861.719238	0.000000
861.752563	0.000000
861.785828	0.000000
861.819092	0.000000
861.852417	0.000000
861.885742	0.000000
861.918945	0.000000
861.952271	0.000000
861.985535	0.000000
862.018799	0.000000
862.052124	0.000000
862.085449	0.000000
862.118652	0.000000
862.151978	0.000000
862.185181	0.000000
862.218506	0.000000
862.251770	0.000000
862.285034	0.000000
862.318298	0.000000
862.351562	0.000000
862.384827	0.000000
862.418091	0.000000
862.451355	0.000000
862.484619	0.000000
862.517883	0.000000
862.551086	0.000000
862.584351	0.000000
862.617676	0.000000
862.650940	0.000000
862.684143	0.000000
862.717407	0.000000
862.750610	0.000000
862.783875	0.000000
862.817139	0.000000
862.850342	0.000000
862.883606	0.000000
862.916870	0.000000
862.950073	0.000000
862.983337	0.000000
863.016602	0.000000
863.049805	0.000000
863.083069	0.000000
863.116211	0.000000
863.149475	0.000000
863.182739	0.000000
863.216003	0.000000
863.249146	0.000000
863.282410	0.000000
863.315613	0.000000
863.348816	0.000000
863.382080	0.000000
863.415222	0.000000
863.448486	0.000000
863.481689	0.000000
863.514893	0.000000
863.548157	0.000000
863.581360	0.000000
863.614502	0.000000
863.647766	0.000000
863.680908	0.000000
863.714172	0.000000
863.747375	0.000000
863.780579	0.000000
863.813721	0.000000
863.846985	0.000000
863.880127	0.000000
863.913330	0.000000
863.946533	0.000000
863.979675	0.000000
864.012939	0.000000
