Model Number: SPM-001-M   
Serial Number: 10090201
Firmware Version: 004.17.6
Exposure Time: 500000.000000us
Data Taken on: 03-03-2021 09:54:39.168
Wavelength	Amplitude
733.770752	0.000000
733.808716	0.000000
733.846619	0.000000
733.884583	0.000000
733.922546	0.000000
733.960449	0.000000
733.998413	0.000000
734.036377	0.000000
734.074219	0.000000
734.112183	0.000000
734.150085	0.000000
734.188049	0.000000
734.226013	0.000000
734.263916	0.000000
734.301819	0.000000
734.339783	0.000000
734.377686	0.000000
734.415588	0.000000
734.453552	0.000000
734.491455	0.000000
734.529419	0.000000
734.567322	0.000000
734.605225	0.000000
734.643127	0.000000
734.681091	0.000000
734.718994	0.000000
734.756897	0.000000
734.794800	0.000000
734.832703	0.000000
734.870667	0.000000
734.908508	0.000000
734.946472	0.000000
734.984375	0.000000
735.022278	0.000000
735.060181	0.000000
735.098083	0.000000
735.135986	0.000000
735.173889	0.000000
735.211792	0.000000
735.249695	0.000000
735.287598	0.000000
735.325439	0.000000
735.363403	0.000000
735.401306	0.000000
735.439148	0.000000
735.477051	0.000000
735.515015	0.000000
735.552856	0.000000
735.590759	0.000000
735.628662	0.000000
735.666504	0.000000
735.704407	0.000000
735.742310	0.000000
735.780212	0.000000
735.818115	0.000000
735.856018	0.000000
735.893860	0.000000
735.931763	0.000000
735.969604	0.000000
736.007507	0.000000
736.045410	0.000000
736.083252	0.000000
736.121094	0.000000
736.158997	0.000000
736.196838	0.000000
736.234741	0.000000
736.272644	0.000000
736.310486	0.000000
736.348389	0.000000
736.386230	0.000000
736.424072	0.000000
736.461975	0.000000
736.499878	0.000000
736.537720	0.000000
736.575562	0.000000
736.613403	0.000000
736.651306	0.000000
736.689148	0.000000
736.726990	0.000000
736.764893	0.000000
736.802734	0.000000
736.840576	0.000000
736.878418	0.000000
736.916321	0.000000
736.954102	0.000000
736.992004	0.000000
737.029846	0.000000
737.067688	0.000000
737.105530	0.000000
737.143372	0.000000
737.181213	0.000000
737.219116	0.000000
737.256897	0.000000
737.294739	0.000000
737.332642	0.000000
737.370422	0.000000
737.408325	0.000000
737.446167	0.000000
737.483948	0.000000
737.521790	0.000000
737.559692	0.000000
737.597473	0.000000
737.635315	0.000000
737.673157	0.000000
737.710999	0.000000
737.748840	0.000000
737.786621	0.000000
737.824463	0.000000
737.862305	0.000000
737.900085	0.000000
737.937927	0.000000
737.975769	0.000000
738.013550	0.000000
738.051392	0.000000
738.089233	0.000000
738.127014	0.000000
738.164856	0.000000
738.202698	0.000000
738.240479	0.000000
738.278320	0.000000
738.316162	0.000000
738.353943	0.000000
738.391785	0.000000
738.429565	0.000000
738.467407	0.000000
738.505188	0.000000
738.542969	0.000000
738.580811	0.000000
738.618652	0.000000
738.656372	0.000000
738.694214	0.000000
738.732056	0.000000
738.769836	0.000000
738.807617	0.000000
738.845459	0.000000
738.883240	0.000000
738.921021	0.000000
738.958862	0.000000
738.996582	0.000000
739.034424	0.000000
739.072205	0.000000
739.109985	0.000000
739.147827	0.000000
739.185547	0.000000
739.223389	0.000000
739.261169	0.000000
739.298889	0.000000
739.336731	0.000000
739.374512	0.000000
739.412292	0.000000
739.450073	0.000000
739.487854	0.000000
739.525635	0.000000
739.563416	0.000000
739.601135	0.000000
739.638977	0.000000
739.676758	0.000000
739.714478	0.000000
739.752258	0.000000
739.790100	0.000000
739.827820	0.000000
739.865601	0.000000
739.903381	0.000000
739.941101	0.000000
739.978882	189.700000
740.016724	185.900000
740.054443	190.100000
740.092224	184.000000
740.130005	182.400000
740.167725	184.100000
740.205505	182.100000
740.243225	193.700000
740.281006	187.500000
740.318787	180.400000
740.356506	191.400000
740.394287	192.500000
740.432068	181.700000
740.469727	180.700000
740.507507	189.400000
740.545288	186.400000
740.583008	188.400000
740.620789	187.300000
740.658569	178.400000
740.696228	186.400000
740.734009	192.600000
740.771790	176.600000
740.809509	190.200000
740.847229	182.700000
740.884949	182.700000
740.922729	180.100000
740.960449	183.200000
740.998169	181.500000
741.035950	182.300000
741.073669	190.300000
741.111389	186.100000
741.149170	197.600000
741.186890	195.500000
741.224609	190.900000
741.262329	187.600000
741.300110	197.600000
741.337769	181.600000
741.375549	181.600000
741.413208	188.600000
741.450989	182.900000
741.488708	184.200000
741.526367	184.500000
741.564148	189.300000
741.601868	190.100000
741.639526	186.000000
741.677307	187.000000
741.715027	186.600000
741.752686	182.000000
741.790466	193.300000
741.828186	188.400000
741.865845	182.600000
741.903564	177.900000
741.941345	187.000000
741.979004	181.200000
742.016724	189.400000
742.054382	187.200000
742.092102	192.000000
742.129822	179.200000
742.167480	185.300000
742.205200	184.300000
742.242920	187.800000
742.280640	189.500000
742.318359	183.500000
742.356079	184.200000
742.393738	190.400000
742.431396	185.000000
742.469116	192.700000
742.506775	175.700000
742.544495	189.100000
742.582214	189.500000
742.619873	188.000000
742.657593	191.800000
742.695251	192.200000
742.732971	186.300000
742.770630	189.500000
742.808289	185.600000
742.846008	187.500000
742.883728	188.400000
742.921326	186.900000
742.959045	183.500000
742.996765	186.200000
743.034424	186.200000
743.072083	185.100000
743.109802	187.400000
743.147400	180.100000
743.185120	185.800000
743.222839	185.600000
743.260437	191.200000
743.298157	187.200000
743.335754	177.500000
743.373474	184.900000
743.411133	178.400000
743.448792	187.500000
743.486450	186.100000
743.524170	178.900000
743.561768	185.600000
743.599487	192.900000
743.637146	196.400000
743.674744	184.900000
743.712463	184.200000
743.750122	187.000000
743.787720	189.900000
743.825439	182.100000
743.863037	185.500000
743.900696	185.500000
743.938416	211.300000
743.976013	184.500000
744.013672	194.600000
744.051331	192.100000
744.088928	195.700000
744.126587	191.100000
744.164307	188.500000
744.201904	183.400000
744.239563	190.000000
744.277222	187.900000
744.314819	187.400000
744.352478	192.900000
744.390137	189.700000
744.427734	188.800000
744.465393	186.600000
744.502991	181.600000
744.540649	190.200000
744.578308	187.000000
744.615906	182.600000
744.653564	176.100000
744.691223	190.600000
744.728821	178.800000
744.766418	188.000000
744.804077	188.800000
744.841675	184.100000
744.879333	179.600000
744.916992	185.100000
744.954529	182.700000
744.992187	191.400000
745.029785	185.500000
745.067444	183.600000
745.105042	186.600000
745.142639	189.100000
745.180298	195.500000
745.217896	184.000000
745.255493	186.000000
745.293152	191.300000
745.330750	189.600000
745.368347	194.300000
745.405945	188.800000
745.443604	185.700000
745.481140	189.800000
745.518799	185.700000
745.556396	190.900000
745.593994	191.000000
745.631592	186.000000
745.669189	180.300000
745.706787	187.500000
745.744385	183.100000
745.781982	188.600000
745.819580	184.800000
745.857178	184.400000
745.894775	185.700000
745.932373	186.800000
745.969971	187.500000
746.007568	179.700000
746.045166	196.500000
746.082764	191.900000
746.120300	190.400000
746.157898	191.600000
746.195557	186.200000
746.233093	180.300000
746.270691	189.500000
746.308228	188.700000
746.345825	190.400000
746.383423	190.500000
746.420959	181.500000
746.458557	185.200000
746.496155	185.100000
746.533691	187.900000
746.571289	181.800000
746.608887	188.000000
746.646423	186.300000
746.684021	187.400000
746.721619	184.300000
746.759155	189.500000
746.796753	178.900000
746.834351	181.000000
746.871826	183.600000
746.909424	193.300000
746.946960	187.500000
746.984558	186.000000
747.022156	184.400000
747.059631	194.500000
747.097229	188.700000
747.134827	185.100000
747.172363	194.100000
747.209900	189.100000
747.247498	181.300000
747.285034	194.000000
747.322571	193.200000
747.360168	186.100000
747.397644	180.000000
747.435242	191.600000
747.472778	193.800000
747.510315	184.900000
747.547913	184.300000
747.585388	193.600000
747.622925	185.400000
747.660522	178.900000
747.697998	182.500000
747.735596	184.000000
747.773132	184.100000
747.810669	186.300000
747.848206	191.300000
747.885742	181.700000
747.923279	181.100000
747.960815	188.200000
747.998352	187.700000
748.035889	191.800000
748.073425	192.500000
748.110901	183.000000
748.148437	183.600000
748.185974	186.900000
748.223511	196.700000
748.261047	188.100000
748.298584	188.700000
748.336060	185.200000
748.373596	190.900000
748.411133	206.300000
748.448608	184.300000
748.486145	189.900000
748.523682	194.200000
748.561218	193.100000
748.598755	189.100000
748.636292	190.900000
748.673706	185.100000
748.711243	192.300000
748.748718	189.800000
748.786255	186.400000
748.823792	187.100000
748.861267	182.200000
748.898804	190.000000
748.936340	188.400000
748.973816	185.700000
749.011292	192.700000
749.048828	188.500000
749.086304	188.400000
749.123840	198.300000
749.161316	182.200000
749.198792	196.600000
749.236328	192.100000
749.273743	187.100000
749.311279	185.400000
749.348816	189.000000
749.386230	186.500000
749.423767	175.200000
749.461304	189.600000
749.498718	186.300000
749.536255	193.300000
749.573730	198.500000
749.611206	193.000000
749.648682	185.200000
749.686218	186.100000
749.723633	189.700000
749.761169	185.900000
749.798645	183.000000
749.836060	185.700000
749.873596	183.200000
749.911011	188.800000
749.948547	193.400000
749.986023	187.500000
750.023437	185.700000
750.060913	181.100000
750.098450	180.400000
750.135864	186.000000
750.173340	185.900000
750.210815	192.700000
750.248291	181.500000
750.285767	187.800000
750.323242	193.000000
750.360657	189.900000
750.398132	181.400000
750.435608	191.000000
750.473022	182.300000
750.510498	183.000000
750.547974	181.400000
750.585449	186.700000
750.622925	176.600000
750.660339	197.200000
750.697815	186.600000
750.735291	186.500000
750.772644	187.500000
750.810120	188.900000
750.847595	189.000000
750.885010	182.300000
750.922485	196.200000
750.959961	185.200000
750.997375	194.300000
751.034851	190.500000
751.072266	191.300000
751.109680	179.900000
751.147156	192.400000
751.184570	188.400000
751.221985	187.200000
751.259460	178.000000
751.296875	187.700000
751.334290	186.900000
751.371765	190.100000
751.409180	189.500000
751.446594	193.900000
751.484070	188.000000
751.521423	187.700000
751.558899	187.900000
751.596375	194.000000
751.633728	194.400000
751.671204	199.700000
751.708618	182.000000
751.746033	188.000000
751.783447	180.200000
751.820801	183.300000
751.858276	188.600000
751.895691	188.400000
751.933105	184.600000
751.970520	183.600000
752.007935	184.400000
752.045349	191.000000
752.082764	186.800000
752.120178	186.200000
752.157532	182.000000
752.195007	184.300000
752.232422	189.000000
752.269775	191.600000
752.307190	188.900000
752.344543	183.000000
752.382019	185.700000
752.419434	185.200000
752.456787	187.600000
752.494202	191.600000
752.531616	186.900000
752.568970	192.500000
752.606384	187.700000
752.643799	189.100000
752.681152	194.400000
752.718567	190.500000
752.755981	178.900000
752.793335	190.700000
752.830750	178.400000
752.868164	192.700000
752.905518	183.800000
752.942932	191.500000
752.980225	181.800000
753.017639	191.600000
753.055054	186.000000
753.092407	188.900000
753.129822	192.300000
753.167175	197.600000
753.204529	186.900000
753.241943	185.000000
753.279358	180.600000
753.316650	189.200000
753.354065	188.600000
753.391479	191.900000
753.428772	196.100000
753.466187	189.300000
753.503479	182.900000
753.540894	185.200000
753.578308	182.200000
753.615601	181.300000
753.653015	188.800000
753.690369	183.600000
753.727722	182.900000
753.765076	179.500000
753.802490	182.500000
753.839783	178.400000
753.877136	186.600000
753.914551	200.800000
753.951843	183.000000
753.989258	190.800000
754.026611	188.800000
754.063904	187.800000
754.101257	184.000000
754.138611	177.700000
754.175964	188.700000
754.213318	197.600000
754.250610	180.000000
754.288025	183.400000
754.325378	182.500000
754.362671	193.400000
754.400024	186.400000
754.437378	197.000000
754.474670	196.800000
754.512085	182.300000
754.549438	188.700000
754.586731	184.700000
754.624084	186.100000
754.661438	181.100000
754.698730	196.300000
754.736084	183.800000
754.773376	185.700000
754.810730	188.900000
754.848083	185.300000
754.885315	191.500000
754.922668	178.900000
754.960022	181.500000
754.997314	190.700000
755.034668	185.800000
755.072021	187.500000
755.109253	184.500000
755.146606	192.300000
755.183960	183.200000
755.221252	193.700000
755.258545	190.600000
755.295898	191.600000
755.333191	193.700000
755.370544	189.400000
755.407776	184.800000
755.445129	185.700000
755.482422	191.400000
755.519714	181.600000
755.557068	180.900000
755.594360	177.300000
755.631653	189.900000
755.668945	194.000000
755.706299	188.800000
755.743530	196.500000
755.780884	194.300000
755.818176	191.200000
755.855408	191.700000
755.892761	188.000000
755.930054	188.600000
755.967346	187.200000
756.004639	190.200000
756.041870	186.800000
756.079224	192.000000
756.116516	182.100000
756.153748	190.000000
756.191040	194.600000
756.228394	189.900000
756.265625	181.500000
756.302917	188.900000
756.340210	182.100000
756.377441	192.200000
756.414795	193.800000
756.452087	187.300000
756.489319	180.400000
756.526611	191.700000
756.563843	188.100000
756.601135	197.000000
756.638428	196.200000
756.675659	187.000000
756.712952	191.000000
756.750244	191.700000
756.787476	188.700000
756.824768	194.100000
756.862061	185.800000
756.899292	235.300000
756.936584	191.700000
756.973816	199.000000
757.011047	199.700000
757.048340	188.900000
757.085632	188.600000
757.122864	203.800000
757.160156	186.300000
757.197327	190.700000
757.234619	193.000000
757.271912	188.300000
757.309082	193.800000
757.346375	185.400000
757.383667	194.300000
757.420837	190.100000
757.458130	191.800000
757.495422	188.700000
757.532593	191.300000
757.569885	182.800000
757.607117	185.600000
757.644348	191.000000
757.681580	202.700000
757.718811	178.300000
757.756042	190.500000
757.793335	186.700000
757.830505	194.300000
757.867798	187.400000
757.905029	187.700000
757.942200	191.900000
757.979492	188.100000
758.016724	188.700000
758.053894	188.500000
758.091187	207.900000
758.128418	191.600000
758.165588	189.000000
758.202820	202.900000
758.240112	188.400000
758.277283	202.100000
758.314514	191.800000
758.351685	189.300000
758.388916	200.600000
758.426147	199.300000
758.463379	200.900000
758.500610	195.200000
758.537842	191.600000
758.575012	199.000000
758.612244	187.900000
758.649475	204.300000
758.686646	185.800000
758.723877	199.300000
758.761108	199.100000
758.798279	191.200000
758.835510	194.700000
758.872742	199.200000
758.909851	194.700000
758.947083	196.100000
758.984253	193.500000
759.021484	197.700000
759.058716	197.500000
759.095886	197.000000
759.133057	192.500000
759.170288	197.200000
759.207458	190.600000
759.244690	205.900000
759.281860	204.300000
759.319031	195.000000
759.356262	192.600000
759.393433	193.500000
759.430603	193.700000
759.467773	192.700000
759.505005	201.600000
759.542175	200.000000
759.579346	195.600000
759.616516	194.100000
759.653687	198.700000
759.690918	193.100000
759.728027	198.500000
759.765259	196.800000
759.802429	201.100000
759.839539	198.000000
759.876770	203.700000
759.913940	205.700000
759.951111	199.600000
759.988281	198.200000
760.025452	196.000000
760.062561	193.700000
760.099792	207.400000
760.136963	201.400000
760.174072	196.700000
760.211243	193.400000
760.248413	195.600000
760.285583	192.800000
760.322754	210.000000
760.359863	203.600000
760.397034	206.300000
760.434204	198.700000
760.471375	198.100000
760.508545	196.600000
760.545715	198.800000
760.582825	193.700000
760.619995	203.600000
760.657166	193.200000
760.694275	206.600000
760.731445	201.800000
760.768555	201.700000
760.805664	204.300000
760.842834	202.100000
760.879944	203.400000
760.917114	201.600000
760.954285	199.600000
760.991394	194.600000
761.028564	205.900000
761.065674	203.500000
761.102783	197.500000
761.139954	205.100000
761.177124	205.100000
761.214172	206.800000
761.251343	201.200000
761.288452	201.500000
761.325562	206.300000
761.362732	196.800000
761.399841	202.400000
761.436951	202.200000
761.474121	198.500000
761.511169	201.700000
761.548340	206.500000
761.585449	204.800000
761.622559	207.800000
761.659668	203.100000
761.696838	209.800000
761.733887	202.900000
761.771057	203.300000
761.808167	202.500000
761.845276	208.300000
761.882385	214.900000
761.919434	204.500000
761.956604	222.400000
761.993713	200.900000
762.030762	210.600000
762.067871	204.700000
762.105042	203.300000
762.142090	213.800000
762.179199	207.100000
762.216309	212.200000
762.253418	220.300000
762.290527	215.600000
762.327637	212.000000
762.364685	202.100000
762.401794	211.500000
762.438904	211.000000
762.475952	205.000000
762.513062	204.600000
762.550110	203.600000
762.587219	218.700000
762.624329	216.300000
762.661377	210.200000
762.698486	210.500000
762.735596	210.000000
762.772644	204.300000
762.809753	202.000000
762.846863	208.700000
762.883911	213.600000
762.921021	212.700000
762.958069	210.900000
762.995117	216.800000
763.032227	217.300000
763.069336	209.600000
763.106323	204.600000
763.143433	205.200000
763.180481	212.200000
763.217590	213.400000
763.254639	209.800000
763.291687	210.500000
763.328735	217.200000
763.365845	211.900000
763.402893	210.100000
763.439941	213.400000
763.477051	215.200000
763.514038	217.800000
763.551147	209.700000
763.588196	215.100000
763.625244	213.500000
763.662292	221.300000
763.699402	222.900000
763.736389	218.900000
763.773499	224.800000
763.810486	220.100000
763.847534	215.800000
763.884644	218.900000
763.921631	213.200000
763.958679	227.200000
763.995728	215.000000
764.032776	226.600000
764.069824	212.700000
764.106873	223.400000
764.143860	226.200000
764.180969	217.200000
764.218018	223.400000
764.255005	216.900000
764.292053	218.100000
764.329102	230.900000
764.366089	227.400000
764.403137	226.800000
764.440125	218.600000
764.477173	221.300000
764.514221	223.100000
764.551208	222.400000
764.588257	217.700000
764.625305	226.300000
764.662292	230.500000
764.699341	233.200000
764.736389	225.600000
764.773376	240.100000
764.810425	227.100000
764.847473	235.700000
764.884399	230.400000
764.921448	239.000000
764.958435	237.900000
764.995483	227.200000
765.032532	243.800000
765.069458	229.800000
765.106506	231.500000
765.143555	228.600000
765.180481	231.800000
765.217529	241.600000
765.254578	226.000000
765.291504	235.200000
765.328552	233.600000
765.365540	230.000000
765.402527	244.100000
765.439575	230.000000
765.476501	229.300000
765.513550	227.900000
765.550537	235.900000
765.587463	241.300000
765.624512	235.400000
765.661499	223.700000
765.698486	241.400000
765.735474	230.600000
765.772461	234.000000
765.809448	240.900000
765.846436	240.500000
765.883423	242.900000
765.920410	239.300000
765.957397	233.200000
765.994385	241.800000
766.031311	248.000000
766.068359	242.700000
766.105286	240.300000
766.142273	248.100000
766.179260	241.800000
766.216187	235.500000
766.253174	233.200000
766.290161	243.700000
766.327148	244.600000
766.364136	245.800000
766.401123	259.400000
766.438049	237.200000
766.475037	251.100000
766.512024	248.400000
766.548950	262.600000
766.585937	255.300000
766.622864	251.700000
766.659790	250.800000
766.696777	240.200000
766.733704	252.500000
766.770691	243.000000
766.807678	257.900000
766.844604	252.600000
766.881531	251.500000
766.918518	257.400000
766.955444	258.000000
766.992432	249.200000
767.029358	254.200000
767.066284	257.200000
767.103271	252.500000
767.140198	283.800000
767.177124	268.300000
767.214050	258.100000
767.251038	258.200000
767.287964	256.100000
767.324890	252.100000
767.361816	257.600000
767.398743	260.900000
767.435730	255.500000
767.472595	259.800000
767.509583	266.400000
767.546509	253.300000
767.583374	260.800000
767.620361	251.400000
767.657288	259.200000
767.694214	258.000000
767.731140	257.700000
767.768066	257.900000
767.804993	263.900000
767.841919	253.300000
767.878845	261.600000
767.915710	268.400000
767.952698	263.100000
767.989563	264.600000
768.026489	265.700000
768.063416	257.500000
768.100281	259.300000
768.137207	270.700000
768.174133	267.100000
768.211060	268.300000
768.247986	266.400000
768.284912	265.200000
768.321777	267.500000
768.358704	264.000000
768.395630	266.500000
768.432495	262.200000
768.469421	271.300000
768.506348	273.300000
768.543152	279.600000
768.580078	275.700000
768.616943	275.400000
768.653870	279.500000
768.690796	276.500000
768.727661	276.900000
768.764587	276.000000
768.801453	271.100000
768.838318	280.400000
768.875244	277.900000
768.912109	282.500000
768.948975	276.100000
768.985901	277.600000
769.022766	275.200000
769.059631	280.400000
769.096558	275.500000
769.133362	275.500000
769.170288	278.800000
769.207214	276.300000
769.244019	281.700000
769.280945	278.400000
769.317810	286.800000
769.354675	281.800000
769.391541	293.000000
769.428406	284.900000
769.465271	297.100000
769.502136	283.200000
769.539062	288.600000
769.575867	286.900000
769.612732	289.200000
769.649597	294.700000
769.686462	297.600000
769.723328	290.400000
769.760193	290.300000
769.797058	291.300000
769.833923	299.800000
769.870728	292.600000
769.907593	297.900000
769.944519	295.100000
769.981323	300.700000
770.018188	300.800000
770.055054	299.800000
770.091858	297.300000
770.128723	308.500000
770.165588	311.900000
770.202393	297.900000
770.239258	310.600000
770.276062	307.000000
770.312927	305.500000
770.349792	312.100000
770.386597	310.100000
770.423462	319.600000
770.460327	324.200000
770.497131	309.400000
770.533997	302.500000
770.570862	317.900000
770.607605	321.500000
770.644470	317.300000
770.681335	318.700000
770.718140	319.200000
770.754944	312.600000
770.791809	313.900000
770.828613	314.300000
770.865479	316.400000
770.902222	328.300000
770.939087	320.900000
770.975952	311.700000
771.012695	318.300000
771.049561	334.200000
771.086365	320.900000
771.123169	320.300000
771.159973	323.700000
771.196838	325.200000
771.233582	328.700000
771.270447	327.200000
771.307251	329.300000
771.344055	327.800000
771.380859	330.700000
771.417664	326.200000
771.454468	335.600000
771.491272	337.100000
771.528076	334.800000
771.564880	337.400000
771.601685	341.100000
771.638428	331.400000
771.675293	339.200000
771.712097	327.600000
771.748840	344.700000
771.785645	340.400000
771.822449	342.400000
771.859253	344.900000
771.896057	340.100000
771.932861	352.400000
771.969604	342.400000
772.006409	335.200000
772.043213	348.200000
772.079956	345.400000
772.116760	339.600000
772.153503	343.300000
772.190308	353.100000
772.227112	343.700000
772.263855	339.800000
772.300659	346.000000
772.337463	353.300000
772.374207	342.800000
772.411011	338.900000
772.447754	343.200000
772.484497	359.500000
772.521301	350.800000
772.558105	348.600000
772.594849	349.500000
772.631592	355.400000
772.668396	352.300000
772.705139	357.500000
772.741882	351.900000
772.778625	361.100000
772.815430	365.800000
772.852173	357.600000
772.888916	363.100000
772.925720	368.200000
772.962463	372.500000
772.999207	368.700000
773.035950	371.200000
773.072754	371.000000
773.109436	365.300000
773.146240	368.600000
773.182922	365.400000
773.219727	373.500000
773.256470	370.300000
773.293152	359.300000
773.329956	365.100000
773.366699	372.700000
773.403381	361.100000
773.440186	371.900000
773.476929	372.200000
773.513611	367.800000
773.550354	367.100000
773.587158	371.600000
773.623840	366.000000
773.660583	374.200000
773.697327	387.800000
773.734009	376.100000
773.770813	376.300000
773.807495	374.400000
773.844238	375.700000
773.880981	391.000000
773.917664	383.400000
773.954407	389.600000
773.991150	381.300000
774.027832	385.600000
774.064575	376.500000
774.101318	382.000000
774.138000	387.000000
774.174744	384.400000
774.211487	385.900000
774.248108	372.100000
774.284851	375.400000
774.321594	386.100000
774.358276	386.300000
774.395020	396.700000
774.431702	395.100000
774.468384	386.000000
774.505127	381.000000
774.541809	387.600000
774.578491	396.200000
774.615234	395.400000
774.651917	387.800000
774.688599	391.500000
774.725342	402.200000
774.762024	397.800000
774.798706	403.300000
774.835449	400.400000
774.872070	410.000000
774.908813	406.600000
774.945496	405.800000
774.982178	404.600000
775.018860	407.900000
775.055542	407.800000
775.092224	409.500000
775.128967	417.600000
775.165588	418.100000
775.202271	407.900000
775.239014	421.100000
775.275635	420.000000
775.312317	415.200000
775.349060	421.100000
775.385681	422.600000
775.422363	409.900000
775.459045	421.100000
775.495667	420.100000
775.532410	423.400000
775.569092	423.900000
775.605713	427.700000
775.642395	425.600000
775.679016	428.200000
775.715698	424.100000
775.752380	428.300000
775.789001	424.700000
775.825684	426.300000
775.862366	428.100000
775.898987	439.600000
775.935669	430.200000
775.972351	449.000000
776.008972	447.400000
776.045654	444.700000
776.082336	440.600000
776.118958	444.500000
776.155640	445.200000
776.192322	451.800000
776.228882	453.500000
776.265564	453.300000
776.302185	448.700000
776.338867	461.200000
776.375488	446.100000
776.412109	458.900000
776.448792	459.300000
776.485413	469.700000
776.522034	457.400000
776.558716	454.500000
776.595337	454.700000
776.631958	459.900000
776.668579	463.200000
776.705261	467.900000
776.741882	464.400000
776.778503	464.500000
776.815186	462.000000
776.851746	469.100000
776.888367	470.500000
776.924988	475.000000
776.961609	466.800000
776.998291	467.500000
777.034851	464.800000
777.071472	478.200000
777.108154	477.400000
777.144714	486.500000
777.181335	484.400000
777.218018	472.900000
777.254578	488.200000
777.291199	485.600000
777.327759	491.900000
777.364380	497.600000
777.401062	503.000000
777.437622	515.700000
777.474243	502.200000
777.510864	509.000000
777.547424	500.900000
777.584045	503.300000
777.620667	508.200000
777.657227	507.400000
777.693848	507.300000
777.730469	524.400000
777.767029	512.300000
777.803650	514.200000
777.840271	507.200000
777.876831	508.400000
777.913452	517.300000
777.950012	501.400000
777.986633	499.900000
778.023193	500.400000
778.059753	501.300000
778.096375	504.200000
778.132996	516.900000
778.169556	506.300000
778.206116	507.000000
778.242737	501.900000
778.279297	510.600000
778.315857	501.900000
778.352478	511.700000
778.389038	521.700000
778.425598	519.700000
778.462219	525.800000
778.498718	516.900000
778.535339	527.600000
778.571838	525.700000
778.608459	532.800000
778.645020	521.000000
778.681580	531.800000
778.718140	531.200000
778.754761	523.600000
778.791260	531.100000
778.827881	545.000000
778.864441	541.500000
778.900940	547.800000
778.937561	544.000000
778.974121	546.500000
779.010620	530.700000
779.047241	536.700000
779.083801	542.900000
779.120300	541.000000
779.156860	542.100000
779.193359	536.900000
779.229980	539.600000
779.266541	540.600000
779.303040	544.900000
779.339600	538.100000
779.376160	534.300000
779.412659	537.300000
779.449219	531.800000
779.485779	541.000000
779.522278	539.600000
779.558838	547.300000
779.595398	545.400000
779.631897	546.800000
779.668457	536.700000
779.705017	549.500000
779.741516	536.000000
779.778076	533.300000
779.814575	538.900000
779.851074	541.900000
779.887634	539.800000
779.924133	546.300000
779.960693	534.400000
779.997253	545.500000
780.033691	547.300000
780.070251	549.700000
780.106812	561.500000
780.143250	561.600000
780.179810	558.100000
780.216370	557.500000
780.252808	558.700000
780.289368	566.900000
780.325867	561.900000
780.362366	561.300000
780.398865	576.000000
780.435364	568.400000
780.471863	580.100000
780.508423	571.800000
780.544861	576.100000
780.581421	576.600000
780.617920	569.200000
780.654419	563.900000
780.690918	570.200000
780.727417	580.400000
780.763916	579.800000
780.800415	584.900000
780.836914	575.400000
780.873352	585.000000
780.909912	577.700000
780.946411	582.100000
780.982849	590.100000
781.019348	603.600000
781.055786	596.600000
781.092346	591.700000
781.128845	599.400000
781.165283	599.800000
781.201782	610.000000
781.238281	609.600000
781.274719	615.400000
781.311218	607.200000
781.347717	620.600000
781.384155	605.600000
781.420654	612.800000
781.457092	621.400000
781.493591	618.400000
781.530090	613.200000
781.566528	619.700000
781.602966	621.800000
781.639465	618.000000
781.675903	615.100000
781.712402	622.400000
781.748901	625.500000
781.785278	615.900000
781.821777	622.500000
781.858276	619.400000
781.894714	631.300000
781.931152	629.600000
781.967651	636.500000
782.004089	627.100000
782.040527	639.200000
782.076965	638.800000
782.113403	635.700000
782.149902	641.300000
782.186340	635.700000
782.222778	653.300000
782.259277	642.100000
782.295654	635.500000
782.332092	644.500000
782.368591	641.900000
782.404968	640.900000
782.441467	646.300000
782.477905	649.300000
782.514282	649.200000
782.550781	661.800000
782.587219	655.400000
782.623596	664.700000
782.660095	668.400000
782.696472	678.100000
782.732910	675.000000
782.769348	677.200000
782.805786	693.400000
782.842224	689.700000
782.878662	685.700000
782.915039	688.800000
782.951477	689.500000
782.987915	682.200000
783.024292	694.400000
783.060730	696.800000
783.097168	686.800000
783.133545	686.800000
783.169983	684.500000
783.206421	675.000000
783.242798	668.100000
783.279236	662.000000
783.315613	662.000000
783.352051	658.200000
783.388489	652.100000
783.424866	645.700000
783.461304	655.700000
783.497681	666.000000
783.534058	660.000000
783.570496	655.600000
783.606934	654.600000
783.643250	660.700000
783.679687	670.200000
783.716125	659.800000
783.752441	671.000000
783.788879	692.500000
783.825317	700.300000
783.861633	705.900000
783.898071	712.200000
783.934448	724.400000
783.970825	734.100000
784.007263	733.500000
784.043579	738.400000
784.080017	736.300000
784.116394	730.500000
784.152710	726.200000
784.189148	735.300000
784.225525	732.900000
784.261902	728.700000
784.298279	721.100000
784.334656	720.700000
784.371033	709.200000
784.407410	716.700000
784.443787	700.100000
784.480164	690.300000
784.516541	674.700000
784.552856	682.600000
784.589233	672.400000
784.625610	672.400000
784.661987	696.900000
784.698364	687.900000
784.734741	680.900000
784.771057	682.600000
784.807434	687.000000
784.843811	703.800000
784.880127	700.400000
784.916504	725.300000
784.952881	729.900000
784.989197	725.900000
785.025574	726.200000
785.061951	735.500000
785.098267	754.300000
785.134644	744.100000
785.170959	738.800000
785.207275	746.200000
785.243652	738.400000
785.279968	721.000000
785.316345	723.400000
785.352722	726.300000
785.388977	718.500000
785.425354	701.700000
785.461731	685.400000
785.498047	679.600000
785.534363	670.800000
785.570679	670.700000
785.606995	669.800000
785.643372	680.400000
785.679687	669.000000
785.716003	638.400000
785.752380	594.500000
785.788635	515.800000
785.825012	429.900000
785.861328	340.300000
785.897644	268.400000
785.933960	254.000000
785.970337	250.100000
786.006592	257.900000
786.042908	254.700000
786.079285	257.500000
786.115540	284.300000
786.151855	344.600000
786.188171	442.800000
786.224487	555.800000
786.260803	645.300000
786.297119	706.400000
786.333435	727.600000
786.369751	723.700000
786.406006	730.600000
786.442322	710.800000
786.478638	703.100000
786.514954	716.700000
786.551270	712.200000
786.587585	724.300000
786.623840	711.600000
786.660156	706.000000
786.696472	691.900000
786.732727	691.400000
786.769043	701.200000
786.805298	696.100000
786.841614	704.300000
786.877930	713.600000
786.914124	705.500000
786.950439	721.900000
786.986755	731.000000
787.023010	746.700000
787.059326	751.900000
787.095642	751.100000
787.131836	767.700000
787.168152	760.000000
787.204468	763.600000
787.240723	773.000000
787.276978	775.800000
787.313293	783.800000
787.349548	777.400000
787.385803	781.400000
787.422058	770.500000
787.458313	757.600000
787.494629	759.100000
787.530823	758.600000
787.567139	747.400000
787.603455	743.400000
787.639648	732.100000
787.675903	738.800000
787.712219	739.400000
787.748413	738.100000
787.784729	742.500000
787.820984	739.200000
787.857178	726.000000
787.893494	724.700000
787.929749	724.800000
787.965942	733.100000
788.002258	748.500000
788.038452	763.400000
788.074707	756.600000
788.110962	767.300000
788.147217	762.700000
788.183472	774.500000
788.219727	782.900000
788.255920	803.600000
788.292175	810.100000
788.328430	807.500000
788.364624	786.200000
788.400879	786.300000
788.437134	788.400000
788.473328	790.100000
788.509583	792.000000
788.545837	789.700000
788.582031	786.800000
788.618286	782.600000
788.654480	775.900000
788.690735	788.200000
788.726990	806.600000
788.763184	804.700000
788.799377	816.100000
788.835632	804.100000
788.871826	817.800000
788.908081	812.400000
788.944336	808.900000
788.980469	834.700000
789.016724	818.000000
789.052979	820.400000
789.089111	803.900000
789.125366	815.500000
789.161621	794.800000
789.197754	814.000000
789.234009	810.500000
789.270142	806.900000
789.306396	801.500000
789.342590	792.100000
789.378784	767.100000
789.414978	766.600000
789.451233	781.700000
789.487366	776.800000
789.523621	791.700000
789.559814	789.100000
789.595947	779.100000
789.632202	784.500000
789.668335	797.200000
789.704529	814.700000
789.740784	831.300000
789.776917	834.900000
789.813110	829.900000
789.849304	847.100000
789.885498	847.300000
789.921692	863.300000
789.957886	865.400000
789.994019	864.300000
790.030212	862.000000
790.066406	872.600000
790.102539	865.700000
790.138733	871.500000
790.174927	863.600000
790.211060	874.100000
790.247253	863.300000
790.283386	852.100000
790.319580	839.300000
790.355774	827.500000
790.391907	832.100000
790.428101	845.800000
790.464294	844.700000
790.500427	844.400000
790.536621	823.800000
790.572754	811.300000
790.608887	806.300000
790.645081	820.800000
790.681274	838.000000
790.717346	841.100000
790.753540	828.000000
790.789734	808.700000
790.825867	795.300000
790.862000	803.500000
790.898132	810.300000
790.934265	805.200000
790.970459	807.900000
791.006592	807.000000
791.042725	804.100000
791.078918	795.200000
791.114990	790.800000
791.151184	792.500000
791.187317	807.100000
791.223389	805.700000
791.259583	792.800000
791.295715	798.800000
791.331848	794.100000
791.367981	803.200000
791.404114	811.100000
791.440247	811.800000
791.476379	821.400000
791.512451	801.800000
791.548584	800.000000
791.584778	791.400000
791.620850	803.000000
791.656982	815.900000
791.693115	815.700000
791.729187	811.400000
791.765381	807.300000
791.801514	802.800000
791.837585	807.300000
791.873718	816.300000
791.909851	821.200000
791.945923	833.200000
791.982056	808.300000
792.018188	805.300000
792.054260	809.600000
792.090393	803.600000
792.126465	794.000000
792.162598	806.600000
792.198669	795.000000
792.234741	793.800000
792.270874	780.300000
792.307007	768.000000
792.343079	770.400000
792.379150	783.700000
792.415283	772.000000
792.451355	784.900000
792.487488	755.100000
792.523560	755.200000
792.559631	744.400000
792.595764	714.400000
792.631836	681.200000
792.667908	676.100000
792.703979	653.700000
792.740051	673.000000
792.776184	695.000000
792.812256	700.100000
792.848328	710.400000
792.884399	722.000000
792.920471	721.000000
792.956543	714.900000
792.992615	713.800000
793.028748	709.800000
793.064758	712.800000
793.100830	733.300000
793.136963	749.200000
793.172974	748.400000
793.209045	738.500000
793.245178	749.000000
793.281189	735.600000
793.317261	732.700000
793.353271	734.400000
793.389404	748.200000
793.425476	743.800000
793.461487	727.500000
793.497559	725.300000
793.533630	726.900000
793.569641	721.900000
793.605713	725.900000
793.641785	734.000000
793.677795	742.300000
793.713867	734.500000
793.749878	739.200000
793.785950	751.300000
793.822021	754.900000
793.858032	740.000000
793.894104	757.800000
793.930176	743.600000
793.966187	745.500000
794.002258	735.400000
794.038269	738.200000
794.074280	744.600000
794.110352	763.300000
794.146423	743.200000
794.182373	739.700000
794.218445	738.400000
794.254517	728.700000
794.290466	714.700000
794.326538	722.200000
794.362549	725.000000
794.398560	725.500000
794.434631	734.600000
794.470581	715.000000
794.506653	709.800000
794.542664	713.200000
794.578674	716.900000
794.614685	720.400000
794.650757	723.500000
794.686707	719.000000
794.722778	712.800000
794.758789	716.100000
794.794739	722.500000
794.830811	741.400000
794.866821	763.300000
794.902771	757.700000
794.938843	752.900000
794.974792	754.200000
795.010803	759.800000
795.046814	758.700000
795.082825	745.800000
795.118835	761.800000
795.154846	739.200000
795.190796	748.300000
795.226807	726.100000
795.262817	734.500000
795.298767	732.600000
795.334778	747.200000
795.370850	738.100000
795.406799	744.000000
795.442810	729.300000
795.478821	731.800000
795.514709	730.400000
795.550720	748.100000
795.586670	729.300000
795.622681	735.500000
795.658691	734.900000
795.694641	732.100000
795.730652	715.500000
795.766663	726.400000
795.802551	727.600000
795.838562	747.100000
795.874573	733.200000
795.910522	733.200000
795.946472	724.500000
795.982483	726.800000
796.018433	723.700000
796.054382	736.700000
796.090393	730.100000
796.126282	720.800000
796.162292	717.200000
796.198242	711.300000
796.234192	710.300000
796.270203	708.500000
796.306091	711.900000
796.342041	724.700000
796.378052	710.000000
796.413940	711.400000
796.449951	713.500000
796.485901	712.200000
796.521790	719.700000
796.557800	731.000000
796.593689	732.600000
796.629639	724.000000
796.665649	724.700000
796.701599	717.900000
796.737488	715.200000
796.773437	719.600000
796.809387	723.900000
796.845337	724.000000
796.881287	715.000000
796.917175	700.900000
796.953125	697.400000
796.989075	705.700000
797.024963	712.200000
797.060913	705.900000
797.096863	703.900000
797.132751	701.700000
797.168701	691.100000
797.204590	698.500000
797.240540	697.600000
797.276489	709.000000
797.312439	715.300000
797.348328	712.800000
797.384277	703.900000
797.420166	695.300000
797.456055	693.900000
797.492004	686.600000
797.527893	691.800000
797.563843	694.700000
797.599731	685.900000
797.635620	672.900000
797.671570	688.400000
797.707520	686.100000
797.743347	688.900000
797.779297	697.100000
797.815125	692.400000
797.851074	680.900000
797.887024	676.600000
797.922913	669.700000
797.958801	677.200000
797.994690	668.600000
798.030579	678.900000
798.066467	686.200000
798.102356	679.300000
798.138245	674.000000
798.174133	665.100000
798.210083	673.900000
798.245911	680.700000
798.281799	679.000000
798.317749	671.000000
798.353577	671.200000
798.389465	667.800000
798.425293	659.500000
798.461243	662.100000
798.497131	667.000000
798.532959	670.600000
798.568848	680.200000
798.604736	668.100000
798.640564	654.300000
798.676453	659.500000
798.712402	656.900000
798.748230	666.100000
798.784119	665.400000
798.820007	665.800000
798.855835	659.000000
798.891724	653.200000
798.927551	646.800000
798.963379	656.200000
798.999268	652.700000
799.035095	647.000000
799.070984	644.800000
799.106873	631.800000
799.142700	641.200000
799.178528	630.100000
799.214417	633.500000
799.250244	647.300000
799.286133	641.500000
799.321960	640.400000
799.357788	634.800000
799.393677	628.500000
799.429504	630.100000
799.465332	626.600000
799.501221	634.500000
799.537048	634.700000
799.572876	630.400000
799.608704	627.800000
799.644531	633.600000
799.680359	634.200000
799.716248	650.600000
799.752014	652.600000
799.787903	641.600000
799.823730	638.400000
799.859558	632.200000
799.895386	631.500000
799.931213	636.800000
799.967041	627.400000
800.002869	630.000000
800.038696	646.600000
800.074463	625.500000
800.110352	623.500000
800.146179	617.500000
800.181946	628.200000
800.217773	627.900000
800.253540	630.500000
800.289429	624.800000
800.325256	619.000000
800.361023	610.400000
800.396851	612.000000
800.432678	617.000000
800.468445	618.200000
800.504272	619.100000
800.540100	603.900000
800.575867	605.200000
800.611694	609.400000
800.647461	604.000000
800.683289	606.200000
800.719116	610.300000
800.754883	605.600000
800.790649	592.400000
800.826477	590.700000
800.862244	605.400000
800.898071	592.500000
800.933838	594.600000
800.969604	594.300000
801.005432	596.100000
801.041199	597.100000
801.076965	588.500000
801.112793	578.800000
801.148560	569.100000
801.184326	576.200000
801.220154	581.200000
801.255859	575.100000
801.291687	576.800000
801.327454	571.500000
801.363281	576.400000
801.398987	572.300000
801.434814	573.100000
801.470520	584.200000
801.506287	566.100000
801.542114	559.800000
801.577820	560.200000
801.613647	562.100000
801.649414	562.100000
801.685120	566.100000
801.720886	569.600000
801.756714	561.400000
801.792419	553.200000
801.828186	547.500000
801.863892	554.000000
801.899719	545.800000
801.935486	545.400000
801.971252	552.700000
802.006958	549.000000
802.042725	546.000000
802.078430	541.800000
802.114197	541.600000
802.149963	559.100000
802.185669	549.100000
802.221436	550.700000
802.257202	552.400000
802.292908	548.400000
802.328674	554.000000
802.364441	554.000000
802.400146	552.500000
802.435913	554.300000
802.471558	551.100000
802.507324	545.200000
802.543091	537.200000
802.578796	551.000000
802.614502	548.300000
802.650269	556.300000
802.685974	538.600000
802.721741	546.000000
802.757446	545.800000
802.793152	540.700000
802.828918	550.800000
802.864624	549.400000
802.900330	544.500000
802.936035	543.800000
802.971802	537.200000
803.007446	539.000000
803.043213	529.800000
803.078857	539.800000
803.114624	522.900000
803.150330	531.900000
803.185974	520.400000
803.221741	525.500000
803.257446	533.100000
803.293152	533.900000
803.328857	530.300000
803.364563	531.100000
803.400208	520.200000
803.435974	530.800000
803.471680	518.300000
803.507324	518.000000
803.543030	526.400000
803.578735	532.500000
803.614441	522.300000
803.650146	532.500000
803.685791	517.200000
803.721497	522.200000
803.757202	510.700000
803.792847	518.400000
803.828552	512.000000
803.864258	509.900000
803.899902	511.900000
803.935608	498.500000
803.971313	505.800000
804.006958	503.900000
804.042664	499.800000
804.078308	510.800000
804.113953	500.100000
804.149658	507.000000
804.185364	492.100000
804.221008	505.600000
804.256714	494.000000
804.292297	493.000000
804.328003	490.200000
804.363708	484.900000
804.399292	488.500000
804.434998	489.100000
804.470703	479.500000
804.506287	492.700000
804.541992	486.100000
804.577637	489.000000
804.613281	480.200000
804.648926	473.100000
804.684570	481.500000
804.720215	474.000000
804.755920	475.100000
804.791565	474.500000
804.827209	478.700000
804.862854	473.700000
804.898437	467.900000
804.934143	468.200000
804.969788	469.700000
805.005371	467.900000
805.041077	470.000000
805.076721	465.600000
805.112305	457.700000
805.147949	457.700000
805.183655	456.900000
805.219238	462.000000
805.254883	463.400000
805.290466	468.600000
805.326111	462.600000
805.361755	452.000000
805.397400	455.600000
805.432983	454.600000
805.468628	454.400000
805.504211	457.000000
805.539856	455.400000
805.575500	461.300000
805.611084	454.400000
805.646729	441.100000
805.682373	444.300000
805.717957	455.200000
805.753601	452.900000
805.789246	436.700000
805.824768	450.800000
805.860413	451.300000
805.895996	440.500000
805.931641	442.900000
805.967224	448.400000
806.002869	439.600000
806.038452	451.300000
806.074036	449.900000
806.109619	436.300000
806.145264	438.500000
806.180847	438.000000
806.216431	436.100000
806.252014	442.400000
806.287659	443.800000
806.323181	451.300000
806.358826	446.000000
806.394409	426.400000
806.429993	431.300000
806.465576	442.600000
806.501160	426.800000
806.536743	421.100000
806.572327	432.200000
806.607910	428.500000
806.643494	427.600000
806.679077	422.800000
806.714661	425.500000
806.750244	425.200000
806.785828	420.300000
806.821350	421.200000
806.856934	429.100000
806.892517	421.000000
806.928101	416.900000
806.963684	421.800000
806.999268	430.200000
807.034790	411.500000
807.070374	422.100000
807.105896	411.600000
807.141479	413.300000
807.177063	418.500000
807.212585	409.400000
807.248169	408.800000
807.283752	416.900000
807.319275	412.500000
807.354858	412.900000
807.390381	407.200000
807.425903	405.400000
807.461487	404.800000
807.497070	398.600000
807.532593	401.100000
807.568115	399.600000
807.603699	393.700000
807.639221	391.700000
807.674744	396.500000
807.710266	398.400000
807.745850	403.500000
807.781372	397.700000
807.816895	394.700000
807.852417	398.900000
807.888000	396.400000
807.923523	394.500000
807.959045	398.700000
807.994629	386.100000
808.030090	386.700000
808.065613	392.000000
808.101135	395.100000
808.136658	390.700000
808.172241	391.200000
808.207764	387.000000
808.243225	383.700000
808.278809	378.600000
808.314270	388.700000
808.349792	376.800000
808.385315	377.500000
808.420837	381.100000
808.456360	389.000000
808.491882	389.000000
808.527344	387.800000
808.562866	394.200000
808.598389	383.700000
808.633850	378.300000
808.669434	373.600000
808.704895	382.500000
808.740417	389.600000
808.775940	381.400000
808.811462	378.100000
808.846924	373.000000
808.882385	370.900000
808.917847	368.800000
808.953369	374.700000
808.988892	368.500000
809.024353	374.800000
809.059875	373.000000
809.095398	370.200000
809.130798	363.300000
809.166321	363.600000
809.201843	365.300000
809.237305	366.900000
809.272766	370.900000
809.308228	359.200000
809.343750	360.700000
809.379211	362.000000
809.414734	362.400000
809.450134	368.200000
809.485657	354.000000
809.521118	361.400000
809.556580	360.200000
809.592102	357.200000
809.627502	355.100000
809.663025	352.800000
809.698486	349.200000
809.733887	345.500000
809.769409	350.900000
809.804871	344.900000
809.840271	346.700000
809.875793	348.600000
809.911194	353.300000
809.946655	344.700000
809.982178	342.800000
810.017639	346.000000
810.053040	343.600000
810.088501	342.100000
810.123901	343.800000
810.159424	338.000000
810.194885	336.500000
810.230286	341.100000
810.265747	336.600000
810.301208	332.300000
810.336609	337.500000
810.372070	327.200000
810.407532	334.700000
810.442932	334.700000
810.478394	341.300000
810.513794	334.400000
810.549255	335.800000
810.584717	329.800000
810.620117	323.900000
810.655518	330.000000
810.690979	333.100000
810.726379	330.300000
810.761841	320.600000
810.797302	320.200000
810.832642	319.300000
810.868103	330.900000
810.903564	318.600000
810.938904	325.200000
810.974365	315.100000
811.009827	318.600000
811.045166	313.000000
811.080627	307.100000
811.115967	313.700000
811.151428	320.900000
811.186829	312.300000
811.222229	312.800000
811.257629	310.300000
811.293091	313.700000
811.328430	323.400000
811.363892	315.500000
811.399292	317.300000
811.434631	313.700000
811.470093	316.000000
811.505493	309.500000
811.540833	311.200000
811.576294	317.500000
811.611694	310.200000
811.647034	306.200000
811.682434	310.000000
811.717773	311.400000
811.753235	314.200000
811.788635	308.100000
811.823975	307.700000
811.859375	314.400000
811.894775	299.800000
811.930115	302.900000
811.965515	303.600000
812.000916	308.000000
812.036255	300.400000
812.071655	307.100000
812.106995	298.300000
812.142395	301.500000
812.177795	306.500000
812.213196	305.900000
812.248474	303.700000
812.283875	296.300000
812.319214	300.100000
812.354614	301.200000
812.390015	295.900000
812.425293	299.200000
812.460693	297.300000
812.496094	295.300000
812.531433	289.000000
812.566772	293.500000
812.602173	294.700000
812.637451	295.900000
812.672852	289.400000
812.708191	294.500000
812.743530	287.700000
812.778931	281.500000
812.814270	284.500000
812.849609	291.700000
812.884949	285.600000
812.920227	281.600000
812.955627	298.200000
812.990967	288.900000
813.026306	283.600000
813.061646	273.400000
813.096985	271.900000
813.132324	269.300000
813.167664	274.900000
813.203003	278.600000
813.238281	265.500000
813.273682	267.800000
813.308960	266.500000
813.344299	266.700000
813.379639	276.900000
813.414978	269.000000
813.450256	269.700000
813.485596	271.800000
813.520874	264.500000
813.556213	269.200000
813.591614	273.600000
813.626831	263.000000
813.662170	268.800000
813.697510	277.500000
813.732788	261.800000
813.768127	267.700000
813.803467	268.200000
813.838745	263.800000
813.874084	268.100000
813.909363	265.600000
813.944641	267.400000
813.979980	256.300000
814.015320	263.600000
814.050598	256.800000
814.085876	264.600000
814.121155	259.300000
814.156494	259.000000
814.191772	259.500000
814.227051	256.300000
814.262390	260.000000
814.297668	260.900000
814.332947	262.000000
814.368225	253.700000
814.403564	255.800000
814.438782	253.200000
814.474121	256.100000
814.509338	253.000000
814.544617	261.300000
814.579956	252.500000
814.615173	262.000000
814.650513	258.300000
814.685791	249.700000
814.721008	255.700000
814.756348	255.000000
814.791626	253.100000
814.826843	251.400000
814.862122	250.600000
814.897400	247.400000
814.932678	252.000000
814.967957	251.200000
815.003235	250.000000
815.038452	244.300000
815.073730	242.900000
815.108948	251.000000
815.144226	249.200000
815.179504	254.100000
815.214722	238.700000
815.250000	238.700000
815.285278	247.400000
815.320496	240.500000
815.355774	242.700000
815.391052	245.900000
815.426270	242.300000
815.461487	241.400000
815.496765	237.500000
815.531982	233.600000
815.567261	238.300000
815.602539	247.700000
815.637695	242.000000
815.672974	246.100000
815.708191	244.100000
815.743408	245.600000
815.778687	237.300000
815.813904	248.800000
815.849121	231.400000
815.884399	234.200000
815.919556	233.300000
815.954834	234.300000
815.990051	237.700000
816.025269	241.400000
816.060486	231.600000
816.095703	233.800000
816.130920	235.500000
816.166199	232.400000
816.201416	234.100000
816.236572	240.700000
816.271851	230.100000
816.307007	238.900000
816.342224	226.600000
816.377441	232.200000
816.412659	224.200000
816.447876	236.600000
816.483093	229.900000
816.518250	231.100000
816.553467	228.500000
816.588745	232.800000
816.623901	227.900000
816.659119	221.200000
816.694275	226.000000
816.729492	222.800000
816.764709	258.300000
816.799927	220.500000
816.835083	225.800000
816.870300	220.200000
816.905457	223.400000
816.940674	226.900000
816.975830	220.600000
817.010986	217.900000
817.046204	220.500000
817.081421	215.600000
817.116577	216.600000
817.151733	225.100000
817.186951	225.000000
817.222107	220.900000
817.257324	223.700000
817.292419	221.600000
817.327637	212.400000
817.362854	215.800000
817.398010	213.500000
817.433167	215.600000
817.468323	215.300000
817.503479	215.800000
817.538635	225.600000
817.573853	220.100000
817.608948	218.500000
817.644165	211.300000
817.679321	212.800000
817.714478	211.800000
817.749634	216.800000
817.784790	226.100000
817.819946	223.100000
817.855103	203.600000
817.890198	214.600000
817.925415	205.500000
817.960571	215.700000
817.995667	213.400000
818.030823	217.200000
818.066040	208.900000
818.101135	213.100000
818.136292	209.800000
818.171448	206.900000
818.206543	209.300000
818.241699	214.000000
818.276855	212.100000
818.311951	209.600000
818.347107	204.800000
818.382263	212.200000
818.417358	216.800000
818.452515	216.400000
818.487610	216.700000
818.522766	207.400000
818.557922	217.000000
818.593018	213.700000
818.628113	210.300000
818.663269	205.900000
818.698364	210.100000
818.733521	206.000000
818.768677	210.100000
818.803711	203.300000
818.838867	205.200000
818.874023	207.700000
818.909058	203.200000
818.944214	201.400000
818.979370	209.800000
819.014404	205.700000
819.049561	201.800000
819.084595	207.300000
819.119751	198.000000
819.154846	206.800000
819.189941	205.100000
819.225037	197.400000
819.260193	196.900000
819.295227	197.800000
819.330322	193.300000
819.365479	192.600000
819.400513	227.700000
819.435608	190.700000
819.470764	191.700000
819.505798	192.900000
819.540894	197.400000
819.575989	193.900000
819.611084	204.400000
819.646179	203.700000
819.681213	200.000000
819.716309	196.000000
819.751404	197.300000
819.786438	200.000000
819.821533	192.900000
819.856628	197.300000
819.891663	201.600000
819.926758	207.900000
819.961853	203.300000
819.996887	193.300000
820.031982	201.400000
820.067017	194.600000
820.102112	226.000000
820.137207	194.300000
820.172302	209.900000
820.207275	191.700000
820.242371	191.700000
820.277405	193.100000
820.312500	194.200000
820.347534	197.600000
820.382568	200.500000
820.417664	192.100000
820.452759	192.900000
820.487732	192.300000
820.522827	193.100000
820.557861	190.300000
820.592896	193.200000
820.627930	192.900000
820.662964	191.200000
820.698059	196.000000
820.733093	192.500000
820.768127	197.500000
820.803162	192.400000
820.838196	190.300000
820.873230	193.900000
820.908264	193.000000
820.943298	189.000000
820.978333	198.300000
821.013367	192.900000
821.048401	196.200000
821.083435	197.400000
821.118469	186.600000
821.153503	197.200000
821.188477	194.700000
821.223511	186.600000
821.258484	192.800000
821.293579	192.900000
821.328613	186.700000
821.363647	189.800000
821.398621	188.900000
821.433655	188.800000
821.468628	206.400000
821.503662	190.800000
821.538696	196.000000
821.573669	185.200000
821.608704	194.900000
821.643677	189.000000
821.678650	195.400000
821.713684	199.500000
821.748718	190.600000
821.783691	191.100000
821.818726	192.800000
821.853638	193.400000
821.888672	190.800000
821.923706	190.700000
821.958618	189.800000
821.993652	189.400000
822.028687	194.200000
822.063599	196.500000
822.098633	193.500000
822.133667	186.200000
822.168579	190.000000
822.203613	192.600000
822.238586	188.000000
822.273560	193.800000
822.308533	187.400000
822.343567	188.100000
822.378479	188.600000
822.413452	190.100000
822.448425	187.000000
822.483398	195.000000
822.518372	194.600000
822.553345	188.100000
822.588318	198.000000
822.623291	189.900000
822.658203	189.000000
822.693237	190.400000
822.728210	186.200000
822.763123	192.000000
822.798096	185.600000
822.833069	190.600000
822.867981	189.900000
822.902954	192.600000
822.937927	192.600000
822.972900	203.300000
823.007874	181.500000
823.042725	194.800000
823.077698	202.400000
823.112671	187.200000
823.147583	188.600000
823.182556	193.400000
823.217529	193.600000
823.252441	189.700000
823.287415	203.400000
823.322388	193.700000
823.357239	191.400000
823.392212	199.000000
823.427185	194.800000
823.462097	187.100000
823.497009	192.100000
823.531982	189.100000
823.566895	191.300000
823.601807	186.300000
823.636719	188.200000
823.671631	194.100000
823.706604	188.200000
823.741455	194.600000
823.776428	183.200000
823.811340	193.800000
823.846252	195.800000
823.881165	198.100000
823.916138	190.400000
823.950989	199.500000
823.985901	188.000000
824.020813	191.700000
824.055725	188.000000
824.090637	183.900000
824.125610	192.300000
824.160461	192.000000
824.195374	192.000000
824.230225	196.200000
824.265198	183.900000
824.300110	186.200000
824.334961	200.900000
824.369873	181.200000
824.404785	192.700000
824.439636	196.900000
824.474548	183.600000
824.509460	179.700000
824.544312	195.200000
824.579224	192.600000
824.614075	193.500000
824.648987	189.100000
824.683899	190.400000
824.718811	186.900000
824.753662	196.800000
824.788574	194.700000
824.823364	192.600000
824.858276	187.100000
824.893188	195.000000
824.928040	195.700000
824.962952	192.800000
824.997803	193.900000
825.032654	192.000000
825.067566	192.700000
825.102417	187.200000
825.137268	186.200000
825.172119	191.300000
825.206970	186.300000
825.241882	188.400000
825.276733	185.700000
825.311646	188.000000
825.346436	184.400000
825.381348	185.300000
825.416138	189.000000
825.450989	184.600000
825.485901	180.600000
825.520691	181.900000
825.555542	182.400000
825.590454	189.700000
825.625244	180.600000
825.660095	195.400000
825.695007	192.100000
825.729797	186.900000
825.764648	185.300000
825.799438	186.700000
825.834290	188.000000
825.869202	181.400000
825.903992	189.600000
825.938843	183.600000
825.973694	181.700000
826.008484	200.100000
826.043335	183.000000
826.078186	178.300000
826.112976	193.500000
826.147827	191.600000
826.182678	197.500000
826.217468	180.300000
826.252319	191.500000
826.287109	180.900000
826.321899	193.300000
826.356750	184.600000
826.391541	182.900000
826.426392	191.100000
826.461182	186.900000
826.495972	181.000000
826.530823	179.000000
826.565613	186.200000
826.600403	182.000000
826.635254	189.300000
826.670044	179.000000
826.704834	178.100000
826.739685	180.300000
826.774475	187.200000
826.809265	186.200000
826.844055	182.600000
826.878906	193.100000
826.913635	187.600000
826.948425	189.600000
826.983215	188.200000
827.018005	191.500000
827.052856	183.900000
827.087585	190.000000
827.122375	178.000000
827.157227	184.900000
827.191956	197.300000
827.226746	181.800000
827.261536	188.800000
827.296265	180.900000
827.331116	183.000000
827.365906	190.900000
827.400635	181.200000
827.435425	178.400000
827.470215	191.600000
827.504944	183.300000
827.539734	190.700000
827.574463	186.000000
827.609253	193.200000
827.644043	186.100000
827.678772	191.100000
827.713562	183.300000
827.748352	183.200000
827.783081	182.700000
827.817871	185.400000
827.852600	182.200000
827.887329	187.700000
827.922119	176.100000
827.956848	188.700000
827.991638	199.100000
828.026367	187.500000
828.061157	185.900000
828.095886	186.700000
828.130615	200.000000
828.165344	176.400000
828.200073	185.200000
828.234863	183.300000
828.269592	185.000000
828.304321	191.400000
828.339111	185.900000
828.373779	183.100000
828.408569	190.600000
828.443298	190.400000
828.477966	182.200000
828.512756	188.000000
828.547424	180.100000
828.582214	185.100000
828.616943	183.200000
828.651672	186.100000
828.686340	189.600000
828.721130	184.000000
828.755798	185.900000
828.790527	186.600000
828.825256	188.300000
828.859924	186.300000
828.894714	190.500000
828.929443	194.300000
828.964111	182.500000
828.998840	189.300000
829.033569	182.500000
829.068237	184.100000
829.102966	182.100000
829.137634	186.900000
829.172363	186.900000
829.207092	187.800000
829.241821	182.600000
829.276489	178.600000
829.311157	186.500000
829.345825	184.700000
829.380554	191.000000
829.415283	181.200000
829.449951	181.200000
829.484619	194.000000
829.519348	194.200000
829.554016	186.600000
829.588745	184.500000
829.623413	179.600000
829.658081	197.300000
829.692749	179.100000
829.727417	190.800000
829.762146	186.300000
829.796814	182.500000
829.831482	183.700000
829.866150	188.000000
829.900879	182.000000
829.935486	188.600000
829.970154	182.600000
830.004883	197.600000
830.039490	186.000000
830.074219	183.600000
830.108887	186.900000
830.143494	185.900000
830.178223	179.800000
830.212891	184.900000
830.247498	185.100000
830.282166	193.800000
830.316772	192.700000
830.351501	184.500000
830.386169	184.700000
830.420776	185.700000
830.455444	185.400000
830.490112	184.500000
830.524719	178.200000
830.559387	188.800000
830.594055	189.100000
830.628662	187.000000
830.663330	184.700000
830.697998	194.000000
830.732605	185.500000
830.767273	186.600000
830.801941	185.000000
830.836487	195.400000
830.871155	186.500000
830.905762	188.700000
830.940430	178.300000
830.975098	181.300000
831.009644	186.000000
831.044312	193.300000
831.078979	188.000000
831.113525	178.100000
831.148193	187.000000
831.182861	183.600000
831.217407	188.700000
831.252075	200.800000
831.286621	182.900000
831.321289	181.000000
831.355896	185.900000
831.390564	192.000000
831.425110	187.000000
831.459778	191.300000
831.494324	197.500000
831.528931	189.100000
831.563599	190.300000
831.598145	180.200000
831.632751	186.300000
831.667419	183.900000
831.701965	188.400000
831.736572	188.600000
831.771179	179.200000
831.805786	181.000000
831.840393	193.300000
831.874939	178.300000
831.909546	190.300000
831.944153	177.800000
831.978760	184.900000
832.013306	180.600000
832.047913	192.900000
832.082458	192.600000
832.117065	183.900000
832.151672	194.700000
832.186218	188.200000
832.220825	188.100000
832.255432	178.100000
832.289978	182.400000
832.324585	189.300000
832.359192	187.500000
832.393677	184.600000
832.428284	186.700000
832.462830	184.500000
832.497437	183.700000
832.531982	190.500000
832.566589	184.400000
832.601135	187.900000
832.635681	177.300000
832.670227	186.100000
832.704773	192.500000
832.739380	188.500000
832.773926	186.200000
832.808472	180.800000
832.843079	186.000000
832.877563	189.200000
832.912170	182.900000
832.946716	178.400000
832.981201	192.100000
833.015808	189.200000
833.050293	185.900000
833.084839	181.400000
833.119446	183.700000
833.153992	188.000000
833.188477	185.500000
833.223022	181.600000
833.257568	187.700000
833.292114	190.500000
833.326660	197.100000
833.361145	182.600000
833.395691	178.400000
833.430237	184.200000
833.464783	189.200000
833.499329	181.300000
833.533875	179.900000
833.568359	188.200000
833.602905	192.000000
833.637390	189.500000
833.671875	184.000000
833.706421	183.900000
833.740906	182.700000
833.775452	175.300000
833.809998	183.500000
833.844482	192.100000
833.879028	187.300000
833.913513	183.000000
833.947998	188.800000
833.982544	182.100000
834.017090	184.700000
834.051514	174.300000
834.086060	188.900000
834.120544	184.500000
834.155029	187.600000
834.189575	182.400000
834.223999	187.200000
834.258545	187.800000
834.293030	187.100000
834.327515	184.800000
834.362000	182.900000
834.396545	188.200000
834.430969	185.400000
834.465454	188.700000
834.500000	178.600000
834.534424	188.100000
834.568970	176.900000
834.603455	177.900000
834.637878	181.600000
834.672363	186.500000
834.706909	186.800000
834.741333	186.600000
834.775818	179.000000
834.810242	181.100000
834.844727	187.300000
834.879211	183.800000
834.913635	185.900000
834.948181	186.500000
834.982666	186.200000
835.017090	184.800000
835.051575	188.100000
835.086060	182.100000
835.120483	189.000000
835.154907	191.000000
835.189331	184.400000
835.223816	188.700000
835.258301	179.700000
835.292786	181.400000
835.327209	190.000000
835.361694	182.600000
835.396057	182.400000
835.430542	189.100000
835.465027	186.500000
835.499390	182.200000
835.533875	204.800000
835.568359	183.200000
835.602722	179.200000
835.637207	187.800000
835.671692	181.600000
835.706055	203.700000
835.740540	185.900000
835.774902	189.700000
835.809387	185.600000
835.843811	180.300000
835.878235	192.800000
835.912659	180.800000
835.947083	182.200000
835.981506	185.700000
836.015930	177.200000
836.050354	191.000000
836.084778	193.000000
836.119202	190.100000
836.153625	198.200000
836.187988	183.000000
836.222473	182.700000
836.256897	188.500000
836.291260	184.000000
836.325684	188.400000
836.360046	183.000000
836.394470	184.700000
836.428894	192.300000
836.463318	182.700000
836.497681	189.200000
836.532104	192.400000
836.566467	186.400000
836.600891	184.300000
836.635315	190.400000
836.669678	189.700000
836.704102	189.600000
836.738525	187.100000
836.772888	176.900000
836.807251	183.800000
836.841675	187.600000
836.876038	180.700000
836.910461	184.100000
836.944763	188.200000
836.979187	181.800000
837.013611	191.700000
837.047974	179.200000
837.082336	197.200000
837.116699	191.600000
837.151062	185.200000
837.185486	180.800000
837.219849	183.500000
837.254211	190.300000
837.288574	183.600000
837.322937	182.300000
837.357300	174.800000
837.391663	199.100000
837.426086	190.500000
837.460388	187.900000
837.494751	189.500000
837.529114	185.300000
837.563477	191.600000
837.597839	188.300000
837.632141	183.600000
837.666565	185.100000
837.700928	188.000000
837.735229	189.400000
837.769592	188.500000
837.803955	190.800000
837.838257	182.700000
837.872620	182.900000
837.906982	193.600000
837.941284	186.800000
837.975647	186.400000
838.010010	192.400000
838.044312	183.600000
838.078674	184.700000
838.112976	188.100000
838.147339	189.200000
838.181702	185.300000
838.216003	195.900000
838.250366	188.200000
838.284668	189.100000
838.318970	179.100000
838.353333	186.000000
838.387634	184.000000
838.421936	186.500000
838.456299	186.000000
838.490601	193.100000
838.524902	189.100000
838.559265	191.500000
838.593567	188.700000
838.627869	179.600000
838.662170	187.900000
838.696472	178.400000
838.730774	182.200000
838.765137	190.700000
838.799377	171.700000
838.833740	185.900000
838.868042	193.100000
838.902283	176.500000
838.936646	193.000000
838.970947	188.300000
839.005188	191.600000
839.039551	178.900000
839.073792	193.500000
839.108093	183.500000
839.142395	196.100000
839.176697	178.800000
839.210937	187.800000
839.245300	195.800000
839.279541	181.400000
839.313843	183.100000
839.348145	189.800000
839.382385	189.900000
839.416687	191.500000
839.450989	188.300000
839.485229	185.600000
839.519531	181.900000
839.553833	193.000000
839.588013	185.800000
839.622314	188.700000
839.656555	188.800000
839.690857	186.600000
839.725159	178.900000
839.759460	186.000000
839.793640	183.900000
839.827942	185.200000
839.862183	181.700000
839.896423	188.200000
839.930725	194.800000
839.964966	193.700000
839.999207	192.000000
840.033508	193.500000
840.067688	183.800000
840.101990	194.600000
840.136230	185.800000
840.170471	193.400000
840.204712	182.400000
840.238953	183.100000
840.273193	186.900000
840.307434	189.300000
840.341736	181.300000
840.375916	180.000000
840.410217	183.100000
840.444397	190.700000
840.478638	188.700000
840.512878	191.900000
840.547119	186.300000
840.581360	189.300000
840.615601	196.000000
840.649780	194.300000
840.684021	186.600000
840.718262	193.700000
840.752441	193.800000
840.786682	186.900000
840.820862	190.000000
840.855103	193.600000
840.889343	188.600000
840.923584	191.600000
840.957764	189.600000
840.992004	187.800000
841.026184	201.300000
841.060425	183.800000
841.094666	183.800000
841.128845	189.400000
841.163025	188.000000
841.197266	188.500000
841.231445	187.400000
841.265686	187.000000
841.299866	183.700000
841.334045	194.500000
841.368286	184.800000
841.402405	191.900000
841.436646	190.700000
841.470825	183.200000
841.505005	186.100000
841.539185	182.000000
841.573425	183.300000
841.607544	187.600000
841.641785	186.400000
841.675964	181.600000
841.710144	187.400000
841.744324	183.300000
841.778503	184.100000
841.812683	181.900000
841.846863	195.200000
841.881042	192.900000
841.915222	182.000000
841.949402	201.300000
841.983521	178.200000
842.017700	185.100000
842.051880	187.300000
842.086060	188.700000
842.120239	185.900000
842.154419	184.200000
842.188538	187.500000
842.222717	182.900000
842.256897	196.600000
842.291016	186.500000
842.325195	187.900000
842.359375	197.700000
842.393494	194.200000
842.427673	188.400000
842.461853	189.900000
842.495911	194.700000
842.530090	188.100000
842.564209	186.300000
842.598389	188.800000
842.632568	188.600000
842.666626	190.300000
842.700806	183.800000
842.734985	184.400000
842.769043	190.300000
842.803223	184.800000
842.837402	186.500000
842.871460	183.600000
842.905640	197.000000
842.939697	182.900000
842.973877	188.800000
843.007996	193.100000
843.042175	195.900000
843.076233	182.800000
843.110413	189.900000
843.144470	194.700000
843.178589	191.400000
843.212769	183.100000
843.246826	191.100000
843.280945	184.600000
843.315125	184.200000
843.349182	183.700000
843.383301	194.300000
843.417419	198.300000
843.451538	186.900000
843.485657	185.700000
843.519714	187.200000
843.553833	188.700000
843.587952	185.200000
843.622070	183.400000
843.656128	188.500000
843.690247	184.900000
843.724304	185.400000
843.758423	187.900000
843.792542	184.500000
843.826599	187.200000
843.860718	184.500000
843.894836	180.100000
843.928894	187.500000
843.963013	190.100000
843.997070	183.500000
844.031128	180.500000
844.065247	192.000000
844.099304	192.100000
844.133362	188.000000
844.167480	190.200000
844.201599	194.500000
844.235596	190.300000
844.269714	188.800000
844.303711	191.200000
844.337830	179.700000
844.371948	190.400000
844.405945	186.200000
844.440063	183.600000
844.474121	201.100000
844.508118	186.700000
844.542236	185.400000
844.576294	186.400000
844.610352	181.300000
844.644409	187.000000
844.678406	178.800000
844.712524	192.600000
844.746582	193.600000
844.780640	187.700000
844.814636	186.200000
844.848755	199.000000
844.882751	184.500000
844.916809	191.300000
844.950867	188.200000
844.984863	196.500000
845.018921	186.300000
845.052979	183.700000
845.086975	187.200000
845.121033	180.600000
845.155090	182.000000
845.189087	194.000000
845.223145	185.000000
845.257141	186.900000
845.291199	189.400000
845.325256	194.600000
845.359253	188.500000
845.393250	197.800000
845.427307	186.200000
845.461304	190.300000
845.495361	188.100000
845.529358	197.700000
845.563354	185.400000
845.597412	184.000000
845.631409	196.100000
845.665405	194.800000
845.699463	192.600000
845.733459	185.500000
845.767456	194.300000
845.801453	184.400000
845.835449	194.700000
845.869446	192.000000
845.903503	192.300000
845.937439	183.000000
845.971497	195.200000
846.005493	180.000000
846.039429	192.100000
846.073486	196.500000
846.107483	185.700000
846.141418	186.800000
846.175476	187.800000
846.209473	193.900000
846.243408	184.100000
846.277405	187.800000
846.311401	185.300000
846.345337	187.900000
846.379395	193.200000
846.413330	184.500000
846.447327	196.400000
846.481323	183.100000
846.515259	186.000000
846.549255	187.500000
846.583252	190.800000
846.617187	182.800000
846.651184	191.200000
846.685120	185.700000
846.719055	196.400000
846.753052	192.400000
846.786987	190.700000
846.820984	181.200000
846.854980	195.900000
846.888916	182.300000
846.922852	189.400000
846.956848	194.300000
846.990723	183.100000
847.024719	188.300000
847.058716	186.300000
847.092590	194.400000
847.126587	188.200000
847.160522	186.200000
847.194458	192.700000
847.228455	184.800000
847.262390	182.100000
847.296265	184.700000
847.330261	192.300000
847.364136	186.800000
847.398132	184.800000
847.432068	187.500000
847.466003	185.400000
847.499939	186.500000
847.533875	190.500000
847.567749	187.700000
847.601746	185.100000
847.635681	192.100000
847.669556	180.200000
847.703491	193.500000
847.737427	201.200000
847.771301	184.400000
847.805237	189.600000
847.839233	189.300000
847.873108	187.300000
847.907043	186.500000
847.940918	192.200000
847.974854	190.600000
848.008789	191.500000
848.042664	188.300000
848.076538	190.100000
848.110474	188.900000
848.144348	187.600000
848.178284	183.000000
848.212219	187.800000
848.246094	187.000000
848.279968	188.900000
848.313904	191.600000
848.347778	188.100000
848.381653	186.000000
848.415588	183.000000
848.449463	187.300000
848.483337	190.400000
848.517212	192.800000
848.551086	188.100000
848.585022	183.300000
848.618835	197.100000
848.652771	187.300000
848.686646	181.900000
848.720520	197.300000
848.754395	186.200000
848.788330	193.600000
848.822144	191.300000
848.856018	186.300000
848.889954	196.800000
848.923767	184.000000
848.957642	183.800000
848.991577	191.700000
849.025391	186.000000
849.059265	186.000000
849.093079	184.100000
849.126953	181.600000
849.160828	193.500000
849.194641	187.900000
849.228577	185.500000
849.262451	186.700000
849.296265	186.600000
849.330139	182.700000
849.364014	189.400000
849.397827	191.600000
849.431702	189.100000
849.465515	192.700000
849.499329	179.600000
849.533203	182.700000
849.567078	177.400000
849.600891	189.500000
849.634766	186.700000
849.668518	191.400000
849.702393	188.500000
849.736267	180.400000
849.770020	199.100000
849.803894	191.200000
849.837769	188.200000
849.871521	187.600000
849.905396	194.000000
849.939270	183.500000
849.973022	187.200000
850.006897	191.100000
850.040710	190.900000
850.074524	191.000000
850.108337	188.200000
850.142151	189.900000
850.175964	194.300000
850.209778	187.800000
850.243530	175.900000
850.277405	191.800000
850.311218	188.300000
850.344971	184.700000
850.378845	196.000000
850.412659	185.200000
850.446411	188.800000
850.480225	187.800000
850.514038	193.300000
850.547791	190.000000
850.581665	187.300000
850.615417	183.600000
850.649231	189.900000
850.683044	187.400000
850.716858	186.900000
850.750610	189.100000
850.784424	191.700000
850.818176	184.300000
850.851929	185.400000
850.885742	185.200000
850.919495	186.400000
850.953308	194.700000
850.987122	194.100000
851.020874	182.500000
851.054626	180.600000
851.088440	192.600000
851.122192	192.900000
851.156006	189.000000
851.189697	185.800000
851.223511	182.800000
851.257263	192.200000
851.291077	191.300000
851.324829	186.100000
851.358582	186.300000
851.392334	186.100000
851.426086	186.800000
851.459900	195.100000
851.493591	189.900000
851.527344	188.200000
851.561157	187.500000
851.594849	189.900000
851.628662	190.200000
851.662415	195.800000
851.696106	191.000000
851.729858	192.800000
851.763611	183.400000
851.797363	187.100000
851.831116	184.200000
851.864868	191.000000
851.898560	192.400000
851.932312	185.600000
851.966064	189.000000
851.999817	187.000000
852.033569	187.100000
852.067261	191.000000
852.101013	184.500000
852.134766	187.700000
852.168457	177.300000
852.202209	192.700000
852.235901	184.800000
852.269592	190.100000
852.303345	196.400000
852.337036	191.500000
852.370789	188.200000
852.404541	190.300000
852.438171	185.300000
852.471924	187.200000
852.505676	181.600000
852.539307	190.600000
852.573059	184.300000
852.606812	186.200000
852.640442	186.700000
852.674194	193.400000
852.707886	199.400000
852.741577	195.200000
852.775269	183.000000
852.809021	190.300000
852.842651	190.200000
852.876404	192.900000
852.910034	188.100000
852.943787	194.800000
852.977478	189.800000
853.011108	186.000000
853.044861	182.900000
853.078552	196.300000
853.112183	188.600000
853.145874	190.800000
853.179626	179.700000
853.213257	191.100000
853.246948	184.300000
853.280640	197.100000
853.314270	187.000000
853.347961	196.700000
853.381653	191.100000
853.415283	195.200000
853.448975	184.500000
853.482605	190.600000
853.516296	186.900000
853.549988	183.200000
853.583618	190.400000
853.617310	189.800000
853.651001	190.200000
853.684631	186.300000
853.718323	184.400000
853.751953	197.000000
853.785583	179.700000
853.819275	192.500000
853.852966	189.000000
853.886536	179.900000
853.920227	182.300000
853.953918	192.600000
853.987488	186.500000
854.021179	191.000000
854.054749	194.200000
854.088440	190.500000
854.122131	183.200000
854.155701	191.800000
854.189331	184.200000
854.223022	191.300000
854.256592	190.600000
854.290283	184.900000
854.323914	189.600000
854.357483	189.700000
854.391174	191.100000
854.424744	197.400000
854.458374	189.900000
854.492065	198.400000
854.525696	191.800000
854.559265	194.400000
854.592896	199.300000
854.626465	188.100000
854.660095	189.900000
854.693787	189.700000
854.727356	187.500000
854.760986	191.500000
854.794617	190.400000
854.828186	185.600000
854.861816	190.700000
854.895447	189.000000
854.929016	191.100000
854.962585	191.000000
854.996155	197.700000
855.029785	189.600000
855.063416	190.400000
855.097046	190.900000
855.130615	182.600000
855.164185	193.400000
855.197754	190.700000
855.231384	191.200000
855.264954	187.700000
855.298523	191.500000
855.332153	189.600000
855.365723	196.200000
855.399292	185.100000
855.432922	186.500000
855.466492	190.400000
855.500061	183.500000
855.533630	184.500000
855.567200	190.800000
855.600769	192.700000
855.634338	193.100000
855.667969	189.800000
855.701477	184.200000
855.735046	184.400000
855.768616	180.600000
855.802185	191.200000
855.835754	203.800000
855.869324	181.100000
855.902893	186.600000
855.936401	193.600000
855.969971	189.600000
856.003540	181.100000
856.037109	192.200000
856.070618	187.600000
856.104187	182.400000
856.137695	185.700000
856.171265	179.700000
856.204834	188.400000
856.238403	194.900000
856.271912	184.100000
856.305481	190.000000
856.338989	182.300000
856.372559	191.300000
856.406128	189.000000
856.439636	194.500000
856.473145	186.400000
856.506653	196.200000
856.540222	187.800000
856.573792	195.300000
856.607300	191.900000
856.640808	183.700000
856.674377	189.100000
856.707825	219.400000
856.741394	191.700000
856.774902	185.700000
856.808472	179.900000
856.841980	192.500000
856.875488	196.000000
856.908936	181.700000
856.942505	186.500000
856.976013	187.400000
857.009521	183.500000
857.043030	189.500000
857.076477	188.700000
857.110046	193.800000
857.143555	188.100000
857.177063	193.500000
857.210571	185.800000
857.244080	181.500000
857.277527	190.200000
857.311035	187.500000
857.344543	192.100000
857.378052	188.100000
857.411499	193.100000
857.445068	197.400000
857.478516	187.000000
857.512024	183.200000
857.545532	186.800000
857.578979	189.600000
857.612427	187.700000
857.645874	184.800000
857.679382	189.600000
857.712891	193.400000
857.746399	187.100000
857.779846	192.500000
857.813354	193.700000
857.846741	187.000000
857.880249	184.500000
857.913757	188.900000
857.947266	188.800000
857.980652	190.800000
858.014160	186.700000
858.047546	187.200000
858.081055	188.500000
858.114563	195.800000
858.147949	183.900000
858.181458	191.600000
858.214844	187.600000
858.248352	180.100000
858.281799	193.400000
858.315308	200.400000
858.348694	191.400000
858.382141	196.300000
858.415588	192.100000
858.449036	193.800000
858.482483	191.500000
858.515930	185.000000
858.549377	188.700000
858.582825	194.600000
858.616211	191.700000
858.649658	190.400000
858.683105	184.600000
858.716553	185.300000
858.750000	182.800000
858.783386	186.000000
858.816833	180.900000
858.850281	189.600000
858.883728	191.300000
858.917114	187.100000
858.950562	196.500000
858.983948	195.700000
859.017395	193.100000
859.050781	185.300000
859.084167	184.900000
859.117615	181.000000
859.151062	191.900000
859.184448	185.400000
859.217834	186.600000
859.251282	185.800000
859.284668	183.800000
859.318054	179.000000
859.351440	185.800000
859.384888	196.700000
859.418274	180.900000
859.451721	180.500000
859.485046	191.400000
859.518494	188.200000
859.551819	184.200000
859.585266	190.700000
859.618652	191.100000
859.652039	183.500000
859.685425	182.900000
859.718811	181.700000
859.752197	177.300000
859.785583	195.000000
859.819031	194.700000
859.852356	192.100000
859.885742	184.600000
859.919067	188.200000
859.952454	186.400000
859.985901	193.400000
860.019287	186.400000
860.052612	0.000000
860.085999	0.000000
860.119324	0.000000
860.152710	0.000000
860.186096	0.000000
860.219421	0.000000
860.252808	0.000000
860.286133	0.000000
860.319519	0.000000
860.352905	0.000000
860.386292	0.000000
860.419617	0.000000
860.452942	0.000000
860.486267	0.000000
860.519653	0.000000
860.553040	0.000000
860.586365	0.000000
860.619690	0.000000
860.653076	0.000000
860.686340	0.000000
860.719727	0.000000
860.753113	0.000000
860.786377	0.000000
860.819763	0.000000
860.853027	0.000000
860.886414	0.000000
860.919739	0.000000
860.953125	0.000000
860.986389	0.000000
861.019714	0.000000
861.053040	0.000000
861.086365	0.000000
861.119690	0.000000
861.153076	0.000000
861.186340	0.000000
861.219666	0.000000
861.252930	0.000000
861.286316	0.000000
861.319641	0.000000
861.352905	0.000000
861.386230	0.000000
861.419495	0.000000
861.452820	0.000000
861.486145	0.000000
861.519470	0.000000
861.552734	0.000000
861.586060	0.000000
861.619324	0.000000
861.652649	0.000000
861.685974	0.000000
861.719238	0.000000
861.752563	0.000000
861.785828	0.000000
861.819092	0.000000
861.852417	0.000000
861.885742	0.000000
861.918945	0.000000
861.952271	0.000000
861.985535	0.000000
862.018799	0.000000
862.052124	0.000000
862.085449	0.000000
862.118652	0.000000
862.151978	0.000000
862.185181	0.000000
862.218506	0.000000
862.251770	0.000000
862.285034	0.000000
862.318298	0.000000
862.351562	0.000000
862.384827	0.000000
862.418091	0.000000
862.451355	0.000000
862.484619	0.000000
862.517883	0.000000
862.551086	0.000000
862.584351	0.000000
862.617676	0.000000
862.650940	0.000000
862.684143	0.000000
862.717407	0.000000
862.750610	0.000000
862.783875	0.000000
862.817139	0.000000
862.850342	0.000000
862.883606	0.000000
862.916870	0.000000
862.950073	0.000000
862.983337	0.000000
863.016602	0.000000
863.049805	0.000000
863.083069	0.000000
863.116211	0.000000
863.149475	0.000000
863.182739	0.000000
863.216003	0.000000
863.249146	0.000000
863.282410	0.000000
863.315613	0.000000
863.348816	0.000000
863.382080	0.000000
863.415222	0.000000
863.448486	0.000000
863.481689	0.000000
863.514893	0.000000
863.548157	0.000000
863.581360	0.000000
863.614502	0.000000
863.647766	0.000000
863.680908	0.000000
863.714172	0.000000
863.747375	0.000000
863.780579	0.000000
863.813721	0.000000
863.846985	0.000000
863.880127	0.000000
863.913330	0.000000
863.946533	0.000000
863.979675	0.000000
864.012939	0.000000
