Model Number: SPM-001-M   
Serial Number: 10090201
Firmware Version: 004.17.6
Exposure Time: 500000.000000us
Data Taken on: 03-03-2021 09:59:46.664
Wavelength	Amplitude
733.770752	0.000000
733.808716	0.000000
733.846619	0.000000
733.884583	0.000000
733.922546	0.000000
733.960449	0.000000
733.998413	0.000000
734.036377	0.000000
734.074219	0.000000
734.112183	0.000000
734.150085	0.000000
734.188049	0.000000
734.226013	0.000000
734.263916	0.000000
734.301819	0.000000
734.339783	0.000000
734.377686	0.000000
734.415588	0.000000
734.453552	0.000000
734.491455	0.000000
734.529419	0.000000
734.567322	0.000000
734.605225	0.000000
734.643127	0.000000
734.681091	0.000000
734.718994	0.000000
734.756897	0.000000
734.794800	0.000000
734.832703	0.000000
734.870667	0.000000
734.908508	0.000000
734.946472	0.000000
734.984375	0.000000
735.022278	0.000000
735.060181	0.000000
735.098083	0.000000
735.135986	0.000000
735.173889	0.000000
735.211792	0.000000
735.249695	0.000000
735.287598	0.000000
735.325439	0.000000
735.363403	0.000000
735.401306	0.000000
735.439148	0.000000
735.477051	0.000000
735.515015	0.000000
735.552856	0.000000
735.590759	0.000000
735.628662	0.000000
735.666504	0.000000
735.704407	0.000000
735.742310	0.000000
735.780212	0.000000
735.818115	0.000000
735.856018	0.000000
735.893860	0.000000
735.931763	0.000000
735.969604	0.000000
736.007507	0.000000
736.045410	0.000000
736.083252	0.000000
736.121094	0.000000
736.158997	0.000000
736.196838	0.000000
736.234741	0.000000
736.272644	0.000000
736.310486	0.000000
736.348389	0.000000
736.386230	0.000000
736.424072	0.000000
736.461975	0.000000
736.499878	0.000000
736.537720	0.000000
736.575562	0.000000
736.613403	0.000000
736.651306	0.000000
736.689148	0.000000
736.726990	0.000000
736.764893	0.000000
736.802734	0.000000
736.840576	0.000000
736.878418	0.000000
736.916321	0.000000
736.954102	0.000000
736.992004	0.000000
737.029846	0.000000
737.067688	0.000000
737.105530	0.000000
737.143372	0.000000
737.181213	0.000000
737.219116	0.000000
737.256897	0.000000
737.294739	0.000000
737.332642	0.000000
737.370422	0.000000
737.408325	0.000000
737.446167	0.000000
737.483948	0.000000
737.521790	0.000000
737.559692	0.000000
737.597473	0.000000
737.635315	0.000000
737.673157	0.000000
737.710999	0.000000
737.748840	0.000000
737.786621	0.000000
737.824463	0.000000
737.862305	0.000000
737.900085	0.000000
737.937927	0.000000
737.975769	0.000000
738.013550	0.000000
738.051392	0.000000
738.089233	0.000000
738.127014	0.000000
738.164856	0.000000
738.202698	0.000000
738.240479	0.000000
738.278320	0.000000
738.316162	0.000000
738.353943	0.000000
738.391785	0.000000
738.429565	0.000000
738.467407	0.000000
738.505188	0.000000
738.542969	0.000000
738.580811	0.000000
738.618652	0.000000
738.656372	0.000000
738.694214	0.000000
738.732056	0.000000
738.769836	0.000000
738.807617	0.000000
738.845459	0.000000
738.883240	0.000000
738.921021	0.000000
738.958862	0.000000
738.996582	0.000000
739.034424	0.000000
739.072205	0.000000
739.109985	0.000000
739.147827	0.000000
739.185547	0.000000
739.223389	0.000000
739.261169	0.000000
739.298889	0.000000
739.336731	0.000000
739.374512	0.000000
739.412292	0.000000
739.450073	0.000000
739.487854	0.000000
739.525635	0.000000
739.563416	0.000000
739.601135	0.000000
739.638977	0.000000
739.676758	0.000000
739.714478	0.000000
739.752258	0.000000
739.790100	0.000000
739.827820	0.000000
739.865601	0.000000
739.903381	0.000000
739.941101	0.000000
739.978882	189.800000
740.016724	184.800000
740.054443	190.500000
740.092224	182.900000
740.130005	182.000000
740.167725	183.900000
740.205505	183.900000
740.243225	193.300000
740.281006	187.800000
740.318787	180.100000
740.356506	192.600000
740.394287	191.800000
740.432068	181.900000
740.469727	180.600000
740.507507	189.000000
740.545288	186.400000
740.583008	189.700000
740.620789	187.900000
740.658569	180.200000
740.696228	185.500000
740.734009	191.900000
740.771790	176.000000
740.809509	190.400000
740.847229	182.700000
740.884949	183.300000
740.922729	179.500000
740.960449	184.800000
740.998169	183.200000
741.035950	182.400000
741.073669	189.000000
741.111389	186.500000
741.149170	195.700000
741.186890	195.100000
741.224609	190.000000
741.262329	186.700000
741.300110	196.600000
741.337769	181.100000
741.375549	181.100000
741.413208	187.000000
741.450989	182.800000
741.488708	183.500000
741.526367	184.600000
741.564148	189.500000
741.601868	192.300000
741.639526	185.400000
741.677307	188.400000
741.715027	187.800000
741.752686	183.500000
741.790466	193.600000
741.828186	189.500000
741.865845	181.400000
741.903564	179.200000
741.941345	186.100000
741.979004	183.300000
742.016724	189.400000
742.054382	188.300000
742.092102	191.400000
742.129822	180.200000
742.167480	185.100000
742.205200	184.800000
742.242920	187.500000
742.280640	191.300000
742.318359	181.500000
742.356079	184.900000
742.393738	189.700000
742.431396	185.600000
742.469116	189.500000
742.506775	176.300000
742.544495	189.800000
742.582214	190.800000
742.619873	185.900000
742.657593	193.500000
742.695251	190.400000
742.732971	185.100000
742.770630	187.400000
742.808289	184.900000
742.846008	185.200000
742.883728	188.600000
742.921326	184.700000
742.959045	182.800000
742.996765	186.400000
743.034424	185.800000
743.072083	184.200000
743.109802	184.800000
743.147400	179.700000
743.185120	186.100000
743.222839	185.800000
743.260437	190.500000
743.298157	187.300000
743.335754	178.100000
743.373474	184.100000
743.411133	178.800000
743.448792	185.800000
743.486450	186.000000
743.524170	179.200000
743.561768	186.200000
743.599487	193.800000
743.637146	196.300000
743.674744	184.300000
743.712463	182.900000
743.750122	187.700000
743.787720	188.300000
743.825439	181.800000
743.863037	184.700000
743.900696	185.900000
743.938416	211.300000
743.976013	185.900000
744.013672	193.200000
744.051331	190.800000
744.088928	195.900000
744.126587	192.600000
744.164307	187.700000
744.201904	183.700000
744.239563	189.200000
744.277222	188.500000
744.314819	186.700000
744.352478	192.100000
744.390137	188.400000
744.427734	189.100000
744.465393	184.900000
744.502991	181.900000
744.540649	190.200000
744.578308	186.400000
744.615906	180.100000
744.653564	175.600000
744.691223	189.300000
744.728821	179.700000
744.766418	186.100000
744.804077	187.600000
744.841675	184.500000
744.879333	179.700000
744.916992	185.500000
744.954529	184.200000
744.992187	191.800000
745.029785	184.600000
745.067444	182.500000
745.105042	187.700000
745.142639	187.700000
745.180298	196.100000
745.217896	183.700000
745.255493	184.400000
745.293152	190.000000
745.330750	190.700000
745.368347	193.800000
745.405945	189.200000
745.443604	186.200000
745.481140	190.500000
745.518799	186.800000
745.556396	190.000000
745.593994	191.300000
745.631592	185.600000
745.669189	181.600000
745.706787	186.700000
745.744385	183.800000
745.781982	188.800000
745.819580	184.800000
745.857178	185.500000
745.894775	186.100000
745.932373	187.100000
745.969971	188.200000
746.007568	178.600000
746.045166	195.200000
746.082764	191.900000
746.120300	190.200000
746.157898	191.400000
746.195557	186.500000
746.233093	181.000000
746.270691	190.500000
746.308228	188.100000
746.345825	190.900000
746.383423	190.200000
746.420959	182.600000
746.458557	184.200000
746.496155	185.700000
746.533691	186.600000
746.571289	182.200000
746.608887	186.500000
746.646423	187.900000
746.684021	187.400000
746.721619	183.900000
746.759155	190.200000
746.796753	179.200000
746.834351	180.000000
746.871826	181.500000
746.909424	192.700000
746.946960	187.100000
746.984558	185.500000
747.022156	183.900000
747.059631	194.100000
747.097229	188.600000
747.134827	185.300000
747.172363	193.200000
747.209900	189.200000
747.247498	181.600000
747.285034	194.100000
747.322571	191.400000
747.360168	184.500000
747.397644	179.900000
747.435242	191.500000
747.472778	192.500000
747.510315	185.300000
747.547913	183.700000
747.585388	192.500000
747.622925	184.300000
747.660522	178.900000
747.697998	182.300000
747.735596	187.000000
747.773132	183.700000
747.810669	187.000000
747.848206	190.800000
747.885742	181.900000
747.923279	181.000000
747.960815	188.800000
747.998352	187.400000
748.035889	191.300000
748.073425	190.200000
748.110901	184.500000
748.148437	182.800000
748.185974	188.100000
748.223511	196.600000
748.261047	188.700000
748.298584	188.600000
748.336060	185.200000
748.373596	189.900000
748.411133	206.400000
748.448608	182.400000
748.486145	189.400000
748.523682	193.900000
748.561218	193.600000
748.598755	188.100000
748.636292	189.600000
748.673706	185.100000
748.711243	191.300000
748.748718	188.500000
748.786255	185.900000
748.823792	187.600000
748.861267	182.200000
748.898804	189.700000
748.936340	188.900000
748.973816	185.300000
749.011292	191.800000
749.048828	188.900000
749.086304	188.600000
749.123840	198.400000
749.161316	181.600000
749.198792	197.400000
749.236328	192.300000
749.273743	187.600000
749.311279	185.700000
749.348816	189.900000
749.386230	187.100000
749.423767	175.200000
749.461304	189.400000
749.498718	187.800000
749.536255	192.800000
749.573730	198.600000
749.611206	192.900000
749.648682	187.100000
749.686218	186.300000
749.723633	191.400000
749.761169	183.800000
749.798645	183.800000
749.836060	184.900000
749.873596	183.700000
749.911011	186.700000
749.948547	193.500000
749.986023	187.100000
750.023437	186.800000
750.060913	179.700000
750.098450	181.200000
750.135864	185.400000
750.173340	186.400000
750.210815	192.200000
750.248291	183.300000
750.285767	187.900000
750.323242	192.800000
750.360657	189.500000
750.398132	182.900000
750.435608	190.900000
750.473022	182.600000
750.510498	182.700000
750.547974	183.600000
750.585449	184.700000
750.622925	177.100000
750.660339	196.900000
750.697815	186.600000
750.735291	185.100000
750.772644	187.100000
750.810120	189.100000
750.847595	189.700000
750.885010	182.500000
750.922485	194.600000
750.959961	186.200000
750.997375	192.300000
751.034851	189.900000
751.072266	191.600000
751.109680	180.000000
751.147156	191.700000
751.184570	189.800000
751.221985	187.900000
751.259460	178.700000
751.296875	186.200000
751.334290	187.900000
751.371765	190.500000
751.409180	190.600000
751.446594	192.800000
751.484070	190.400000
751.521423	188.500000
751.558899	189.500000
751.596375	194.800000
751.633728	193.500000
751.671204	199.500000
751.708618	183.300000
751.746033	188.200000
751.783447	181.500000
751.820801	183.100000
751.858276	190.400000
751.895691	186.800000
751.933105	184.800000
751.970520	181.700000
752.007935	185.500000
752.045349	190.700000
752.082764	187.100000
752.120178	184.500000
752.157532	183.300000
752.195007	185.100000
752.232422	188.400000
752.269775	191.900000
752.307190	190.400000
752.344543	183.800000
752.382019	185.400000
752.419434	184.700000
752.456787	188.200000
752.494202	192.000000
752.531616	188.100000
752.568970	192.100000
752.606384	188.000000
752.643799	188.800000
752.681152	195.900000
752.718567	189.900000
752.755981	177.300000
752.793335	190.700000
752.830750	178.700000
752.868164	192.400000
752.905518	180.900000
752.942932	190.200000
752.980225	181.100000
753.017639	192.100000
753.055054	184.800000
753.092407	189.500000
753.129822	192.400000
753.167175	197.300000
753.204529	185.700000
753.241943	183.900000
753.279358	181.200000
753.316650	190.900000
753.354065	189.100000
753.391479	193.100000
753.428772	194.500000
753.466187	190.900000
753.503479	181.400000
753.540894	186.200000
753.578308	180.800000
753.615601	182.500000
753.653015	186.200000
753.690369	185.100000
753.727722	181.700000
753.765076	181.100000
753.802490	181.600000
753.839783	179.500000
753.877136	184.200000
753.914551	201.100000
753.951843	183.100000
753.989258	190.600000
754.026611	188.200000
754.063904	189.600000
754.101257	183.700000
754.138611	179.100000
754.175964	187.200000
754.213318	199.700000
754.250610	180.200000
754.288025	184.300000
754.325378	181.200000
754.362671	191.600000
754.400024	185.900000
754.437378	196.000000
754.474670	195.600000
754.512085	183.500000
754.549438	187.900000
754.586731	185.700000
754.624084	185.000000
754.661438	181.800000
754.698730	194.000000
754.736084	184.600000
754.773376	186.100000
754.810730	189.400000
754.848083	185.400000
754.885315	189.500000
754.922668	179.600000
754.960022	180.500000
754.997314	190.700000
755.034668	186.100000
755.072021	187.700000
755.109253	184.400000
755.146606	193.600000
755.183960	184.100000
755.221252	194.700000
755.258545	189.900000
755.295898	192.100000
755.333191	191.800000
755.370544	190.700000
755.407776	185.700000
755.445129	188.800000
755.482422	191.400000
755.519714	183.700000
755.557068	178.100000
755.594360	178.000000
755.631653	189.400000
755.668945	193.400000
755.706299	187.100000
755.743530	198.700000
755.780884	192.900000
755.818176	192.100000
755.855408	191.100000
755.892761	188.700000
755.930054	186.600000
755.967346	189.500000
756.004639	189.300000
756.041870	187.000000
756.079224	192.400000
756.116516	183.300000
756.153748	191.200000
756.191040	195.200000
756.228394	190.700000
756.265625	182.400000
756.302917	186.900000
756.340210	183.600000
756.377441	191.400000
756.414795	192.500000
756.452087	187.300000
756.489319	180.400000
756.526611	190.100000
756.563843	187.800000
756.601135	196.900000
756.638428	195.600000
756.675659	187.100000
756.712952	191.200000
756.750244	192.300000
756.787476	189.500000
756.824768	195.800000
756.862061	184.400000
756.899292	235.800000
756.936584	191.700000
756.973816	198.900000
757.011047	200.300000
757.048340	190.700000
757.085632	188.200000
757.122864	205.200000
757.160156	186.300000
757.197327	191.200000
757.234619	193.600000
757.271912	189.200000
757.309082	193.400000
757.346375	186.000000
757.383667	193.300000
757.420837	191.200000
757.458130	191.400000
757.495422	187.000000
757.532593	191.300000
757.569885	183.400000
757.607117	185.100000
757.644348	192.200000
757.681580	202.900000
757.718811	179.100000
757.756042	190.100000
757.793335	186.900000
757.830505	192.500000
757.867798	186.900000
757.905029	186.000000
757.942200	191.300000
757.979492	185.500000
758.016724	189.100000
758.053894	189.400000
758.091187	207.400000
758.128418	190.600000
758.165588	188.200000
758.202820	202.400000
758.240112	187.200000
758.277283	202.200000
758.314514	192.700000
758.351685	187.500000
758.388916	200.300000
758.426147	197.800000
758.463379	200.200000
758.500610	195.400000
758.537842	192.900000
758.575012	199.100000
758.612244	187.800000
758.649475	204.500000
758.686646	184.700000
758.723877	198.600000
758.761108	200.000000
758.798279	191.900000
758.835510	194.500000
758.872742	198.100000
758.909851	194.200000
758.947083	195.400000
758.984253	196.200000
759.021484	198.800000
759.058716	197.800000
759.095886	197.900000
759.133057	192.700000
759.170288	197.700000
759.207458	189.600000
759.244690	206.500000
759.281860	203.400000
759.319031	195.800000
759.356262	192.100000
759.393433	193.300000
759.430603	194.100000
759.467773	194.700000
759.505005	200.200000
759.542175	201.300000
759.579346	193.600000
759.616516	196.600000
759.653687	199.300000
759.690918	192.800000
759.728027	197.000000
759.765259	197.300000
759.802429	200.600000
759.839539	200.400000
759.876770	203.200000
759.913940	207.100000
759.951111	199.100000
759.988281	198.500000
760.025452	194.900000
760.062561	194.200000
760.099792	206.800000
760.136963	201.900000
760.174072	198.000000
760.211243	191.500000
760.248413	193.900000
760.285583	193.800000
760.322754	210.900000
760.359863	205.900000
760.397034	205.400000
760.434204	198.000000
760.471375	199.500000
760.508545	196.600000
760.545715	199.200000
760.582825	194.700000
760.619995	205.300000
760.657166	191.500000
760.694275	207.400000
760.731445	201.700000
760.768555	202.600000
760.805664	204.000000
760.842834	203.300000
760.879944	204.300000
760.917114	202.900000
760.954285	199.600000
760.991394	194.900000
761.028564	205.800000
761.065674	205.000000
761.102783	196.200000
761.139954	205.900000
761.177124	204.600000
761.214172	207.500000
761.251343	199.900000
761.288452	202.500000
761.325562	204.300000
761.362732	200.000000
761.399841	201.400000
761.436951	203.500000
761.474121	197.700000
761.511169	202.700000
761.548340	204.800000
761.585449	205.000000
761.622559	206.500000
761.659668	204.900000
761.696838	208.700000
761.733887	205.800000
761.771057	201.400000
761.808167	203.500000
761.845276	206.500000
761.882385	214.800000
761.919434	203.900000
761.956604	221.700000
761.993713	199.400000
762.030762	210.700000
762.067871	203.900000
762.105042	204.200000
762.142090	212.000000
762.179199	206.700000
762.216309	209.400000
762.253418	221.200000
762.290527	216.400000
762.327637	211.900000
762.364685	202.800000
762.401794	211.600000
762.438904	211.400000
762.475952	204.000000
762.513062	203.100000
762.550110	202.900000
762.587219	217.600000
762.624329	215.500000
762.661377	211.200000
762.698486	209.600000
762.735596	209.600000
762.772644	202.900000
762.809753	203.300000
762.846863	209.500000
762.883911	214.700000
762.921021	212.600000
762.958069	208.400000
762.995117	216.500000
763.032227	216.300000
763.069336	209.400000
763.106323	205.300000
763.143433	204.300000
763.180481	213.100000
763.217590	212.700000
763.254639	209.300000
763.291687	210.000000
763.328735	218.600000
763.365845	210.300000
763.402893	208.300000
763.439941	211.600000
763.477051	216.100000
763.514038	217.100000
763.551147	210.600000
763.588196	214.200000
763.625244	212.000000
763.662292	219.500000
763.699402	221.700000
763.736389	217.600000
763.773499	225.500000
763.810486	218.800000
763.847534	215.300000
763.884644	217.900000
763.921631	213.800000
763.958679	227.100000
763.995728	215.900000
764.032776	224.700000
764.069824	211.500000
764.106873	221.800000
764.143860	226.100000
764.180969	218.200000
764.218018	223.300000
764.255005	215.700000
764.292053	217.000000
764.329102	227.900000
764.366089	227.600000
764.403137	225.500000
764.440125	216.600000
764.477173	221.000000
764.514221	225.100000
764.551208	222.800000
764.588257	215.400000
764.625305	227.600000
764.662292	229.500000
764.699341	233.000000
764.736389	225.800000
764.773376	241.300000
764.810425	227.000000
764.847473	235.800000
764.884399	228.500000
764.921448	239.300000
764.958435	236.900000
764.995483	227.300000
765.032532	243.200000
765.069458	228.800000
765.106506	229.200000
765.143555	228.500000
765.180481	231.500000
765.217529	241.200000
765.254578	227.200000
765.291504	236.800000
765.328552	232.400000
765.365540	229.700000
765.402527	244.800000
765.439575	231.100000
765.476501	227.400000
765.513550	227.800000
765.550537	232.600000
765.587463	240.400000
765.624512	231.400000
765.661499	224.100000
765.698486	240.700000
765.735474	228.900000
765.772461	234.200000
765.809448	242.800000
765.846436	239.600000
765.883423	242.200000
765.920410	237.700000
765.957397	233.700000
765.994385	240.600000
766.031311	248.100000
766.068359	243.000000
766.105286	240.200000
766.142273	247.500000
766.179260	241.300000
766.216187	236.400000
766.253174	234.300000
766.290161	243.900000
766.327148	245.000000
766.364136	245.300000
766.401123	261.000000
766.438049	237.200000
766.475037	251.700000
766.512024	248.500000
766.548950	258.600000
766.585937	254.100000
766.622864	248.900000
766.659790	248.100000
766.696777	235.900000
766.733704	252.700000
766.770691	240.800000
766.807678	259.000000
766.844604	250.700000
766.881531	250.000000
766.918518	256.500000
766.955444	257.300000
766.992432	249.900000
767.029358	253.300000
767.066284	256.400000
767.103271	252.300000
767.140198	282.800000
767.177124	269.000000
767.214050	257.100000
767.251038	258.600000
767.287964	257.300000
767.324890	252.900000
767.361816	257.400000
767.398743	263.000000
767.435730	256.700000
767.472595	261.400000
767.509583	266.000000
767.546509	255.300000
767.583374	260.500000
767.620361	252.500000
767.657288	260.000000
767.694214	259.000000
767.731140	259.900000
767.768066	259.300000
767.804993	264.300000
767.841919	252.600000
767.878845	259.200000
767.915710	268.400000
767.952698	261.100000
767.989563	264.300000
768.026489	266.000000
768.063416	258.900000
768.100281	258.400000
768.137207	270.700000
768.174133	267.400000
768.211060	267.000000
768.247986	264.500000
768.284912	263.700000
768.321777	264.900000
768.358704	260.400000
768.395630	264.900000
768.432495	258.700000
768.469421	266.200000
768.506348	268.200000
768.543152	276.400000
768.580078	270.000000
768.616943	271.300000
768.653870	274.800000
768.690796	273.200000
768.727661	272.800000
768.764587	276.900000
768.801453	267.700000
768.838318	279.900000
768.875244	276.000000
768.912109	279.300000
768.948975	270.600000
768.985901	273.300000
769.022766	271.700000
769.059631	278.700000
769.096558	273.100000
769.133362	276.000000
769.170288	277.200000
769.207214	277.700000
769.244019	280.300000
769.280945	279.800000
769.317810	284.800000
769.354675	280.500000
769.391541	290.000000
769.428406	283.800000
769.465271	294.200000
769.502136	282.600000
769.539062	289.900000
769.575867	288.600000
769.612732	288.900000
769.649597	295.100000
769.686462	298.300000
769.723328	291.000000
769.760193	289.300000
769.797058	289.900000
769.833923	298.800000
769.870728	292.500000
769.907593	298.000000
769.944519	296.400000
769.981323	299.500000
770.018188	299.200000
770.055054	296.000000
770.091858	295.900000
770.128723	306.200000
770.165588	314.100000
770.202393	299.300000
770.239258	310.200000
770.276062	309.500000
770.312927	306.000000
770.349792	314.000000
770.386597	312.000000
770.423462	317.700000
770.460327	323.500000
770.497131	310.600000
770.533997	303.000000
770.570862	318.900000
770.607605	321.400000
770.644470	318.300000
770.681335	318.600000
770.718140	318.700000
770.754944	313.100000
770.791809	314.500000
770.828613	316.100000
770.865479	320.900000
770.902222	328.100000
770.939087	324.600000
770.975952	314.200000
771.012695	318.500000
771.049561	338.700000
771.086365	328.600000
771.123169	325.100000
771.159973	327.300000
771.196838	328.200000
771.233582	330.600000
771.270447	329.600000
771.307251	334.100000
771.344055	327.300000
771.380859	331.300000
771.417664	324.900000
771.454468	331.800000
771.491272	328.100000
771.528076	328.200000
771.564880	326.100000
771.601685	336.400000
771.638428	328.200000
771.675293	336.200000
771.712097	325.300000
771.748840	344.600000
771.785645	335.000000
771.822449	341.300000
771.859253	340.200000
771.896057	336.200000
771.932861	351.100000
771.969604	338.600000
772.006409	333.600000
772.043213	346.300000
772.079956	343.800000
772.116760	339.100000
772.153503	344.000000
772.190308	351.300000
772.227112	341.900000
772.263855	338.000000
772.300659	342.500000
772.337463	349.200000
772.374207	339.600000
772.411011	336.600000
772.447754	341.000000
772.484497	356.800000
772.521301	347.900000
772.558105	345.900000
772.594849	348.500000
772.631592	351.100000
772.668396	349.600000
772.705139	352.100000
772.741882	349.700000
772.778625	359.500000
772.815430	364.400000
772.852173	359.100000
772.888916	365.700000
772.925720	371.100000
772.962463	378.100000
772.999207	372.300000
773.035950	375.700000
773.072754	371.800000
773.109436	365.900000
773.146240	367.900000
773.182922	365.900000
773.219727	377.200000
773.256470	372.700000
773.293152	361.600000
773.329956	365.600000
773.366699	372.200000
773.403381	360.900000
773.440186	367.600000
773.476929	369.400000
773.513611	363.600000
773.550354	361.400000
773.587158	362.600000
773.623840	355.400000
773.660583	364.300000
773.697327	374.900000
773.734009	366.300000
773.770813	365.200000
773.807495	367.200000
773.844238	366.900000
773.880981	385.100000
773.917664	380.200000
773.954407	387.400000
773.991150	382.000000
774.027832	388.500000
774.064575	377.300000
774.101318	385.600000
774.138000	388.900000
774.174744	382.200000
774.211487	383.500000
774.248108	373.900000
774.284851	371.600000
774.321594	382.200000
774.358276	384.900000
774.395020	391.100000
774.431702	384.800000
774.468384	380.400000
774.505127	378.000000
774.541809	389.300000
774.578491	394.700000
774.615234	396.000000
774.651917	387.600000
774.688599	395.400000
774.725342	401.500000
774.762024	397.400000
774.798706	400.300000
774.835449	397.800000
774.872070	402.000000
774.908813	401.000000
774.945496	400.200000
774.982178	396.200000
775.018860	401.400000
775.055542	398.300000
775.092224	400.600000
775.128967	409.500000
775.165588	407.600000
775.202271	400.500000
775.239014	414.800000
775.275635	414.300000
775.312317	409.000000
775.349060	413.600000
775.385681	415.000000
775.422363	408.400000
775.459045	418.500000
775.495667	418.900000
775.532410	424.100000
775.569092	428.100000
775.605713	433.800000
775.642395	430.800000
775.679016	434.000000
775.715698	432.200000
775.752380	433.300000
775.789001	423.900000
775.825684	423.700000
775.862366	426.400000
775.898987	438.800000
775.935669	424.600000
775.972351	447.500000
776.008972	439.800000
776.045654	442.100000
776.082336	440.000000
776.118958	439.700000
776.155640	436.500000
776.192322	448.500000
776.228882	449.500000
776.265564	453.600000
776.302185	453.600000
776.338867	463.800000
776.375488	449.700000
776.412109	459.000000
776.448792	461.300000
776.485413	465.400000
776.522034	450.500000
776.558716	448.200000
776.595337	452.900000
776.631958	456.500000
776.668579	456.600000
776.705261	463.700000
776.741882	459.500000
776.778503	462.300000
776.815186	461.300000
776.851746	467.100000
776.888367	465.700000
776.924988	472.600000
776.961609	464.500000
776.998291	463.700000
777.034851	457.700000
777.071472	470.000000
777.108154	469.600000
777.144714	481.200000
777.181335	477.800000
777.218018	465.300000
777.254578	478.100000
777.291199	474.300000
777.327759	478.500000
777.364380	481.600000
777.401062	494.900000
777.437622	506.300000
777.474243	493.600000
777.510864	498.100000
777.547424	493.300000
777.584045	492.800000
777.620667	496.600000
777.657227	497.400000
777.693848	500.800000
777.730469	515.700000
777.767029	507.600000
777.803650	514.300000
777.840271	509.800000
777.876831	507.500000
777.913452	519.300000
777.950012	495.400000
777.986633	497.700000
778.023193	496.000000
778.059753	497.200000
778.096375	495.300000
778.132996	508.100000
778.169556	497.500000
778.206116	500.600000
778.242737	496.800000
778.279297	504.000000
778.315857	496.500000
778.352478	504.300000
778.389038	513.900000
778.425598	515.800000
778.462219	518.600000
778.498718	515.000000
778.535339	528.200000
778.571838	528.100000
778.608459	529.300000
778.645020	523.200000
778.681580	530.400000
778.718140	530.400000
778.754761	524.800000
778.791260	536.400000
778.827881	540.800000
778.864441	543.000000
778.900940	547.900000
778.937561	544.700000
778.974121	546.100000
779.010620	538.000000
779.047241	536.000000
779.083801	541.000000
779.120300	540.800000
779.156860	545.400000
779.193359	541.600000
779.229980	538.400000
779.266541	542.900000
779.303040	537.800000
779.339600	531.000000
779.376160	527.800000
779.412659	533.200000
779.449219	529.300000
779.485779	534.800000
779.522278	533.200000
779.558838	534.300000
779.595398	538.200000
779.631897	545.700000
779.668457	544.100000
779.705017	558.100000
779.741516	540.400000
779.778076	530.800000
779.814575	536.800000
779.851074	547.200000
779.887634	539.700000
779.924133	552.800000
779.960693	531.600000
779.997253	543.100000
780.033691	548.700000
780.070251	547.300000
780.106812	561.100000
780.143250	558.700000
780.179810	551.600000
780.216370	557.700000
780.252808	561.600000
780.289368	572.800000
780.325867	572.000000
780.362366	564.300000
780.398865	573.300000
780.435364	564.500000
780.471863	572.700000
780.508423	571.200000
780.544861	573.200000
780.581421	576.900000
780.617920	567.700000
780.654419	562.300000
780.690918	570.100000
780.727417	577.000000
780.763916	571.600000
780.800415	583.900000
780.836914	573.900000
780.873352	583.500000
780.909912	573.100000
780.946411	586.800000
780.982849	586.600000
781.019348	598.100000
781.055786	595.300000
781.092346	589.500000
781.128845	596.100000
781.165283	601.900000
781.201782	610.100000
781.238281	606.200000
781.274719	611.000000
781.311218	601.900000
781.347717	614.600000
781.384155	603.600000
781.420654	603.600000
781.457092	610.600000
781.493591	612.300000
781.530090	609.500000
781.566528	611.100000
781.602966	611.600000
781.639465	609.000000
781.675903	603.100000
781.712402	607.400000
781.748901	613.400000
781.785278	608.800000
781.821777	613.000000
781.858276	611.800000
781.894714	629.500000
781.931152	630.000000
781.967651	638.800000
782.004089	633.000000
782.040527	645.400000
782.076965	645.700000
782.113403	650.300000
782.149902	656.500000
782.186340	641.600000
782.222778	659.400000
782.259277	655.900000
782.295654	652.000000
782.332092	658.300000
782.368591	650.900000
782.404968	636.800000
782.441467	647.900000
782.477905	656.200000
782.514282	652.600000
782.550781	665.800000
782.587219	659.700000
782.623596	667.800000
782.660095	673.700000
782.696472	678.500000
782.732910	675.300000
782.769348	669.400000
782.805786	681.700000
782.842224	683.200000
782.878662	680.800000
782.915039	681.800000
782.951477	683.500000
782.987915	679.600000
783.024292	686.500000
783.060730	689.300000
783.097168	684.900000
783.133545	684.100000
783.169983	682.300000
783.206421	675.900000
783.242798	672.500000
783.279236	659.000000
783.315613	654.900000
783.352051	652.800000
783.388489	647.300000
783.424866	637.500000
783.461304	644.100000
783.497681	655.400000
783.534058	643.800000
783.570496	643.900000
783.606934	638.400000
783.643250	647.900000
783.679687	658.000000
783.716125	653.000000
783.752441	667.000000
783.788879	687.700000
783.825317	687.400000
783.861633	696.700000
783.898071	702.300000
783.934448	714.100000
783.970825	719.000000
784.007263	730.800000
784.043579	749.900000
784.080017	758.300000
784.116394	748.100000
784.152710	745.200000
784.189148	746.200000
784.225525	742.000000
784.261902	722.700000
784.298279	723.500000
784.334656	723.500000
784.371033	708.100000
784.407410	718.400000
784.443787	702.600000
784.480164	685.000000
784.516541	674.700000
784.552856	682.700000
784.589233	674.400000
784.625610	669.300000
784.661987	693.600000
784.698364	686.500000
784.734741	680.700000
784.771057	681.700000
784.807434	691.400000
784.843811	707.600000
784.880127	699.100000
784.916504	726.000000
784.952881	723.300000
784.989197	717.800000
785.025574	725.700000
785.061951	733.200000
785.098267	751.300000
785.134644	748.000000
785.170959	743.200000
785.207275	749.300000
785.243652	741.200000
785.279968	723.100000
785.316345	719.800000
785.352722	725.900000
785.388977	720.300000
785.425354	705.900000
785.461731	683.900000
785.498047	679.300000
785.534363	667.200000
785.570679	662.200000
785.606995	666.900000
785.643372	668.100000
785.679687	670.800000
785.716003	658.300000
785.752380	648.900000
785.788635	629.400000
785.825012	593.100000
785.861328	523.500000
785.897644	433.600000
785.933960	377.900000
785.970337	339.100000
786.006592	333.400000
786.042908	343.700000
786.079285	378.800000
786.115540	444.000000
786.151855	523.800000
786.188171	599.700000
786.224487	667.400000
786.260803	706.000000
786.297119	734.200000
786.333435	738.400000
786.369751	739.400000
786.406006	736.800000
786.442322	715.300000
786.478638	711.500000
786.514954	712.100000
786.551270	711.000000
786.587585	719.800000
786.623840	706.300000
786.660156	709.100000
786.696472	697.200000
786.732727	690.400000
786.769043	695.500000
786.805298	687.100000
786.841614	694.700000
786.877930	703.500000
786.914124	692.100000
786.950439	709.400000
786.986755	722.000000
787.023010	740.400000
787.059326	751.200000
787.095642	744.600000
787.131836	767.000000
787.168152	755.000000
787.204468	763.500000
787.240723	772.700000
787.276978	779.900000
787.313293	781.200000
787.349548	780.200000
787.385803	784.100000
787.422058	776.300000
787.458313	761.600000
787.494629	761.300000
787.530823	760.400000
787.567139	746.900000
787.603455	751.000000
787.639648	735.700000
787.675903	735.700000
787.712219	731.500000
787.748413	727.900000
787.784729	745.500000
787.820984	735.800000
787.857178	730.200000
787.893494	722.700000
787.929749	710.900000
787.965942	712.400000
788.002258	731.100000
788.038452	744.800000
788.074707	731.900000
788.110962	749.700000
788.147217	746.600000
788.183472	767.000000
788.219727	778.200000
788.255920	801.700000
788.292175	811.100000
788.328430	806.100000
788.364624	786.900000
788.400879	789.800000
788.437134	796.000000
788.473328	794.100000
788.509583	796.400000
788.545837	796.300000
788.582031	797.000000
788.618286	793.300000
788.654480	790.600000
788.690735	792.800000
788.726990	812.400000
788.763184	805.200000
788.799377	814.800000
788.835632	808.800000
788.871826	820.200000
788.908081	813.700000
788.944336	819.100000
788.980469	837.700000
789.016724	821.300000
789.052979	824.900000
789.089111	815.400000
789.125366	823.500000
789.161621	791.800000
789.197754	805.200000
789.234009	800.800000
789.270142	799.700000
789.306396	790.100000
789.342590	783.400000
789.378784	762.400000
789.414978	761.600000
789.451233	776.200000
789.487366	781.800000
789.523621	798.400000
789.559814	785.900000
789.595947	772.300000
789.632202	779.200000
789.668335	793.800000
789.704529	814.200000
789.740784	833.100000
789.776917	826.500000
789.813110	812.400000
789.849304	827.600000
789.885498	825.500000
789.921692	848.200000
789.957886	859.800000
789.994019	860.200000
790.030212	856.900000
790.066406	857.500000
790.102539	855.000000
790.138733	866.900000
790.174927	844.500000
790.211060	856.200000
790.247253	850.500000
790.283386	842.100000
790.319580	834.400000
790.355774	819.200000
790.391907	829.800000
790.428101	851.100000
790.464294	851.400000
790.500427	838.400000
790.536621	831.700000
790.572754	828.600000
790.608887	819.200000
790.645081	838.500000
790.681274	856.400000
790.717346	855.200000
790.753540	844.900000
790.789734	814.600000
790.825867	792.400000
790.862000	796.700000
790.898132	809.500000
790.934265	798.100000
790.970459	799.400000
791.006592	804.100000
791.042725	799.000000
791.078918	789.100000
791.114990	790.600000
791.151184	792.300000
791.187317	802.700000
791.223389	793.000000
791.259583	779.500000
791.295715	777.000000
791.331848	781.500000
791.367981	786.900000
791.404114	792.900000
791.440247	797.600000
791.476379	807.900000
791.512451	795.100000
791.548584	814.600000
791.584778	811.600000
791.620850	811.500000
791.656982	806.800000
791.693115	807.900000
791.729187	805.100000
791.765381	797.600000
791.801514	799.800000
791.837585	801.800000
791.873718	806.500000
791.909851	806.700000
791.945923	814.700000
791.982056	791.700000
792.018188	790.800000
792.054260	796.300000
792.090393	805.500000
792.126465	793.200000
792.162598	797.900000
792.198669	784.800000
792.234741	787.700000
792.270874	773.600000
792.307007	767.100000
792.343079	776.200000
792.379150	784.600000
792.415283	765.700000
792.451355	776.000000
792.487488	745.200000
792.523560	740.800000
792.559631	729.100000
792.595764	711.100000
792.631836	681.400000
792.667908	672.800000
792.703979	654.600000
792.740051	668.100000
792.776184	688.200000
792.812256	696.800000
792.848328	702.700000
792.884399	709.500000
792.920471	708.400000
792.956543	701.100000
792.992615	701.200000
793.028748	704.100000
793.064758	710.800000
793.100830	725.000000
793.136963	743.900000
793.172974	746.300000
793.209045	738.200000
793.245178	751.500000
793.281189	743.600000
793.317261	743.300000
793.353271	740.100000
793.389404	745.600000
793.425476	735.800000
793.461487	721.700000
793.497559	719.000000
793.533630	719.000000
793.569641	715.100000
793.605713	715.800000
793.641785	712.400000
793.677795	720.700000
793.713867	719.600000
793.749878	726.100000
793.785950	729.500000
793.822021	733.900000
793.858032	725.600000
793.894104	738.500000
793.930176	729.100000
793.966187	732.000000
794.002258	724.200000
794.038269	723.800000
794.074280	720.300000
794.110352	746.900000
794.146423	726.500000
794.182373	717.000000
794.218445	717.500000
794.254517	717.900000
794.290466	703.700000
794.326538	709.800000
794.362549	718.100000
794.398560	726.000000
794.434631	732.300000
794.470581	712.500000
794.506653	709.400000
794.542664	713.000000
794.578674	718.400000
794.614685	723.200000
794.650757	721.500000
794.686707	712.600000
794.722778	702.600000
794.758789	705.300000
794.794739	707.300000
794.830811	735.700000
794.866821	752.800000
794.902771	751.200000
794.938843	752.800000
794.974792	749.500000
795.010803	745.000000
795.046814	743.600000
795.082825	738.900000
795.118835	754.100000
795.154846	732.000000
795.190796	740.700000
795.226807	725.400000
795.262817	726.000000
795.298767	736.300000
795.334778	743.500000
795.370850	736.400000
795.406799	736.800000
795.442810	717.200000
795.478821	718.900000
795.514709	722.400000
795.550720	745.200000
795.586670	722.100000
795.622681	726.200000
795.658691	723.900000
795.694641	721.200000
795.730652	706.600000
795.766663	723.700000
795.802551	729.700000
795.838562	744.300000
795.874573	730.900000
795.910522	731.300000
795.946472	719.100000
795.982483	723.700000
796.018433	715.700000
796.054382	729.300000
796.090393	716.400000
796.126282	715.900000
796.162292	714.700000
796.198242	709.700000
796.234192	708.100000
796.270203	707.800000
796.306091	710.600000
796.342041	724.600000
796.378052	718.500000
796.413940	715.000000
796.449951	717.100000
796.485901	708.100000
796.521790	707.200000
796.557800	725.400000
796.593689	722.500000
796.629639	720.400000
796.665649	718.800000
796.701599	711.900000
796.737488	703.500000
796.773437	709.700000
796.809387	712.000000
796.845337	720.800000
796.881287	715.000000
796.917175	697.400000
796.953125	693.300000
796.989075	703.700000
797.024963	712.100000
797.060913	709.200000
797.096863	710.400000
797.132751	707.600000
797.168701	695.800000
797.204590	703.700000
797.240540	703.300000
797.276489	705.500000
797.312439	709.900000
797.348328	705.400000
797.384277	694.900000
797.420166	687.900000
797.456055	684.300000
797.492004	679.900000
797.527893	685.400000
797.563843	685.700000
797.599731	675.500000
797.635620	671.100000
797.671570	679.900000
797.707520	681.100000
797.743347	680.800000
797.779297	694.600000
797.815125	683.200000
797.851074	677.200000
797.887024	671.400000
797.922913	656.600000
797.958801	666.900000
797.994690	662.300000
798.030579	671.500000
798.066467	680.900000
798.102356	672.500000
798.138245	661.800000
798.174133	663.600000
798.210083	669.500000
798.245911	669.400000
798.281799	668.400000
798.317749	671.900000
798.353577	669.200000
798.389465	666.000000
798.425293	660.400000
798.461243	661.700000
798.497131	669.900000
798.532959	673.700000
798.568848	673.400000
798.604736	661.400000
798.640564	652.600000
798.676453	650.000000
798.712402	651.200000
798.748230	660.500000
798.784119	660.700000
798.820007	664.300000
798.855835	655.700000
798.891724	653.700000
798.927551	643.900000
798.963379	657.100000
798.999268	655.400000
799.035095	653.200000
799.070984	644.500000
799.106873	628.600000
799.142700	629.700000
799.178528	621.100000
799.214417	621.000000
799.250244	637.300000
799.286133	631.700000
799.321960	633.000000
799.357788	628.000000
799.393677	621.800000
799.429504	620.900000
799.465332	621.200000
799.501221	628.000000
799.537048	627.400000
799.572876	626.200000
799.608704	625.900000
799.644531	639.600000
799.680359	641.500000
799.716248	653.800000
799.752014	658.500000
799.787903	649.000000
799.823730	649.700000
799.859558	643.100000
799.895386	634.000000
799.931213	633.700000
799.967041	624.200000
800.002869	629.900000
800.038696	637.800000
800.074463	619.700000
800.110352	623.800000
800.146179	612.400000
800.181946	620.200000
800.217773	621.000000
800.253540	620.300000
800.289429	614.500000
800.325256	605.300000
800.361023	598.900000
800.396851	606.600000
800.432678	610.200000
800.468445	618.500000
800.504272	618.000000
800.540100	603.000000
800.575867	607.300000
800.611694	611.400000
800.647461	599.700000
800.683289	602.200000
800.719116	609.000000
800.754883	601.200000
800.790649	586.200000
800.826477	584.200000
800.862244	604.700000
800.898071	593.000000
800.933838	593.000000
800.969604	596.400000
801.005432	596.100000
801.041199	591.500000
801.076965	583.000000
801.112793	582.400000
801.148560	573.800000
801.184326	573.300000
801.220154	577.200000
801.255859	569.700000
801.291687	571.300000
801.327454	561.600000
801.363281	568.100000
801.398987	562.100000
801.434814	565.000000
801.470520	577.900000
801.506287	563.400000
801.542114	556.400000
801.577820	560.700000
801.613647	560.200000
801.649414	554.600000
801.685120	561.400000
801.720886	567.500000
801.756714	559.000000
801.792419	554.600000
801.828186	544.600000
801.863892	549.200000
801.899719	545.900000
801.935486	542.800000
801.971252	552.200000
802.006958	550.400000
802.042725	547.000000
802.078430	542.800000
802.114197	537.400000
802.149963	556.000000
802.185669	543.100000
802.221436	541.700000
802.257202	541.900000
802.292908	531.700000
802.328674	544.300000
802.364441	545.600000
802.400146	547.600000
802.435913	546.600000
802.471558	546.000000
802.507324	539.700000
802.543091	528.800000
802.578796	544.200000
802.614502	544.700000
802.650269	550.100000
802.685974	535.200000
802.721741	539.300000
802.757446	543.600000
802.793152	535.100000
802.828918	541.500000
802.864624	543.000000
802.900330	541.700000
802.936035	542.700000
802.971802	544.700000
803.007446	535.900000
803.043213	525.400000
803.078857	535.200000
803.114624	522.800000
803.150330	526.100000
803.185974	517.300000
803.221741	518.000000
803.257446	526.700000
803.293152	529.100000
803.328857	519.600000
803.364563	520.200000
803.400208	510.900000
803.435974	521.800000
803.471680	514.800000
803.507324	512.400000
803.543030	517.800000
803.578735	523.000000
803.614441	517.700000
803.650146	529.200000
803.685791	513.100000
803.721497	516.000000
803.757202	500.800000
803.792847	518.000000
803.828552	506.800000
803.864258	508.800000
803.899902	504.900000
803.935608	494.700000
803.971313	496.000000
804.006958	498.700000
804.042664	497.400000
804.078308	505.900000
804.113953	500.000000
804.149658	509.400000
804.185364	495.300000
804.221008	503.700000
804.256714	488.100000
804.292297	490.200000
804.328003	491.900000
804.363708	492.300000
804.399292	491.100000
804.434998	490.300000
804.470703	481.300000
804.506287	494.200000
804.541992	484.300000
804.577637	487.500000
804.613281	474.700000
804.648926	470.500000
804.684570	472.900000
804.720215	465.500000
804.755920	466.700000
804.791565	465.900000
804.827209	468.200000
804.862854	463.700000
804.898437	459.300000
804.934143	462.200000
804.969788	459.100000
805.005371	460.400000
805.041077	459.300000
805.076721	461.100000
805.112305	451.900000
805.147949	452.500000
805.183655	449.800000
805.219238	460.400000
805.254883	457.000000
805.290466	464.300000
805.326111	456.300000
805.361755	445.600000
805.397400	449.500000
805.432983	451.500000
805.468628	451.300000
805.504211	455.000000
805.539856	451.800000
805.575500	455.000000
805.611084	444.800000
805.646729	435.200000
805.682373	443.300000
805.717957	452.100000
805.753601	453.100000
805.789246	436.500000
805.824768	451.500000
805.860413	451.500000
805.895996	439.900000
805.931641	439.000000
805.967224	447.300000
806.002869	437.900000
806.038452	449.400000
806.074036	448.600000
806.109619	434.100000
806.145264	436.700000
806.180847	439.700000
806.216431	434.800000
806.252014	442.200000
806.287659	439.900000
806.323181	446.600000
806.358826	441.600000
806.394409	423.100000
806.429993	429.000000
806.465576	444.100000
806.501160	430.300000
806.536743	422.600000
806.572327	434.500000
806.607910	429.100000
806.643494	429.600000
806.679077	425.300000
806.714661	425.700000
806.750244	425.700000
806.785828	419.200000
806.821350	421.200000
806.856934	430.500000
806.892517	421.000000
806.928101	416.200000
806.963684	416.000000
806.999268	424.800000
807.034790	404.900000
807.070374	416.000000
807.105896	408.300000
807.141479	411.700000
807.177063	419.100000
807.212585	412.100000
807.248169	412.100000
807.283752	417.700000
807.319275	410.000000
807.354858	413.800000
807.390381	407.100000
807.425903	405.500000
807.461487	407.700000
807.497070	400.300000
807.532593	398.800000
807.568115	396.400000
807.603699	393.100000
807.639221	390.400000
807.674744	396.300000
807.710266	398.600000
807.745850	401.300000
807.781372	398.000000
807.816895	394.600000
807.852417	398.000000
807.888000	396.500000
807.923523	396.000000
807.959045	397.400000
807.994629	388.000000
808.030090	387.500000
808.065613	394.300000
808.101135	394.700000
808.136658	390.700000
808.172241	388.600000
808.207764	384.400000
808.243225	378.700000
808.278809	374.900000
808.314270	384.300000
808.349792	374.400000
808.385315	373.800000
808.420837	383.200000
808.456360	387.200000
808.491882	391.500000
808.527344	386.800000
808.562866	394.100000
808.598389	381.500000
808.633850	378.500000
808.669434	374.000000
808.704895	382.900000
808.740417	387.300000
808.775940	379.500000
808.811462	374.700000
808.846924	371.000000
808.882385	366.500000
808.917847	365.700000
808.953369	371.400000
808.988892	367.100000
809.024353	377.700000
809.059875	376.400000
809.095398	373.400000
809.130798	366.400000
809.166321	365.900000
809.201843	366.400000
809.237305	366.600000
809.272766	371.300000
809.308228	358.100000
809.343750	359.900000
809.379211	362.700000
809.414734	363.200000
809.450134	369.400000
809.485657	353.700000
809.521118	362.000000
809.556580	362.300000
809.592102	360.200000
809.627502	353.200000
809.663025	352.200000
809.698486	349.500000
809.733887	345.300000
809.769409	349.600000
809.804871	340.700000
809.840271	343.800000
809.875793	348.200000
809.911194	354.900000
809.946655	344.600000
809.982178	343.700000
810.017639	348.800000
810.053040	345.100000
810.088501	342.200000
810.123901	342.200000
810.159424	339.500000
810.194885	335.500000
810.230286	340.800000
810.265747	338.200000
810.301208	334.600000
810.336609	341.700000
810.372070	329.200000
810.407532	331.800000
810.442932	333.100000
810.478394	337.600000
810.513794	333.200000
810.549255	332.900000
810.584717	329.100000
810.620117	323.100000
810.655518	330.300000
810.690979	329.700000
810.726379	327.100000
810.761841	319.300000
810.797302	319.400000
810.832642	318.300000
810.868103	327.600000
810.903564	316.800000
810.938904	324.400000
810.974365	313.900000
811.009827	319.300000
811.045166	313.900000
811.080627	306.400000
811.115967	312.900000
811.151428	320.500000
811.186829	313.500000
811.222229	312.200000
811.257629	308.700000
811.293091	314.200000
811.328430	322.100000
811.363892	318.100000
811.399292	319.800000
811.434631	312.500000
811.470093	319.800000
811.505493	307.100000
811.540833	307.500000
811.576294	312.400000
811.611694	305.800000
811.647034	301.600000
811.682434	304.000000
811.717773	307.300000
811.753235	311.300000
811.788635	301.400000
811.823975	305.200000
811.859375	313.500000
811.894775	301.600000
811.930115	303.200000
811.965515	301.700000
812.000916	305.900000
812.036255	300.000000
812.071655	306.600000
812.106995	296.700000
812.142395	299.600000
812.177795	307.200000
812.213196	301.500000
812.248474	304.600000
812.283875	296.700000
812.319214	300.500000
812.354614	299.200000
812.390015	294.700000
812.425293	297.500000
812.460693	299.300000
812.496094	292.600000
812.531433	287.900000
812.566772	289.900000
812.602173	290.700000
812.637451	293.000000
812.672852	288.200000
812.708191	292.500000
812.743530	284.800000
812.778931	281.100000
812.814270	284.300000
812.849609	293.800000
812.884949	286.700000
812.920227	281.400000
812.955627	294.300000
812.990967	287.700000
813.026306	282.700000
813.061646	274.900000
813.096985	268.800000
813.132324	268.100000
813.167664	272.600000
813.203003	277.100000
813.238281	266.300000
813.273682	267.100000
813.308960	263.900000
813.344299	265.900000
813.379639	275.500000
813.414978	267.400000
813.450256	267.100000
813.485596	272.200000
813.520874	262.600000
813.556213	267.700000
813.591614	271.900000
813.626831	264.000000
813.662170	265.900000
813.697510	277.400000
813.732788	261.400000
813.768127	267.900000
813.803467	268.100000
813.838745	262.900000
813.874084	265.800000
813.909363	263.300000
813.944641	264.300000
813.979980	253.800000
814.015320	259.900000
814.050598	255.800000
814.085876	262.100000
814.121155	256.600000
814.156494	256.200000
814.191772	257.400000
814.227051	253.300000
814.262390	254.400000
814.297668	257.800000
814.332947	256.700000
814.368225	250.400000
814.403564	255.000000
814.438782	252.300000
814.474121	253.500000
814.509338	252.200000
814.544617	262.900000
814.579956	253.000000
814.615173	263.100000
814.650513	257.000000
814.685791	248.100000
814.721008	253.900000
814.756348	253.700000
814.791626	249.900000
814.826843	249.700000
814.862122	250.000000
814.897400	246.700000
814.932678	252.100000
814.967957	250.500000
815.003235	248.500000
815.038452	242.600000
815.073730	241.100000
815.108948	249.800000
815.144226	247.400000
815.179504	250.700000
815.214722	238.800000
815.250000	237.000000
815.285278	244.600000
815.320496	240.100000
815.355774	241.200000
815.391052	242.300000
815.426270	241.700000
815.461487	241.000000
815.496765	238.000000
815.531982	231.500000
815.567261	239.000000
815.602539	248.100000
815.637695	242.600000
815.672974	243.300000
815.708191	243.400000
815.743408	243.700000
815.778687	236.500000
815.813904	248.000000
815.849121	230.000000
815.884399	232.900000
815.919556	233.000000
815.954834	235.300000
815.990051	238.700000
816.025269	243.300000
816.060486	230.400000
816.095703	233.800000
816.130920	236.300000
816.166199	232.100000
816.201416	235.500000
816.236572	238.900000
816.271851	230.100000
816.307007	238.900000
816.342224	225.900000
816.377441	231.800000
816.412659	223.000000
816.447876	235.500000
816.483093	228.600000
816.518250	230.500000
816.553467	228.700000
816.588745	233.500000
816.623901	225.400000
816.659119	221.200000
816.694275	223.900000
816.729492	223.200000
816.764709	259.400000
816.799927	220.800000
816.835083	225.000000
816.870300	220.300000
816.905457	223.900000
816.940674	227.400000
816.975830	220.800000
817.010986	220.500000
817.046204	221.900000
817.081421	218.900000
817.116577	216.500000
817.151733	225.400000
817.186951	225.700000
817.222107	221.400000
817.257324	223.700000
817.292419	222.400000
817.327637	212.800000
817.362854	217.700000
817.398010	213.100000
817.433167	215.100000
817.468323	215.900000
817.503479	216.500000
817.538635	223.200000
817.573853	219.500000
817.608948	217.800000
817.644165	213.500000
817.679321	212.900000
817.714478	211.600000
817.749634	216.200000
817.784790	226.400000
817.819946	220.800000
817.855103	203.800000
817.890198	214.500000
817.925415	204.400000
817.960571	215.400000
817.995667	213.600000
818.030823	216.000000
818.066040	209.700000
818.101135	213.600000
818.136292	210.900000
818.171448	206.500000
818.206543	208.500000
818.241699	214.400000
818.276855	210.300000
818.311951	210.700000
818.347107	205.200000
818.382263	212.000000
818.417358	214.200000
818.452515	216.500000
818.487610	215.400000
818.522766	205.600000
818.557922	216.700000
818.593018	211.900000
818.628113	211.000000
818.663269	206.100000
818.698364	208.100000
818.733521	204.600000
818.768677	211.100000
818.803711	203.900000
818.838867	204.100000
818.874023	206.200000
818.909058	201.800000
818.944214	202.100000
818.979370	208.200000
819.014404	204.200000
819.049561	201.800000
819.084595	207.300000
819.119751	199.700000
819.154846	207.400000
819.189941	203.400000
819.225037	198.800000
819.260193	194.600000
819.295227	197.500000
819.330322	192.800000
819.365479	193.500000
819.400513	227.300000
819.435608	192.100000
819.470764	190.900000
819.505798	193.600000
819.540894	196.600000
819.575989	195.000000
819.611084	202.700000
819.646179	204.900000
819.681213	200.500000
819.716309	196.500000
819.751404	196.600000
819.786438	201.600000
819.821533	193.900000
819.856628	196.200000
819.891663	201.000000
819.926758	206.500000
819.961853	203.700000
819.996887	192.400000
820.031982	200.800000
820.067017	195.500000
820.102112	225.200000
820.137207	192.700000
820.172302	211.600000
820.207275	192.200000
820.242371	192.900000
820.277405	192.800000
820.312500	195.900000
820.347534	196.700000
820.382568	202.000000
820.417664	191.400000
820.452759	192.600000
820.487732	190.600000
820.522827	193.800000
820.557861	189.500000
820.592896	192.800000
820.627930	191.400000
820.662964	190.600000
820.698059	195.100000
820.733093	191.700000
820.768127	196.700000
820.803162	192.800000
820.838196	190.900000
820.873230	194.000000
820.908264	193.800000
820.943298	190.100000
820.978333	198.000000
821.013367	193.600000
821.048401	197.700000
821.083435	198.800000
821.118469	185.400000
821.153503	197.700000
821.188477	194.400000
821.223511	186.600000
821.258484	193.500000
821.293579	194.200000
821.328613	187.000000
821.363647	191.800000
821.398621	187.700000
821.433655	189.800000
821.468628	204.800000
821.503662	190.600000
821.538696	195.600000
821.573669	186.000000
821.608704	194.200000
821.643677	189.400000
821.678650	194.200000
821.713684	200.200000
821.748718	191.200000
821.783691	190.400000
821.818726	192.200000
821.853638	193.200000
821.888672	191.400000
821.923706	190.400000
821.958618	190.700000
821.993652	189.900000
822.028687	195.600000
822.063599	196.800000
822.098633	193.000000
822.133667	186.700000
822.168579	190.300000
822.203613	192.400000
822.238586	187.700000
822.273560	192.100000
822.308533	187.800000
822.343567	187.700000
822.378479	191.000000
822.413452	188.000000
822.448425	187.600000
822.483398	193.400000
822.518372	196.800000
822.553345	187.700000
822.588318	197.700000
822.623291	188.500000
822.658203	188.800000
822.693237	190.800000
822.728210	186.300000
822.763123	192.900000
822.798096	185.800000
822.833069	190.500000
822.867981	189.600000
822.902954	192.900000
822.937927	193.600000
822.972900	200.600000
823.007874	183.100000
823.042725	195.900000
823.077698	201.600000
823.112671	186.400000
823.147583	188.400000
823.182556	192.600000
823.217529	194.500000
823.252441	188.300000
823.287415	202.200000
823.322388	193.600000
823.357239	189.200000
823.392212	198.600000
823.427185	195.000000
823.462097	187.800000
823.497009	191.800000
823.531982	188.000000
823.566895	190.000000
823.601807	185.800000
823.636719	186.900000
823.671631	193.500000
823.706604	187.800000
823.741455	193.600000
823.776428	182.700000
823.811340	194.600000
823.846252	196.400000
823.881165	198.400000
823.916138	190.500000
823.950989	198.900000
823.985901	187.900000
824.020813	190.800000
824.055725	188.100000
824.090637	185.000000
824.125610	192.600000
824.160461	191.700000
824.195374	190.900000
824.230225	194.900000
824.265198	182.900000
824.300110	187.300000
824.334961	200.700000
824.369873	180.800000
824.404785	192.700000
824.439636	196.300000
824.474548	182.200000
824.509460	179.800000
824.544312	195.700000
824.579224	193.000000
824.614075	193.600000
824.648987	189.600000
824.683899	189.600000
824.718811	187.000000
824.753662	196.200000
824.788574	194.800000
824.823364	191.300000
824.858276	186.700000
824.893188	195.000000
824.928040	194.300000
824.962952	192.600000
824.997803	194.400000
825.032654	192.100000
825.067566	192.700000
825.102417	188.200000
825.137268	188.800000
825.172119	190.400000
825.206970	187.100000
825.241882	188.400000
825.276733	185.700000
825.311646	186.200000
825.346436	181.600000
825.381348	184.100000
825.416138	188.500000
825.450989	185.300000
825.485901	180.100000
825.520691	181.200000
825.555542	183.300000
825.590454	188.700000
825.625244	181.000000
825.660095	196.200000
825.695007	191.300000
825.729797	187.400000
825.764648	184.200000
825.799438	186.100000
825.834290	187.800000
825.869202	181.700000
825.903992	189.800000
825.938843	184.000000
825.973694	182.700000
826.008484	199.000000
826.043335	181.900000
826.078186	179.500000
826.112976	194.500000
826.147827	192.400000
826.182678	196.900000
826.217468	179.300000
826.252319	191.500000
826.287109	183.800000
826.321899	194.000000
826.356750	185.000000
826.391541	182.600000
826.426392	192.400000
826.461182	186.100000
826.495972	181.200000
826.530823	177.800000
826.565613	186.700000
826.600403	181.700000
826.635254	189.700000
826.670044	179.100000
826.704834	178.700000
826.739685	182.700000
826.774475	187.400000
826.809265	187.100000
826.844055	183.900000
826.878906	192.200000
826.913635	185.300000
826.948425	189.600000
826.983215	187.500000
827.018005	190.700000
827.052856	183.900000
827.087585	189.800000
827.122375	178.800000
827.157227	186.500000
827.191956	198.600000
827.226746	182.400000
827.261536	188.700000
827.296265	181.200000
827.331116	183.600000
827.365906	190.100000
827.400635	182.100000
827.435425	177.400000
827.470215	190.900000
827.504944	184.200000
827.539734	189.600000
827.574463	185.100000
827.609253	192.700000
827.644043	185.800000
827.678772	190.900000
827.713562	182.200000
827.748352	184.300000
827.783081	182.700000
827.817871	185.600000
827.852600	183.000000
827.887329	186.000000
827.922119	175.500000
827.956848	188.600000
827.991638	198.900000
828.026367	186.800000
828.061157	186.400000
828.095886	184.500000
828.130615	200.900000
828.165344	177.500000
828.200073	186.800000
828.234863	183.100000
828.269592	185.100000
828.304321	190.200000
828.339111	185.000000
828.373779	182.000000
828.408569	191.300000
828.443298	190.900000
828.477966	183.500000
828.512756	186.600000
828.547424	179.300000
828.582214	185.300000
828.616943	183.000000
828.651672	185.400000
828.686340	189.900000
828.721130	182.800000
828.755798	186.100000
828.790527	186.500000
828.825256	186.000000
828.859924	186.800000
828.894714	191.000000
828.929443	194.300000
828.964111	181.100000
828.998840	189.000000
829.033569	181.800000
829.068237	183.100000
829.102966	182.100000
829.137634	187.400000
829.172363	186.200000
829.207092	187.300000
829.241821	183.100000
829.276489	179.700000
829.311157	186.900000
829.345825	182.300000
829.380554	190.500000
829.415283	182.400000
829.449951	178.600000
829.484619	196.300000
829.519348	193.400000
829.554016	186.100000
829.588745	185.100000
829.623413	179.000000
829.658081	197.200000
829.692749	180.500000
829.727417	190.800000
829.762146	187.600000
829.796814	181.900000
829.831482	184.700000
829.866150	188.100000
829.900879	183.400000
829.935486	188.500000
829.970154	183.900000
830.004883	197.700000
830.039490	187.300000
830.074219	183.300000
830.108887	187.100000
830.143494	184.800000
830.178223	181.500000
830.212891	183.900000
830.247498	184.500000
830.282166	194.600000
830.316772	191.900000
830.351501	185.000000
830.386169	183.500000
830.420776	184.600000
830.455444	184.500000
830.490112	183.600000
830.524719	177.600000
830.559387	188.600000
830.594055	187.200000
830.628662	185.800000
830.663330	185.300000
830.697998	194.700000
830.732605	183.900000
830.767273	189.100000
830.801941	183.000000
830.836487	195.100000
830.871155	187.600000
830.905762	187.600000
830.940430	179.800000
830.975098	183.000000
831.009644	186.200000
831.044312	194.600000
831.078979	188.600000
831.113525	177.600000
831.148193	186.400000
831.182861	183.700000
831.217407	189.300000
831.252075	202.300000
831.286621	183.400000
831.321289	181.000000
831.355896	186.000000
831.390564	193.300000
831.425110	186.300000
831.459778	192.300000
831.494324	197.900000
831.528931	189.500000
831.563599	191.100000
831.598145	179.000000
831.632751	185.100000
831.667419	185.100000
831.701965	186.900000
831.736572	188.000000
831.771179	179.000000
831.805786	183.100000
831.840393	193.000000
831.874939	178.800000
831.909546	190.200000
831.944153	177.800000
831.978760	185.900000
832.013306	180.700000
832.047913	193.500000
832.082458	193.900000
832.117065	183.100000
832.151672	193.800000
832.186218	187.300000
832.220825	188.500000
832.255432	179.600000
832.289978	182.400000
832.324585	189.100000
832.359192	187.200000
832.393677	185.900000
832.428284	185.100000
832.462830	185.100000
832.497437	184.300000
832.531982	189.800000
832.566589	183.500000
832.601135	187.600000
832.635681	177.800000
832.670227	184.700000
832.704773	193.700000
832.739380	188.300000
832.773926	186.300000
832.808472	183.200000
832.843079	185.700000
832.877563	189.600000
832.912170	182.900000
832.946716	179.000000
832.981201	191.000000
833.015808	188.700000
833.050293	184.700000
833.084839	181.500000
833.119446	183.900000
833.153992	190.000000
833.188477	185.900000
833.223022	182.200000
833.257568	186.800000
833.292114	193.800000
833.326660	197.300000
833.361145	183.100000
833.395691	178.600000
833.430237	184.600000
833.464783	189.200000
833.499329	182.300000
833.533875	180.000000
833.568359	189.300000
833.602905	191.700000
833.637390	191.000000
833.671875	183.100000
833.706421	185.900000
833.740906	181.900000
833.775452	175.600000
833.809998	183.900000
833.844482	194.200000
833.879028	186.800000
833.913513	183.300000
833.947998	188.200000
833.982544	182.200000
834.017090	183.700000
834.051514	174.400000
834.086060	189.700000
834.120544	184.500000
834.155029	187.700000
834.189575	182.700000
834.223999	188.200000
834.258545	185.600000
834.293030	186.900000
834.327515	185.100000
834.362000	183.700000
834.396545	189.600000
834.430969	185.600000
834.465454	190.300000
834.500000	178.800000
834.534424	187.300000
834.568970	178.800000
834.603455	175.200000
834.637878	182.000000
834.672363	184.900000
834.706909	185.500000
834.741333	186.200000
834.775818	178.600000
834.810242	181.300000
834.844727	186.700000
834.879211	183.500000
834.913635	186.900000
834.948181	188.500000
834.982666	187.000000
835.017090	184.300000
835.051575	189.400000
835.086060	182.200000
835.120483	188.700000
835.154907	189.500000
835.189331	184.800000
835.223816	188.800000
835.258301	180.200000
835.292786	181.200000
835.327209	189.100000
835.361694	182.100000
835.396057	183.400000
835.430542	189.400000
835.465027	186.400000
835.499390	180.700000
835.533875	206.800000
835.568359	184.800000
835.602722	179.200000
835.637207	186.200000
835.671692	180.700000
835.706055	201.800000
835.740540	187.100000
835.774902	189.200000
835.809387	186.400000
835.843811	180.100000
835.878235	193.400000
835.912659	180.400000
835.947083	182.300000
835.981506	185.000000
836.015930	177.500000
836.050354	191.600000
836.084778	194.000000
836.119202	191.000000
836.153625	199.500000
836.187988	181.700000
836.222473	182.100000
836.256897	187.400000
836.291260	184.700000
836.325684	188.000000
836.360046	183.100000
836.394470	185.100000
836.428894	191.600000
836.463318	182.500000
836.497681	189.800000
836.532104	192.500000
836.566467	186.000000
836.600891	184.400000
836.635315	190.700000
836.669678	188.900000
836.704102	189.600000
836.738525	187.200000
836.772888	177.800000
836.807251	183.300000
836.841675	188.300000
836.876038	181.700000
836.910461	182.200000
836.944763	189.100000
836.979187	181.200000
837.013611	192.800000
837.047974	180.400000
837.082336	198.300000
837.116699	191.400000
837.151062	185.600000
837.185486	179.800000
837.219849	185.500000
837.254211	190.400000
837.288574	184.900000
837.322937	182.200000
837.357300	174.200000
837.391663	198.700000
837.426086	190.400000
837.460388	187.800000
837.494751	189.700000
837.529114	184.600000
837.563477	191.900000
837.597839	188.600000
837.632141	184.900000
837.666565	183.000000
837.700928	186.500000
837.735229	189.500000
837.769592	188.300000
837.803955	192.200000
837.838257	182.900000
837.872620	182.900000
837.906982	193.400000
837.941284	187.200000
837.975647	186.400000
838.010010	193.300000
838.044312	183.100000
838.078674	184.400000
838.112976	186.800000
838.147339	190.000000
838.181702	185.500000
838.216003	196.700000
838.250366	186.800000
838.284668	188.600000
838.318970	177.800000
838.353333	184.800000
838.387634	183.800000
838.421936	187.200000
838.456299	187.900000
838.490601	194.000000
838.524902	190.600000
838.559265	192.500000
838.593567	189.000000
838.627869	179.300000
838.662170	189.100000
838.696472	178.900000
838.730774	182.000000
838.765137	190.900000
838.799377	172.600000
838.833740	186.300000
838.868042	192.200000
838.902283	177.900000
838.936646	192.600000
838.970947	187.900000
839.005188	191.500000
839.039551	179.500000
839.073792	192.700000
839.108093	183.200000
839.142395	196.300000
839.176697	179.600000
839.210937	187.800000
839.245300	196.500000
839.279541	180.900000
839.313843	184.600000
839.348145	190.300000
839.382385	190.400000
839.416687	191.000000
839.450989	188.100000
839.485229	185.700000
839.519531	181.200000
839.553833	191.700000
839.588013	185.400000
839.622314	187.900000
839.656555	187.300000
839.690857	186.600000
839.725159	180.400000
839.759460	184.600000
839.793640	183.200000
839.827942	186.100000
839.862183	182.400000
839.896423	186.900000
839.930725	195.200000
839.964966	194.200000
839.999207	191.500000
840.033508	194.200000
840.067688	183.500000
840.101990	195.300000
840.136230	185.100000
840.170471	193.900000
840.204712	182.100000
840.238953	183.000000
840.273193	186.700000
840.307434	189.000000
840.341736	181.200000
840.375916	179.600000
840.410217	182.600000
840.444397	192.400000
840.478638	189.400000
840.512878	191.800000
840.547119	186.900000
840.581360	188.900000
840.615601	196.700000
840.649780	197.000000
840.684021	187.200000
840.718262	195.700000
840.752441	193.200000
840.786682	188.500000
840.820862	188.600000
840.855103	194.600000
840.889343	187.600000
840.923584	190.000000
840.957764	188.200000
840.992004	188.700000
841.026184	200.700000
841.060425	185.300000
841.094666	183.500000
841.128845	189.200000
841.163025	187.500000
841.197266	187.900000
841.231445	187.300000
841.265686	187.300000
841.299866	184.000000
841.334045	194.500000
841.368286	186.400000
841.402405	192.800000
841.436646	190.700000
841.470825	182.300000
841.505005	185.100000
841.539185	181.500000
841.573425	184.200000
841.607544	185.400000
841.641785	186.500000
841.675964	180.200000
841.710144	187.900000
841.744324	182.900000
841.778503	186.800000
841.812683	181.900000
841.846863	194.600000
841.881042	192.200000
841.915222	184.500000
841.949402	202.300000
841.983521	179.500000
842.017700	186.300000
842.051880	188.400000
842.086060	189.400000
842.120239	187.800000
842.154419	185.400000
842.188538	187.700000
842.222717	182.600000
842.256897	197.900000
842.291016	185.900000
842.325195	189.300000
842.359375	197.900000
842.393494	194.700000
842.427673	188.500000
842.461853	190.100000
842.495911	195.400000
842.530090	187.900000
842.564209	185.500000
842.598389	189.500000
842.632568	187.800000
842.666626	190.800000
842.700806	183.700000
842.734985	184.700000
842.769043	190.300000
842.803223	184.700000
842.837402	185.300000
842.871460	183.100000
842.905640	196.200000
842.939697	182.700000
842.973877	189.800000
843.007996	193.200000
843.042175	196.500000
843.076233	183.900000
843.110413	189.900000
843.144470	194.300000
843.178589	192.000000
843.212769	183.600000
843.246826	192.100000
843.280945	184.700000
843.315125	186.700000
843.349182	181.900000
843.383301	194.900000
843.417419	198.400000
843.451538	187.400000
843.485657	184.000000
843.519714	185.600000
843.553833	188.700000
843.587952	185.500000
843.622070	182.400000
843.656128	190.800000
843.690247	184.800000
843.724304	187.000000
843.758423	188.900000
843.792542	186.300000
843.826599	186.300000
843.860718	186.200000
843.894836	178.300000
843.928894	186.800000
843.963013	189.900000
843.997070	183.500000
844.031128	179.600000
844.065247	193.300000
844.099304	191.400000
844.133362	187.800000
844.167480	191.000000
844.201599	194.200000
844.235596	190.200000
844.269714	189.000000
844.303711	189.400000
844.337830	179.700000
844.371948	190.700000
844.405945	187.000000
844.440063	182.300000
844.474121	201.500000
844.508118	187.400000
844.542236	185.900000
844.576294	187.400000
844.610352	182.400000
844.644409	186.400000
844.678406	177.000000
844.712524	193.900000
844.746582	193.900000
844.780640	187.200000
844.814636	187.100000
844.848755	199.900000
844.882751	184.300000
844.916809	193.200000
844.950867	188.700000
844.984863	196.100000
845.018921	185.900000
845.052979	184.400000
845.086975	187.600000
845.121033	181.900000
845.155090	182.000000
845.189087	193.600000
845.223145	183.800000
845.257141	188.400000
845.291199	190.000000
845.325256	194.000000
845.359253	188.900000
845.393250	198.500000
845.427307	186.600000
845.461304	188.800000
845.495361	187.900000
845.529358	197.600000
845.563354	184.800000
845.597412	185.000000
845.631409	196.100000
845.665405	194.600000
845.699463	193.600000
845.733459	185.400000
845.767456	195.100000
845.801453	186.400000
845.835449	196.300000
845.869446	192.800000
845.903503	192.600000
845.937439	183.400000
845.971497	196.100000
846.005493	180.900000
846.039429	192.500000
846.073486	197.500000
846.107483	185.300000
846.141418	186.700000
846.175476	188.200000
846.209473	194.800000
846.243408	184.900000
846.277405	189.000000
846.311401	184.700000
846.345337	187.700000
846.379395	192.700000
846.413330	183.500000
846.447327	198.300000
846.481323	183.000000
846.515259	184.500000
846.549255	187.600000
846.583252	190.300000
846.617187	182.600000
846.651184	189.000000
846.685120	184.600000
846.719055	196.400000
846.753052	191.000000
846.786987	192.900000
846.820984	182.200000
846.854980	195.700000
846.888916	183.000000
846.922852	189.100000
846.956848	195.300000
846.990723	184.500000
847.024719	187.600000
847.058716	185.500000
847.092590	194.100000
847.126587	189.500000
847.160522	185.400000
847.194458	192.500000
847.228455	185.300000
847.262390	182.700000
847.296265	185.100000
847.330261	193.700000
847.364136	188.000000
847.398132	185.200000
847.432068	188.800000
847.466003	186.700000
847.499939	186.000000
847.533875	191.100000
847.567749	185.100000
847.601746	186.600000
847.635681	190.100000
847.669556	180.200000
847.703491	192.900000
847.737427	201.400000
847.771301	183.200000
847.805237	190.100000
847.839233	188.200000
847.873108	186.500000
847.907043	188.200000
847.940918	193.300000
847.974854	190.400000
848.008789	192.500000
848.042664	188.600000
848.076538	189.200000
848.110474	187.800000
848.144348	187.900000
848.178284	180.900000
848.212219	188.700000
848.246094	186.500000
848.279968	188.300000
848.313904	191.200000
848.347778	187.500000
848.381653	187.300000
848.415588	184.100000
848.449463	186.400000
848.483337	189.800000
848.517212	194.000000
848.551086	187.000000
848.585022	183.400000
848.618835	196.000000
848.652771	184.600000
848.686646	183.100000
848.720520	196.100000
848.754395	186.400000
848.788330	193.800000
848.822144	190.100000
848.856018	186.400000
848.889954	196.100000
848.923767	183.200000
848.957642	184.500000
848.991577	192.100000
849.025391	184.800000
849.059265	187.600000
849.093079	184.000000
849.126953	181.600000
849.160828	194.000000
849.194641	190.400000
849.228577	186.800000
849.262451	186.300000
849.296265	187.000000
849.330139	183.200000
849.364014	190.100000
849.397827	191.700000
849.431702	189.300000
849.465515	191.200000
849.499329	179.300000
849.533203	182.300000
849.567078	178.800000
849.600891	191.000000
849.634766	187.500000
849.668518	191.300000
849.702393	187.900000
849.736267	180.600000
849.770020	200.100000
849.803894	190.400000
849.837769	189.600000
849.871521	187.500000
849.905396	194.500000
849.939270	183.600000
849.973022	186.800000
850.006897	190.500000
850.040710	192.000000
850.074524	189.900000
850.108337	187.000000
850.142151	190.800000
850.175964	195.100000
850.209778	186.800000
850.243530	177.600000
850.277405	192.400000
850.311218	187.800000
850.344971	184.700000
850.378845	196.900000
850.412659	183.600000
850.446411	188.700000
850.480225	186.700000
850.514038	193.800000
850.547791	189.100000
850.581665	187.500000
850.615417	184.500000
850.649231	189.900000
850.683044	185.600000
850.716858	186.200000
850.750610	188.500000
850.784424	192.400000
850.818176	185.400000
850.851929	185.500000
850.885742	184.900000
850.919495	188.400000
850.953308	195.300000
850.987122	196.100000
851.020874	184.500000
851.054626	182.200000
851.088440	192.400000
851.122192	192.000000
851.156006	189.100000
851.189697	187.600000
851.223511	182.700000
851.257263	192.800000
851.291077	191.300000
851.324829	187.300000
851.358582	186.700000
851.392334	185.000000
851.426086	186.500000
851.459900	196.200000
851.493591	188.800000
851.527344	187.100000
851.561157	187.300000
851.594849	189.500000
851.628662	190.500000
851.662415	196.000000
851.696106	191.500000
851.729858	191.900000
851.763611	182.400000
851.797363	188.700000
851.831116	183.300000
851.864868	190.000000
851.898560	192.700000
851.932312	185.300000
851.966064	191.100000
851.999817	187.100000
852.033569	188.400000
852.067261	191.800000
852.101013	184.400000
852.134766	187.500000
852.168457	177.300000
852.202209	192.200000
852.235901	184.500000
852.269592	190.400000
852.303345	197.600000
852.337036	191.400000
852.370789	187.900000
852.404541	190.600000
852.438171	184.800000
852.471924	186.400000
852.505676	182.700000
852.539307	190.600000
852.573059	183.800000
852.606812	187.100000
852.640442	187.700000
852.674194	193.000000
852.707886	197.700000
852.741577	195.600000
852.775269	183.800000
852.809021	190.500000
852.842651	191.600000
852.876404	193.500000
852.910034	189.900000
852.943787	194.700000
852.977478	191.000000
853.011108	185.700000
853.044861	183.700000
853.078552	195.100000
853.112183	190.500000
853.145874	190.900000
853.179626	180.000000
853.213257	190.500000
853.246948	185.800000
853.280640	197.000000
853.314270	187.400000
853.347961	195.200000
853.381653	190.000000
853.415283	193.200000
853.448975	183.800000
853.482605	190.500000
853.516296	186.200000
853.549988	183.000000
853.583618	188.300000
853.617310	189.500000
853.651001	189.400000
853.684631	184.400000
853.718323	184.900000
853.751953	196.000000
853.785583	178.900000
853.819275	192.200000
853.852966	189.300000
853.886536	179.500000
853.920227	182.400000
853.953918	192.800000
853.987488	185.200000
854.021179	192.300000
854.054749	194.900000
854.088440	190.100000
854.122131	183.900000
854.155701	192.100000
854.189331	183.100000
854.223022	191.500000
854.256592	190.000000
854.290283	185.400000
854.323914	191.500000
854.357483	190.700000
854.391174	190.200000
854.424744	197.800000
854.458374	189.400000
854.492065	199.500000
854.525696	192.300000
854.559265	194.600000
854.592896	199.400000
854.626465	190.000000
854.660095	188.500000
854.693787	189.900000
854.727356	187.100000
854.760986	192.300000
854.794617	191.200000
854.828186	186.000000
854.861816	191.000000
854.895447	189.500000
854.929016	190.600000
854.962585	189.100000
854.996155	198.700000
855.029785	190.200000
855.063416	191.100000
855.097046	191.800000
855.130615	184.600000
855.164185	192.600000
855.197754	187.300000
855.231384	190.200000
855.264954	186.400000
855.298523	191.500000
855.332153	190.000000
855.365723	195.500000
855.399292	185.300000
855.432922	186.000000
855.466492	191.500000
855.500061	183.300000
855.533630	185.800000
855.567200	191.100000
855.600769	192.800000
855.634338	191.100000
855.667969	190.200000
855.701477	183.100000
855.735046	184.200000
855.768616	181.400000
855.802185	190.500000
855.835754	202.000000
855.869324	179.800000
855.902893	186.300000
855.936401	195.200000
855.969971	189.800000
856.003540	180.800000
856.037109	192.600000
856.070618	189.100000
856.104187	181.800000
856.137695	186.300000
856.171265	178.500000
856.204834	189.600000
856.238403	193.300000
856.271912	185.900000
856.305481	189.600000
856.338989	181.000000
856.372559	192.100000
856.406128	191.000000
856.439636	194.000000
856.473145	186.100000
856.506653	195.200000
856.540222	188.500000
856.573792	196.400000
856.607300	192.300000
856.640808	183.900000
856.674377	188.000000
856.707825	218.100000
856.741394	192.200000
856.774902	183.900000
856.808472	179.700000
856.841980	192.500000
856.875488	195.500000
856.908936	180.500000
856.942505	186.700000
856.976013	186.400000
857.009521	182.600000
857.043030	190.000000
857.076477	186.400000
857.110046	193.800000
857.143555	189.200000
857.177063	193.200000
857.210571	186.500000
857.244080	182.300000
857.277527	191.400000
857.311035	187.700000
857.344543	192.300000
857.378052	188.900000
857.411499	192.500000
857.445068	198.400000
857.478516	188.200000
857.512024	182.100000
857.545532	185.900000
857.578979	190.400000
857.612427	189.400000
857.645874	184.700000
857.679382	189.900000
857.712891	191.800000
857.746399	187.800000
857.779846	194.200000
857.813354	193.900000
857.846741	186.700000
857.880249	184.300000
857.913757	190.300000
857.947266	189.900000
857.980652	191.800000
858.014160	186.400000
858.047546	186.700000
858.081055	188.100000
858.114563	198.100000
858.147949	183.300000
858.181458	192.500000
858.214844	187.700000
858.248352	181.300000
858.281799	193.700000
858.315308	201.100000
858.348694	193.100000
858.382141	198.100000
858.415588	193.100000
858.449036	192.400000
858.482483	190.700000
858.515930	185.600000
858.549377	188.600000
858.582825	195.400000
858.616211	190.700000
858.649658	191.000000
858.683105	183.300000
858.716553	184.700000
858.750000	184.500000
858.783386	185.600000
858.816833	181.700000
858.850281	187.800000
858.883728	191.800000
858.917114	188.000000
858.950562	197.600000
858.983948	196.400000
859.017395	192.900000
859.050781	187.000000
859.084167	185.100000
859.117615	183.800000
859.151062	192.000000
859.184448	185.500000
859.217834	187.800000
859.251282	185.600000
859.284668	184.600000
859.318054	179.100000
859.351440	186.700000
859.384888	196.900000
859.418274	181.200000
859.451721	180.600000
859.485046	191.900000
859.518494	189.700000
859.551819	185.800000
859.585266	190.900000
859.618652	193.100000
859.652039	182.700000
859.685425	183.100000
859.718811	180.600000
859.752197	178.100000
859.785583	195.900000
859.819031	196.700000
859.852356	192.200000
859.885742	184.400000
859.919067	187.600000
859.952454	186.600000
859.985901	193.400000
860.019287	186.800000
860.052612	0.000000
860.085999	0.000000
860.119324	0.000000
860.152710	0.000000
860.186096	0.000000
860.219421	0.000000
860.252808	0.000000
860.286133	0.000000
860.319519	0.000000
860.352905	0.000000
860.386292	0.000000
860.419617	0.000000
860.452942	0.000000
860.486267	0.000000
860.519653	0.000000
860.553040	0.000000
860.586365	0.000000
860.619690	0.000000
860.653076	0.000000
860.686340	0.000000
860.719727	0.000000
860.753113	0.000000
860.786377	0.000000
860.819763	0.000000
860.853027	0.000000
860.886414	0.000000
860.919739	0.000000
860.953125	0.000000
860.986389	0.000000
861.019714	0.000000
861.053040	0.000000
861.086365	0.000000
861.119690	0.000000
861.153076	0.000000
861.186340	0.000000
861.219666	0.000000
861.252930	0.000000
861.286316	0.000000
861.319641	0.000000
861.352905	0.000000
861.386230	0.000000
861.419495	0.000000
861.452820	0.000000
861.486145	0.000000
861.519470	0.000000
861.552734	0.000000
861.586060	0.000000
861.619324	0.000000
861.652649	0.000000
861.685974	0.000000
861.719238	0.000000
861.752563	0.000000
861.785828	0.000000
861.819092	0.000000
861.852417	0.000000
861.885742	0.000000
861.918945	0.000000
861.952271	0.000000
861.985535	0.000000
862.018799	0.000000
862.052124	0.000000
862.085449	0.000000
862.118652	0.000000
862.151978	0.000000
862.185181	0.000000
862.218506	0.000000
862.251770	0.000000
862.285034	0.000000
862.318298	0.000000
862.351562	0.000000
862.384827	0.000000
862.418091	0.000000
862.451355	0.000000
862.484619	0.000000
862.517883	0.000000
862.551086	0.000000
862.584351	0.000000
862.617676	0.000000
862.650940	0.000000
862.684143	0.000000
862.717407	0.000000
862.750610	0.000000
862.783875	0.000000
862.817139	0.000000
862.850342	0.000000
862.883606	0.000000
862.916870	0.000000
862.950073	0.000000
862.983337	0.000000
863.016602	0.000000
863.049805	0.000000
863.083069	0.000000
863.116211	0.000000
863.149475	0.000000
863.182739	0.000000
863.216003	0.000000
863.249146	0.000000
863.282410	0.000000
863.315613	0.000000
863.348816	0.000000
863.382080	0.000000
863.415222	0.000000
863.448486	0.000000
863.481689	0.000000
863.514893	0.000000
863.548157	0.000000
863.581360	0.000000
863.614502	0.000000
863.647766	0.000000
863.680908	0.000000
863.714172	0.000000
863.747375	0.000000
863.780579	0.000000
863.813721	0.000000
863.846985	0.000000
863.880127	0.000000
863.913330	0.000000
863.946533	0.000000
863.979675	0.000000
864.012939	0.000000
