Model Number: SPM-001-M   
Serial Number: 10090201
Firmware Version: 004.17.6
Exposure Time: 500000.000000us
Data Taken on: 03-03-2021 10:01:59.664
Wavelength	Amplitude
733.770752	0.000000
733.808716	0.000000
733.846619	0.000000
733.884583	0.000000
733.922546	0.000000
733.960449	0.000000
733.998413	0.000000
734.036377	0.000000
734.074219	0.000000
734.112183	0.000000
734.150085	0.000000
734.188049	0.000000
734.226013	0.000000
734.263916	0.000000
734.301819	0.000000
734.339783	0.000000
734.377686	0.000000
734.415588	0.000000
734.453552	0.000000
734.491455	0.000000
734.529419	0.000000
734.567322	0.000000
734.605225	0.000000
734.643127	0.000000
734.681091	0.000000
734.718994	0.000000
734.756897	0.000000
734.794800	0.000000
734.832703	0.000000
734.870667	0.000000
734.908508	0.000000
734.946472	0.000000
734.984375	0.000000
735.022278	0.000000
735.060181	0.000000
735.098083	0.000000
735.135986	0.000000
735.173889	0.000000
735.211792	0.000000
735.249695	0.000000
735.287598	0.000000
735.325439	0.000000
735.363403	0.000000
735.401306	0.000000
735.439148	0.000000
735.477051	0.000000
735.515015	0.000000
735.552856	0.000000
735.590759	0.000000
735.628662	0.000000
735.666504	0.000000
735.704407	0.000000
735.742310	0.000000
735.780212	0.000000
735.818115	0.000000
735.856018	0.000000
735.893860	0.000000
735.931763	0.000000
735.969604	0.000000
736.007507	0.000000
736.045410	0.000000
736.083252	0.000000
736.121094	0.000000
736.158997	0.000000
736.196838	0.000000
736.234741	0.000000
736.272644	0.000000
736.310486	0.000000
736.348389	0.000000
736.386230	0.000000
736.424072	0.000000
736.461975	0.000000
736.499878	0.000000
736.537720	0.000000
736.575562	0.000000
736.613403	0.000000
736.651306	0.000000
736.689148	0.000000
736.726990	0.000000
736.764893	0.000000
736.802734	0.000000
736.840576	0.000000
736.878418	0.000000
736.916321	0.000000
736.954102	0.000000
736.992004	0.000000
737.029846	0.000000
737.067688	0.000000
737.105530	0.000000
737.143372	0.000000
737.181213	0.000000
737.219116	0.000000
737.256897	0.000000
737.294739	0.000000
737.332642	0.000000
737.370422	0.000000
737.408325	0.000000
737.446167	0.000000
737.483948	0.000000
737.521790	0.000000
737.559692	0.000000
737.597473	0.000000
737.635315	0.000000
737.673157	0.000000
737.710999	0.000000
737.748840	0.000000
737.786621	0.000000
737.824463	0.000000
737.862305	0.000000
737.900085	0.000000
737.937927	0.000000
737.975769	0.000000
738.013550	0.000000
738.051392	0.000000
738.089233	0.000000
738.127014	0.000000
738.164856	0.000000
738.202698	0.000000
738.240479	0.000000
738.278320	0.000000
738.316162	0.000000
738.353943	0.000000
738.391785	0.000000
738.429565	0.000000
738.467407	0.000000
738.505188	0.000000
738.542969	0.000000
738.580811	0.000000
738.618652	0.000000
738.656372	0.000000
738.694214	0.000000
738.732056	0.000000
738.769836	0.000000
738.807617	0.000000
738.845459	0.000000
738.883240	0.000000
738.921021	0.000000
738.958862	0.000000
738.996582	0.000000
739.034424	0.000000
739.072205	0.000000
739.109985	0.000000
739.147827	0.000000
739.185547	0.000000
739.223389	0.000000
739.261169	0.000000
739.298889	0.000000
739.336731	0.000000
739.374512	0.000000
739.412292	0.000000
739.450073	0.000000
739.487854	0.000000
739.525635	0.000000
739.563416	0.000000
739.601135	0.000000
739.638977	0.000000
739.676758	0.000000
739.714478	0.000000
739.752258	0.000000
739.790100	0.000000
739.827820	0.000000
739.865601	0.000000
739.903381	0.000000
739.941101	0.000000
739.978882	190.100000
740.016724	186.500000
740.054443	190.100000
740.092224	183.000000
740.130005	181.700000
740.167725	182.800000
740.205505	181.800000
740.243225	192.600000
740.281006	187.000000
740.318787	180.400000
740.356506	191.600000
740.394287	191.300000
740.432068	180.300000
740.469727	180.200000
740.507507	190.600000
740.545288	185.200000
740.583008	188.000000
740.620789	187.100000
740.658569	178.900000
740.696228	185.700000
740.734009	192.900000
740.771790	176.300000
740.809509	189.500000
740.847229	182.100000
740.884949	182.900000
740.922729	179.300000
740.960449	185.300000
740.998169	181.500000
741.035950	182.500000
741.073669	187.500000
741.111389	187.100000
741.149170	196.600000
741.186890	197.300000
741.224609	191.400000
741.262329	187.200000
741.300110	198.300000
741.337769	180.900000
741.375549	179.300000
741.413208	187.100000
741.450989	183.300000
741.488708	183.700000
741.526367	183.800000
741.564148	189.300000
741.601868	190.300000
741.639526	185.500000
741.677307	187.800000
741.715027	188.600000
741.752686	182.100000
741.790466	194.300000
741.828186	188.300000
741.865845	182.300000
741.903564	178.900000
741.941345	187.000000
741.979004	182.100000
742.016724	190.800000
742.054382	185.100000
742.092102	191.000000
742.129822	179.000000
742.167480	185.200000
742.205200	185.200000
742.242920	188.500000
742.280640	188.900000
742.318359	182.700000
742.356079	183.800000
742.393738	189.600000
742.431396	184.200000
742.469116	189.300000
742.506775	177.400000
742.544495	188.700000
742.582214	190.300000
742.619873	185.700000
742.657593	193.600000
742.695251	190.100000
742.732971	185.300000
742.770630	189.100000
742.808289	186.600000
742.846008	186.200000
742.883728	190.200000
742.921326	185.700000
742.959045	183.600000
742.996765	187.600000
743.034424	185.500000
743.072083	183.500000
743.109802	185.300000
743.147400	179.700000
743.185120	188.100000
743.222839	185.400000
743.260437	190.400000
743.298157	188.100000
743.335754	179.000000
743.373474	184.800000
743.411133	178.800000
743.448792	186.000000
743.486450	187.900000
743.524170	178.700000
743.561768	185.200000
743.599487	193.200000
743.637146	196.600000
743.674744	183.900000
743.712463	184.700000
743.750122	186.300000
743.787720	188.100000
743.825439	182.300000
743.863037	184.500000
743.900696	184.700000
743.938416	212.900000
743.976013	185.800000
744.013672	195.700000
744.051331	190.700000
744.088928	194.400000
744.126587	192.100000
744.164307	186.600000
744.201904	182.800000
744.239563	190.400000
744.277222	188.300000
744.314819	185.400000
744.352478	192.200000
744.390137	188.200000
744.427734	188.400000
744.465393	182.800000
744.502991	181.500000
744.540649	190.400000
744.578308	187.600000
744.615906	181.800000
744.653564	176.600000
744.691223	190.100000
744.728821	178.100000
744.766418	186.300000
744.804077	187.600000
744.841675	183.500000
744.879333	179.600000
744.916992	185.800000
744.954529	185.500000
744.992187	191.100000
745.029785	184.300000
745.067444	182.500000
745.105042	188.700000
745.142639	190.200000
745.180298	196.300000
745.217896	184.700000
745.255493	184.900000
745.293152	190.500000
745.330750	191.500000
745.368347	194.200000
745.405945	191.600000
745.443604	187.300000
745.481140	191.000000
745.518799	186.000000
745.556396	190.400000
745.593994	190.500000
745.631592	186.200000
745.669189	180.800000
745.706787	186.300000
745.744385	180.200000
745.781982	190.500000
745.819580	184.000000
745.857178	185.000000
745.894775	185.200000
745.932373	186.500000
745.969971	185.800000
746.007568	178.300000
746.045166	194.700000
746.082764	192.900000
746.120300	189.200000
746.157898	190.500000
746.195557	186.200000
746.233093	180.000000
746.270691	189.100000
746.308228	187.700000
746.345825	192.400000
746.383423	190.100000
746.420959	181.700000
746.458557	183.800000
746.496155	184.600000
746.533691	185.900000
746.571289	181.600000
746.608887	187.800000
746.646423	187.800000
746.684021	187.200000
746.721619	184.900000
746.759155	188.200000
746.796753	180.400000
746.834351	181.400000
746.871826	183.600000
746.909424	193.400000
746.946960	188.900000
746.984558	185.100000
747.022156	184.100000
747.059631	193.800000
747.097229	190.100000
747.134827	185.100000
747.172363	193.600000
747.209900	189.400000
747.247498	182.100000
747.285034	193.000000
747.322571	192.200000
747.360168	184.900000
747.397644	179.200000
747.435242	190.000000
747.472778	192.500000
747.510315	184.000000
747.547913	185.400000
747.585388	194.000000
747.622925	185.700000
747.660522	178.200000
747.697998	183.500000
747.735596	185.900000
747.773132	183.300000
747.810669	186.500000
747.848206	190.300000
747.885742	181.800000
747.923279	182.900000
747.960815	188.800000
747.998352	187.000000
748.035889	191.100000
748.073425	191.000000
748.110901	182.800000
748.148437	182.500000
748.185974	187.100000
748.223511	197.000000
748.261047	188.600000
748.298584	188.500000
748.336060	184.600000
748.373596	188.400000
748.411133	205.800000
748.448608	183.400000
748.486145	191.100000
748.523682	195.800000
748.561218	192.600000
748.598755	188.100000
748.636292	190.500000
748.673706	184.600000
748.711243	194.300000
748.748718	188.400000
748.786255	186.700000
748.823792	186.200000
748.861267	182.200000
748.898804	188.200000
748.936340	188.400000
748.973816	184.600000
749.011292	192.200000
749.048828	188.300000
749.086304	190.900000
749.123840	197.900000
749.161316	184.200000
749.198792	196.000000
749.236328	193.200000
749.273743	187.700000
749.311279	186.200000
749.348816	189.500000
749.386230	188.000000
749.423767	174.600000
749.461304	190.100000
749.498718	186.800000
749.536255	194.500000
749.573730	198.600000
749.611206	192.200000
749.648682	185.700000
749.686218	186.500000
749.723633	188.700000
749.761169	183.900000
749.798645	183.200000
749.836060	186.600000
749.873596	182.700000
749.911011	187.200000
749.948547	191.500000
749.986023	187.000000
750.023437	186.100000
750.060913	180.700000
750.098450	180.300000
750.135864	186.900000
750.173340	186.600000
750.210815	193.000000
750.248291	181.100000
750.285767	186.800000
750.323242	192.800000
750.360657	189.700000
750.398132	182.000000
750.435608	190.700000
750.473022	183.000000
750.510498	184.100000
750.547974	183.200000
750.585449	185.400000
750.622925	177.400000
750.660339	195.900000
750.697815	187.700000
750.735291	186.500000
750.772644	188.400000
750.810120	189.000000
750.847595	190.600000
750.885010	182.900000
750.922485	195.400000
750.959961	185.600000
750.997375	194.900000
751.034851	191.200000
751.072266	193.000000
751.109680	180.000000
751.147156	193.600000
751.184570	189.300000
751.221985	188.600000
751.259460	178.500000
751.296875	188.200000
751.334290	187.100000
751.371765	191.100000
751.409180	189.500000
751.446594	192.700000
751.484070	189.700000
751.521423	188.800000
751.558899	188.300000
751.596375	195.000000
751.633728	193.200000
751.671204	201.000000
751.708618	182.900000
751.746033	188.700000
751.783447	181.100000
751.820801	183.000000
751.858276	189.500000
751.895691	186.900000
751.933105	185.200000
751.970520	183.300000
752.007935	184.900000
752.045349	191.300000
752.082764	187.700000
752.120178	186.100000
752.157532	181.700000
752.195007	185.100000
752.232422	190.200000
752.269775	192.000000
752.307190	190.300000
752.344543	183.100000
752.382019	186.300000
752.419434	185.100000
752.456787	189.800000
752.494202	191.700000
752.531616	189.700000
752.568970	191.500000
752.606384	188.600000
752.643799	188.600000
752.681152	195.800000
752.718567	190.900000
752.755981	180.400000
752.793335	190.200000
752.830750	180.000000
752.868164	193.800000
752.905518	182.800000
752.942932	192.100000
752.980225	183.100000
753.017639	191.700000
753.055054	186.100000
753.092407	189.900000
753.129822	192.400000
753.167175	196.300000
753.204529	187.900000
753.241943	184.900000
753.279358	182.100000
753.316650	191.300000
753.354065	189.500000
753.391479	190.700000
753.428772	196.400000
753.466187	189.300000
753.503479	182.100000
753.540894	185.600000
753.578308	180.800000
753.615601	181.300000
753.653015	187.000000
753.690369	184.600000
753.727722	183.400000
753.765076	179.900000
753.802490	182.000000
753.839783	179.400000
753.877136	185.100000
753.914551	201.100000
753.951843	182.300000
753.989258	189.900000
754.026611	188.000000
754.063904	187.500000
754.101257	182.300000
754.138611	180.400000
754.175964	188.800000
754.213318	198.500000
754.250610	180.800000
754.288025	184.600000
754.325378	182.100000
754.362671	192.100000
754.400024	184.800000
754.437378	196.500000
754.474670	196.900000
754.512085	184.300000
754.549438	187.500000
754.586731	185.200000
754.624084	186.300000
754.661438	182.100000
754.698730	195.600000
754.736084	185.600000
754.773376	184.900000
754.810730	190.400000
754.848083	184.800000
754.885315	191.400000
754.922668	179.000000
754.960022	180.900000
754.997314	191.600000
755.034668	186.200000
755.072021	186.800000
755.109253	183.200000
755.146606	192.100000
755.183960	184.500000
755.221252	195.300000
755.258545	190.700000
755.295898	191.200000
755.333191	193.800000
755.370544	188.800000
755.407776	185.900000
755.445129	187.500000
755.482422	192.300000
755.519714	183.400000
755.557068	179.100000
755.594360	178.000000
755.631653	191.200000
755.668945	194.100000
755.706299	188.900000
755.743530	198.100000
755.780884	193.600000
755.818176	191.800000
755.855408	191.900000
755.892761	188.100000
755.930054	188.000000
755.967346	187.700000
756.004639	191.600000
756.041870	187.000000
756.079224	191.800000
756.116516	183.800000
756.153748	190.300000
756.191040	194.300000
756.228394	190.600000
756.265625	183.700000
756.302917	188.700000
756.340210	183.400000
756.377441	192.300000
756.414795	194.900000
756.452087	186.900000
756.489319	180.800000
756.526611	189.900000
756.563843	189.400000
756.601135	198.300000
756.638428	197.100000
756.675659	187.600000
756.712952	192.400000
756.750244	192.400000
756.787476	188.700000
756.824768	194.400000
756.862061	186.800000
756.899292	235.200000
756.936584	192.900000
756.973816	198.700000
757.011047	201.100000
757.048340	188.200000
757.085632	189.400000
757.122864	204.100000
757.160156	186.700000
757.197327	191.600000
757.234619	194.000000
757.271912	188.400000
757.309082	193.900000
757.346375	184.900000
757.383667	196.100000
757.420837	190.700000
757.458130	191.100000
757.495422	189.400000
757.532593	191.500000
757.569885	182.700000
757.607117	186.300000
757.644348	191.200000
757.681580	203.500000
757.718811	179.900000
757.756042	191.500000
757.793335	186.400000
757.830505	194.100000
757.867798	186.500000
757.905029	188.000000
757.942200	192.600000
757.979492	186.600000
758.016724	189.500000
758.053894	189.300000
758.091187	207.600000
758.128418	190.800000
758.165588	189.400000
758.202820	202.300000
758.240112	189.600000
758.277283	202.900000
758.314514	192.700000
758.351685	188.900000
758.388916	202.100000
758.426147	197.500000
758.463379	201.900000
758.500610	195.000000
758.537842	193.800000
758.575012	199.300000
758.612244	188.900000
758.649475	204.500000
758.686646	186.800000
758.723877	200.400000
758.761108	201.100000
758.798279	192.100000
758.835510	196.000000
758.872742	200.100000
758.909851	195.700000
758.947083	196.900000
758.984253	196.100000
759.021484	198.700000
759.058716	199.200000
759.095886	198.100000
759.133057	193.800000
759.170288	197.800000
759.207458	192.400000
759.244690	205.300000
759.281860	204.300000
759.319031	194.800000
759.356262	192.800000
759.393433	191.700000
759.430603	193.600000
759.467773	195.100000
759.505005	202.600000
759.542175	200.500000
759.579346	195.400000
759.616516	195.900000
759.653687	198.800000
759.690918	192.700000
759.728027	198.700000
759.765259	198.000000
759.802429	202.300000
759.839539	199.300000
759.876770	203.800000
759.913940	206.900000
759.951111	199.400000
759.988281	198.300000
760.025452	196.500000
760.062561	193.800000
760.099792	208.500000
760.136963	203.000000
760.174072	198.900000
760.211243	193.900000
760.248413	195.500000
760.285583	195.500000
760.322754	209.100000
760.359863	205.900000
760.397034	207.100000
760.434204	200.200000
760.471375	200.600000
760.508545	199.800000
760.545715	199.300000
760.582825	195.500000
760.619995	205.600000
760.657166	194.900000
760.694275	208.100000
760.731445	204.600000
760.768555	201.700000
760.805664	205.600000
760.842834	203.300000
760.879944	204.700000
760.917114	203.200000
760.954285	200.700000
760.991394	195.500000
761.028564	207.500000
761.065674	203.500000
761.102783	198.300000
761.139954	205.700000
761.177124	206.900000
761.214172	208.800000
761.251343	201.300000
761.288452	203.300000
761.325562	207.200000
761.362732	199.100000
761.399841	202.600000
761.436951	204.300000
761.474121	198.100000
761.511169	201.700000
761.548340	207.700000
761.585449	206.600000
761.622559	207.100000
761.659668	204.600000
761.696838	210.400000
761.733887	206.100000
761.771057	203.100000
761.808167	202.900000
761.845276	210.000000
761.882385	216.300000
761.919434	206.000000
761.956604	224.600000
761.993713	203.200000
762.030762	213.300000
762.067871	205.300000
762.105042	206.300000
762.142090	214.100000
762.179199	208.700000
762.216309	212.400000
762.253418	222.700000
762.290527	217.100000
762.327637	213.700000
762.364685	203.200000
762.401794	213.600000
762.438904	211.400000
762.475952	205.700000
762.513062	204.800000
762.550110	205.300000
762.587219	219.300000
762.624329	218.400000
762.661377	213.500000
762.698486	213.200000
762.735596	211.300000
762.772644	205.300000
762.809753	203.800000
762.846863	210.800000
762.883911	215.600000
762.921021	215.200000
762.958069	210.200000
762.995117	219.500000
763.032227	220.700000
763.069336	212.400000
763.106323	207.400000
763.143433	206.900000
763.180481	215.500000
763.217590	214.800000
763.254639	209.500000
763.291687	211.700000
763.328735	219.400000
763.365845	213.100000
763.402893	211.000000
763.439941	214.800000
763.477051	217.100000
763.514038	219.500000
763.551147	210.500000
763.588196	217.200000
763.625244	214.500000
763.662292	221.700000
763.699402	224.000000
763.736389	221.500000
763.773499	228.100000
763.810486	221.600000
763.847534	217.200000
763.884644	220.300000
763.921631	216.200000
763.958679	228.000000
763.995728	219.500000
764.032776	226.400000
764.069824	215.000000
764.106873	224.000000
764.143860	228.300000
764.180969	220.800000
764.218018	227.800000
764.255005	218.100000
764.292053	221.400000
764.329102	230.200000
764.366089	229.000000
764.403137	229.000000
764.440125	221.900000
764.477173	222.400000
764.514221	228.600000
764.551208	225.500000
764.588257	221.500000
764.625305	230.800000
764.662292	234.700000
764.699341	236.500000
764.736389	229.000000
764.773376	244.100000
764.810425	231.100000
764.847473	239.200000
764.884399	233.800000
764.921448	242.100000
764.958435	239.500000
764.995483	231.200000
765.032532	247.400000
765.069458	231.100000
765.106506	233.900000
765.143555	230.400000
765.180481	236.600000
765.217529	243.500000
765.254578	229.600000
765.291504	238.700000
765.328552	237.800000
765.365540	232.000000
765.402527	249.700000
765.439575	233.000000
765.476501	230.200000
765.513550	232.100000
765.550537	237.600000
765.587463	244.900000
765.624512	237.700000
765.661499	228.000000
765.698486	246.300000
765.735474	235.300000
765.772461	237.500000
765.809448	246.100000
765.846436	243.500000
765.883423	248.100000
765.920410	241.100000
765.957397	240.200000
765.994385	245.700000
766.031311	252.700000
766.068359	246.700000
766.105286	245.600000
766.142273	251.600000
766.179260	248.300000
766.216187	240.700000
766.253174	238.100000
766.290161	248.100000
766.327148	250.100000
766.364136	249.700000
766.401123	264.400000
766.438049	242.400000
766.475037	256.600000
766.512024	250.900000
766.548950	264.700000
766.585937	258.200000
766.622864	256.000000
766.659790	252.900000
766.696777	243.900000
766.733704	256.700000
766.770691	247.600000
766.807678	263.500000
766.844604	254.300000
766.881531	253.600000
766.918518	263.800000
766.955444	262.000000
766.992432	254.600000
767.029358	260.100000
767.066284	263.600000
767.103271	259.700000
767.140198	290.500000
767.177124	274.400000
767.214050	265.200000
767.251038	265.000000
767.287964	261.600000
767.324890	256.500000
767.361816	261.800000
767.398743	268.000000
767.435730	262.300000
767.472595	264.300000
767.509583	271.800000
767.546509	260.600000
767.583374	265.200000
767.620361	259.100000
767.657288	264.800000
767.694214	262.700000
767.731140	264.000000
767.768066	265.000000
767.804993	269.400000
767.841919	261.400000
767.878845	266.900000
767.915710	273.500000
767.952698	266.300000
767.989563	270.900000
768.026489	270.900000
768.063416	263.400000
768.100281	262.900000
768.137207	277.500000
768.174133	274.200000
768.211060	274.700000
768.247986	272.500000
768.284912	271.700000
768.321777	273.800000
768.358704	270.900000
768.395630	273.200000
768.432495	267.200000
768.469421	276.700000
768.506348	281.200000
768.543152	284.700000
768.580078	281.400000
768.616943	280.900000
768.653870	282.500000
768.690796	281.600000
768.727661	279.200000
768.764587	279.800000
768.801453	273.900000
768.838318	285.400000
768.875244	282.900000
768.912109	289.200000
768.948975	280.400000
768.985901	283.300000
769.022766	280.900000
769.059631	284.600000
769.096558	279.300000
769.133362	280.000000
769.170288	281.800000
769.207214	280.400000
769.244019	288.400000
769.280945	284.100000
769.317810	292.700000
769.354675	288.200000
769.391541	298.000000
769.428406	290.900000
769.465271	301.500000
769.502136	290.800000
769.539062	295.600000
769.575867	294.000000
769.612732	295.600000
769.649597	301.100000
769.686462	303.200000
769.723328	296.900000
769.760193	294.200000
769.797058	297.300000
769.833923	304.200000
769.870728	300.200000
769.907593	302.400000
769.944519	303.400000
769.981323	306.000000
770.018188	305.400000
770.055054	303.000000
770.091858	302.900000
770.128723	313.100000
770.165588	320.400000
770.202393	305.600000
770.239258	319.100000
770.276062	315.500000
770.312927	315.400000
770.349792	321.200000
770.386597	318.100000
770.423462	326.800000
770.460327	332.500000
770.497131	317.900000
770.533997	312.400000
770.570862	326.300000
770.607605	327.200000
770.644470	324.800000
770.681335	328.700000
770.718140	329.200000
770.754944	320.600000
770.791809	321.900000
770.828613	322.500000
770.865479	329.100000
770.902222	336.500000
770.939087	328.600000
770.975952	321.800000
771.012695	327.400000
771.049561	342.900000
771.086365	330.500000
771.123169	327.200000
771.159973	331.900000
771.196838	334.200000
771.233582	336.300000
771.270447	334.000000
771.307251	338.300000
771.344055	337.600000
771.380859	342.100000
771.417664	335.400000
771.454468	343.900000
771.491272	343.800000
771.528076	343.500000
771.564880	340.800000
771.601685	349.500000
771.638428	339.000000
771.675293	345.800000
771.712097	335.100000
771.748840	355.000000
771.785645	347.800000
771.822449	350.100000
771.859253	351.800000
771.896057	348.900000
771.932861	360.200000
771.969604	351.300000
772.006409	343.500000
772.043213	357.500000
772.079956	352.200000
772.116760	346.600000
772.153503	348.300000
772.190308	360.400000
772.227112	352.100000
772.263855	348.800000
772.300659	354.600000
772.337463	363.700000
772.374207	351.200000
772.411011	348.900000
772.447754	352.600000
772.484497	370.100000
772.521301	361.100000
772.558105	358.900000
772.594849	362.300000
772.631592	366.400000
772.668396	363.600000
772.705139	369.400000
772.741882	365.400000
772.778625	375.800000
772.815430	374.900000
772.852173	371.000000
772.888916	376.000000
772.925720	379.300000
772.962463	382.100000
772.999207	377.900000
773.035950	383.000000
773.072754	379.800000
773.109436	375.600000
773.146240	377.900000
773.182922	375.100000
773.219727	386.900000
773.256470	380.200000
773.293152	369.100000
773.329956	377.100000
773.366699	381.600000
773.403381	370.200000
773.440186	380.700000
773.476929	383.400000
773.513611	379.100000
773.550354	380.200000
773.587158	380.000000
773.623840	375.200000
773.660583	383.200000
773.697327	394.300000
773.734009	382.900000
773.770813	383.300000
773.807495	378.700000
773.844238	381.400000
773.880981	395.700000
773.917664	392.100000
773.954407	398.300000
773.991150	391.200000
774.027832	397.400000
774.064575	387.700000
774.101318	392.900000
774.138000	401.200000
774.174744	395.400000
774.211487	397.800000
774.248108	385.900000
774.284851	386.900000
774.321594	397.000000
774.358276	397.300000
774.395020	407.500000
774.431702	402.900000
774.468384	396.500000
774.505127	390.400000
774.541809	402.400000
774.578491	408.900000
774.615234	410.900000
774.651917	402.200000
774.688599	408.500000
774.725342	418.700000
774.762024	412.000000
774.798706	416.400000
774.835449	414.400000
774.872070	420.300000
774.908813	418.100000
774.945496	416.100000
774.982178	415.800000
775.018860	420.500000
775.055542	421.000000
775.092224	421.600000
775.128967	429.600000
775.165588	430.300000
775.202271	422.200000
775.239014	431.100000
775.275635	432.300000
775.312317	428.000000
775.349060	431.600000
775.385681	433.400000
775.422363	425.300000
775.459045	433.700000
775.495667	433.400000
775.532410	438.800000
775.569092	441.700000
775.605713	445.700000
775.642395	442.200000
775.679016	443.100000
775.715698	443.600000
775.752380	445.300000
775.789001	441.700000
775.825684	441.900000
775.862366	445.100000
775.898987	458.400000
775.935669	446.600000
775.972351	468.000000
776.008972	462.200000
776.045654	463.600000
776.082336	456.400000
776.118958	457.500000
776.155640	463.600000
776.192322	471.300000
776.228882	473.200000
776.265564	474.800000
776.302185	473.100000
776.338867	483.000000
776.375488	469.900000
776.412109	481.500000
776.448792	485.600000
776.485413	490.500000
776.522034	479.000000
776.558716	474.300000
776.595337	477.600000
776.631958	481.500000
776.668579	479.200000
776.705261	487.300000
776.741882	484.100000
776.778503	484.300000
776.815186	481.600000
776.851746	489.300000
776.888367	489.000000
776.924988	496.000000
776.961609	486.800000
776.998291	493.900000
777.034851	485.000000
777.071472	495.000000
777.108154	493.300000
777.144714	508.200000
777.181335	502.600000
777.218018	499.000000
777.254578	506.200000
777.291199	503.000000
777.327759	508.500000
777.364380	515.400000
777.401062	524.000000
777.437622	533.100000
777.474243	521.300000
777.510864	528.900000
777.547424	521.800000
777.584045	525.900000
777.620667	529.100000
777.657227	530.800000
777.693848	534.700000
777.730469	551.800000
777.767029	537.900000
777.803650	540.900000
777.840271	533.100000
777.876831	532.600000
777.913452	542.500000
777.950012	523.500000
777.986633	523.500000
778.023193	524.100000
778.059753	523.900000
778.096375	528.500000
778.132996	539.000000
778.169556	529.600000
778.206116	530.700000
778.242737	528.400000
778.279297	536.500000
778.315857	528.200000
778.352478	534.400000
778.389038	543.300000
778.425598	540.500000
778.462219	552.400000
778.498718	546.200000
778.535339	555.000000
778.571838	551.800000
778.608459	557.100000
778.645020	550.900000
778.681580	557.500000
778.718140	552.800000
778.754761	544.200000
778.791260	551.200000
778.827881	559.100000
778.864441	556.600000
778.900940	563.700000
778.937561	561.400000
778.974121	563.900000
779.010620	550.200000
779.047241	558.000000
779.083801	564.300000
779.120300	563.500000
779.156860	565.000000
779.193359	560.000000
779.229980	560.100000
779.266541	562.300000
779.303040	568.600000
779.339600	562.500000
779.376160	556.900000
779.412659	557.800000
779.449219	550.500000
779.485779	561.100000
779.522278	555.200000
779.558838	559.000000
779.595398	563.600000
779.631897	564.100000
779.668457	554.300000
779.705017	566.400000
779.741516	556.800000
779.778076	551.800000
779.814575	556.000000
779.851074	564.200000
779.887634	557.800000
779.924133	565.100000
779.960693	554.500000
779.997253	563.900000
780.033691	567.700000
780.070251	572.900000
780.106812	582.300000
780.143250	581.100000
780.179810	578.400000
780.216370	577.600000
780.252808	584.300000
780.289368	591.000000
780.325867	588.300000
780.362366	583.300000
780.398865	600.600000
780.435364	592.400000
780.471863	601.900000
780.508423	596.200000
780.544861	602.800000
780.581421	608.100000
780.617920	597.900000
780.654419	595.000000
780.690918	605.000000
780.727417	613.900000
780.763916	608.000000
780.800415	612.900000
780.836914	599.000000
780.873352	611.400000
780.909912	601.900000
780.946411	605.900000
780.982849	611.700000
781.019348	626.800000
781.055786	616.200000
781.092346	611.300000
781.128845	622.100000
781.165283	624.300000
781.201782	631.200000
781.238281	631.600000
781.274719	633.900000
781.311218	630.000000
781.347717	640.900000
781.384155	630.500000
781.420654	635.300000
781.457092	640.400000
781.493591	637.000000
781.530090	629.800000
781.566528	631.500000
781.602966	634.700000
781.639465	632.100000
781.675903	630.100000
781.712402	637.700000
781.748901	645.000000
781.785278	636.600000
781.821777	645.600000
781.858276	646.300000
781.894714	658.000000
781.931152	653.000000
781.967651	664.500000
782.004089	654.500000
782.040527	663.700000
782.076965	663.800000
782.113403	664.300000
782.149902	668.700000
782.186340	663.100000
782.222778	679.100000
782.259277	669.300000
782.295654	664.300000
782.332092	672.700000
782.368591	674.200000
782.404968	666.200000
782.441467	677.400000
782.477905	679.700000
782.514282	676.300000
782.550781	692.800000
782.587219	688.500000
782.623596	696.700000
782.660095	700.500000
782.696472	711.700000
782.732910	707.300000
782.769348	709.700000
782.805786	722.700000
782.842224	723.500000
782.878662	718.100000
782.915039	715.100000
782.951477	722.400000
782.987915	712.200000
783.024292	721.300000
783.060730	724.400000
783.097168	717.300000
783.133545	716.700000
783.169983	712.700000
783.206421	704.100000
783.242798	705.000000
783.279236	693.800000
783.315613	690.400000
783.352051	684.200000
783.388489	682.800000
783.424866	673.100000
783.461304	682.600000
783.497681	691.200000
783.534058	689.000000
783.570496	687.200000
783.606934	680.800000
783.643250	686.700000
783.679687	695.500000
783.716125	691.300000
783.752441	703.300000
783.788879	723.700000
783.825317	728.500000
783.861633	735.500000
783.898071	736.300000
783.934448	755.000000
783.970825	765.000000
784.007263	763.800000
784.043579	768.700000
784.080017	768.400000
784.116394	761.300000
784.152710	761.500000
784.189148	769.700000
784.225525	772.400000
784.261902	763.800000
784.298279	751.600000
784.334656	751.200000
784.371033	739.600000
784.407410	742.500000
784.443787	727.800000
784.480164	714.500000
784.516541	693.700000
784.552856	703.500000
784.589233	695.500000
784.625610	694.700000
784.661987	722.400000
784.698364	717.800000
784.734741	711.500000
784.771057	716.900000
784.807434	723.500000
784.843811	738.800000
784.880127	732.300000
784.916504	761.400000
784.952881	767.400000
784.989197	765.900000
785.025574	763.600000
785.061951	768.700000
785.098267	789.500000
785.134644	786.000000
785.170959	785.800000
785.207275	788.900000
785.243652	782.900000
785.279968	760.700000
785.316345	768.100000
785.352722	766.600000
785.388977	760.400000
785.425354	739.600000
785.461731	721.000000
785.498047	710.500000
785.534363	703.500000
785.570679	702.300000
785.606995	706.500000
785.643372	708.800000
785.679687	704.700000
785.716003	684.900000
785.752380	657.300000
785.788635	602.600000
785.825012	530.000000
785.861328	439.900000
785.897644	348.800000
785.933960	307.000000
785.970337	287.500000
786.006592	294.000000
786.042908	307.700000
786.079285	347.600000
786.115540	422.900000
786.151855	520.800000
786.188171	616.900000
786.224487	698.000000
786.260803	735.200000
786.297119	765.100000
786.333435	765.900000
786.369751	760.500000
786.406006	765.300000
786.442322	747.500000
786.478638	738.100000
786.514954	749.700000
786.551270	738.700000
786.587585	752.600000
786.623840	742.700000
786.660156	741.200000
786.696472	728.100000
786.732727	726.400000
786.769043	730.000000
786.805298	726.700000
786.841614	737.300000
786.877930	748.500000
786.914124	734.700000
786.950439	753.200000
786.986755	758.700000
787.023010	774.100000
787.059326	782.600000
787.095642	785.000000
787.131836	799.100000
787.168152	789.600000
787.204468	791.200000
787.240723	802.700000
787.276978	811.100000
787.313293	816.100000
787.349548	812.400000
787.385803	817.300000
787.422058	800.600000
787.458313	793.600000
787.494629	794.400000
787.530823	796.500000
787.567139	784.300000
787.603455	778.600000
787.639648	768.600000
787.675903	777.400000
787.712219	776.000000
787.748413	775.700000
787.784729	787.300000
787.820984	781.000000
787.857178	769.600000
787.893494	763.200000
787.929749	753.400000
787.965942	768.200000
788.002258	786.500000
788.038452	796.400000
788.074707	790.400000
788.110962	804.000000
788.147217	799.000000
788.183472	804.500000
788.219727	815.000000
788.255920	835.700000
788.292175	838.900000
788.328430	838.900000
788.364624	827.200000
788.400879	827.100000
788.437134	829.500000
788.473328	828.600000
788.509583	829.600000
788.545837	825.400000
788.582031	827.200000
788.618286	825.100000
788.654480	820.000000
788.690735	828.000000
788.726990	845.000000
788.763184	839.100000
788.799377	857.500000
788.835632	845.900000
788.871826	856.400000
788.908081	847.300000
788.944336	843.100000
788.980469	871.200000
789.016724	860.100000
789.052979	859.000000
789.089111	837.700000
789.125366	849.900000
789.161621	833.300000
789.197754	850.800000
789.234009	848.400000
789.270142	842.400000
789.306396	832.700000
789.342590	824.700000
789.378784	799.100000
789.414978	798.300000
789.451233	815.600000
789.487366	813.700000
789.523621	830.000000
789.559814	819.800000
789.595947	812.200000
789.632202	811.700000
789.668335	828.200000
789.704529	841.400000
789.740784	864.300000
789.776917	868.100000
789.813110	862.000000
789.849304	872.000000
789.885498	872.200000
789.921692	892.800000
789.957886	902.500000
789.994019	903.500000
790.030212	902.700000
790.066406	903.100000
790.102539	901.000000
790.138733	910.400000
790.174927	904.100000
790.211060	914.300000
790.247253	905.000000
790.283386	894.900000
790.319580	886.600000
790.355774	867.000000
790.391907	871.000000
790.428101	891.700000
790.464294	883.900000
790.500427	879.300000
790.536621	863.100000
790.572754	847.300000
790.608887	843.200000
790.645081	856.800000
790.681274	868.200000
790.717346	866.500000
790.753540	856.400000
790.789734	827.400000
790.825867	816.700000
790.862000	826.300000
790.898132	843.000000
790.934265	835.600000
790.970459	839.700000
791.006592	835.700000
791.042725	834.300000
791.078918	829.500000
791.114990	829.100000
791.151184	825.600000
791.187317	843.100000
791.223389	838.600000
791.259583	827.400000
791.295715	837.300000
791.331848	837.900000
791.367981	844.600000
791.404114	849.400000
791.440247	854.500000
791.476379	864.300000
791.512451	844.200000
791.548584	844.200000
791.584778	831.800000
791.620850	846.500000
791.656982	854.100000
791.693115	855.400000
791.729187	849.100000
791.765381	841.900000
791.801514	844.900000
791.837585	846.100000
791.873718	850.200000
791.909851	862.800000
791.945923	873.600000
791.982056	842.900000
792.018188	839.300000
792.054260	844.900000
792.090393	845.600000
792.126465	834.800000
792.162598	850.700000
792.198669	837.500000
792.234741	832.300000
792.270874	822.600000
792.307007	808.400000
792.343079	809.900000
792.379150	821.700000
792.415283	814.400000
792.451355	816.000000
792.487488	788.900000
792.523560	789.900000
792.559631	778.600000
792.595764	747.800000
792.631836	717.000000
792.667908	707.400000
792.703979	684.200000
792.740051	696.700000
792.776184	724.900000
792.812256	730.800000
792.848328	740.000000
792.884399	747.900000
792.920471	751.100000
792.956543	745.600000
792.992615	749.900000
793.028748	745.500000
793.064758	750.500000
793.100830	771.300000
793.136963	785.600000
793.172974	780.500000
793.209045	777.300000
793.245178	790.800000
793.281189	771.600000
793.317261	776.000000
793.353271	771.800000
793.389404	781.700000
793.425476	775.400000
793.461487	762.900000
793.497559	756.400000
793.533630	761.200000
793.569641	756.200000
793.605713	761.100000
793.641785	764.200000
793.677795	773.100000
793.713867	767.000000
793.749878	772.500000
793.785950	783.400000
793.822021	786.200000
793.858032	768.700000
793.894104	788.900000
793.930176	777.300000
793.966187	778.700000
794.002258	766.900000
794.038269	768.800000
794.074280	766.800000
794.110352	794.700000
794.146423	774.000000
794.182373	777.300000
794.218445	774.500000
794.254517	766.300000
794.290466	750.600000
794.326538	763.400000
794.362549	763.900000
794.398560	769.700000
794.434631	777.100000
794.470581	753.700000
794.506653	751.900000
794.542664	755.400000
794.578674	753.500000
794.614685	759.300000
794.650757	759.400000
794.686707	757.700000
794.722778	743.600000
794.758789	753.300000
794.794739	761.800000
794.830811	778.900000
794.866821	796.300000
794.902771	796.800000
794.938843	787.500000
794.974792	793.000000
795.010803	792.500000
795.046814	794.400000
795.082825	787.100000
795.118835	802.800000
795.154846	777.200000
795.190796	782.300000
795.226807	761.900000
795.262817	771.500000
795.298767	773.100000
795.334778	784.800000
795.370850	774.800000
795.406799	783.900000
795.442810	765.100000
795.478821	769.000000
795.514709	766.700000
795.550720	793.500000
795.586670	769.300000
795.622681	776.400000
795.658691	780.700000
795.694641	776.300000
795.730652	761.400000
795.766663	774.400000
795.802551	773.700000
795.838562	790.400000
795.874573	776.600000
795.910522	772.700000
795.946472	760.500000
795.982483	768.000000
796.018433	761.600000
796.054382	774.300000
796.090393	767.200000
796.126282	765.100000
796.162292	752.500000
796.198242	746.700000
796.234192	746.800000
796.270203	742.200000
796.306091	748.600000
796.342041	759.500000
796.378052	747.100000
796.413940	747.400000
796.449951	750.900000
796.485901	752.400000
796.521790	753.200000
796.557800	767.500000
796.593689	766.700000
796.629639	760.500000
796.665649	759.300000
796.701599	751.100000
796.737488	747.100000
796.773437	752.100000
796.809387	752.300000
796.845337	755.800000
796.881287	747.700000
796.917175	729.200000
796.953125	731.400000
796.989075	736.300000
797.024963	744.900000
797.060913	741.700000
797.096863	745.600000
797.132751	739.900000
797.168701	725.200000
797.204590	736.500000
797.240540	737.900000
797.276489	744.600000
797.312439	751.500000
797.348328	750.100000
797.384277	735.700000
797.420166	727.000000
797.456055	725.600000
797.492004	720.200000
797.527893	730.600000
797.563843	735.300000
797.599731	728.200000
797.635620	712.600000
797.671570	722.200000
797.707520	725.700000
797.743347	723.700000
797.779297	736.700000
797.815125	730.700000
797.851074	716.300000
797.887024	708.000000
797.922913	698.500000
797.958801	707.800000
797.994690	701.500000
798.030579	712.600000
798.066467	722.300000
798.102356	715.000000
798.138245	705.100000
798.174133	703.000000
798.210083	712.700000
798.245911	716.500000
798.281799	717.200000
798.317749	710.800000
798.353577	712.600000
798.389465	699.900000
798.425293	697.900000
798.461243	698.300000
798.497131	704.600000
798.532959	707.600000
798.568848	716.700000
798.604736	705.500000
798.640564	690.800000
798.676453	692.600000
798.712402	697.100000
798.748230	704.300000
798.784119	703.000000
798.820007	701.800000
798.855835	694.700000
798.891724	693.000000
798.927551	682.300000
798.963379	689.600000
798.999268	687.600000
799.035095	682.700000
799.070984	678.600000
799.106873	666.600000
799.142700	671.200000
799.178528	659.300000
799.214417	661.200000
799.250244	673.500000
799.286133	669.300000
799.321960	670.100000
799.357788	661.700000
799.393677	658.600000
799.429504	655.800000
799.465332	652.800000
799.501221	661.500000
799.537048	664.400000
799.572876	658.300000
799.608704	657.800000
799.644531	664.500000
799.680359	663.800000
799.716248	675.400000
799.752014	681.200000
799.787903	669.600000
799.823730	670.300000
799.859558	664.600000
799.895386	667.200000
799.931213	668.200000
799.967041	664.600000
800.002869	665.400000
800.038696	676.800000
800.074463	650.800000
800.110352	659.100000
800.146179	648.300000
800.181946	657.500000
800.217773	660.500000
800.253540	660.100000
800.289429	651.800000
800.325256	644.800000
800.361023	632.300000
800.396851	643.400000
800.432678	646.100000
800.468445	646.400000
800.504272	645.400000
800.540100	631.000000
800.575867	632.700000
800.611694	636.700000
800.647461	629.200000
800.683289	632.100000
800.719116	639.200000
800.754883	637.800000
800.790649	621.500000
800.826477	617.900000
800.862244	635.000000
800.898071	618.600000
800.933838	620.200000
800.969604	623.900000
801.005432	621.200000
801.041199	620.200000
801.076965	609.900000
801.112793	606.200000
801.148560	600.800000
801.184326	603.100000
801.220154	605.500000
801.255859	601.300000
801.291687	599.000000
801.327454	593.100000
801.363281	594.000000
801.398987	594.000000
801.434814	595.300000
801.470520	602.900000
801.506287	590.000000
801.542114	584.500000
801.577820	587.300000
801.613647	589.200000
801.649414	589.800000
801.685120	596.500000
801.720886	598.000000
801.756714	590.500000
801.792419	583.400000
801.828186	574.000000
801.863892	582.300000
801.899719	573.500000
801.935486	574.800000
801.971252	579.900000
802.006958	576.300000
802.042725	571.400000
802.078430	570.400000
802.114197	566.400000
802.149963	585.700000
802.185669	568.100000
802.221436	570.400000
802.257202	569.300000
802.292908	562.900000
802.328674	573.400000
802.364441	571.500000
802.400146	569.800000
802.435913	570.400000
802.471558	566.700000
802.507324	566.000000
802.543091	558.300000
802.578796	566.800000
802.614502	568.300000
802.650269	573.100000
802.685974	559.400000
802.721741	562.900000
802.757446	565.300000
802.793152	563.300000
802.828918	572.500000
802.864624	566.900000
802.900330	569.000000
802.936035	571.700000
802.971802	562.500000
803.007446	562.100000
803.043213	555.500000
803.078857	562.900000
803.114624	550.700000
803.150330	559.300000
803.185974	547.800000
803.221741	550.600000
803.257446	558.200000
803.293152	561.700000
803.328857	554.100000
803.364563	552.300000
803.400208	547.000000
803.435974	553.900000
803.471680	543.600000
803.507324	538.800000
803.543030	550.200000
803.578735	552.800000
803.614441	545.300000
803.650146	552.800000
803.685791	545.700000
803.721497	547.200000
803.757202	533.900000
803.792847	542.600000
803.828552	534.300000
803.864258	532.800000
803.899902	531.400000
803.935608	519.000000
803.971313	524.900000
804.006958	525.200000
804.042664	522.500000
804.078308	527.100000
804.113953	520.300000
804.149658	528.000000
804.185364	513.600000
804.221008	526.600000
804.256714	515.000000
804.292297	513.100000
804.328003	514.700000
804.363708	510.500000
804.399292	512.300000
804.434998	512.100000
804.470703	506.100000
804.506287	515.400000
804.541992	508.800000
804.577637	514.500000
804.613281	498.500000
804.648926	494.700000
804.684570	500.900000
804.720215	494.500000
804.755920	495.100000
804.791565	491.100000
804.827209	497.500000
804.862854	490.700000
804.898437	488.400000
804.934143	488.600000
804.969788	487.600000
805.005371	488.400000
805.041077	487.500000
805.076721	487.700000
805.112305	476.300000
805.147949	479.500000
805.183655	473.200000
805.219238	481.200000
805.254883	480.800000
805.290466	487.900000
805.326111	481.200000
805.361755	473.300000
805.397400	473.500000
805.432983	477.900000
805.468628	477.200000
805.504211	481.100000
805.539856	476.200000
805.575500	481.200000
805.611084	473.900000
805.646729	464.000000
805.682373	467.900000
805.717957	474.100000
805.753601	476.000000
805.789246	460.500000
805.824768	472.300000
805.860413	474.300000
805.895996	460.800000
805.931641	460.500000
805.967224	466.300000
806.002869	460.800000
806.038452	470.700000
806.074036	472.200000
806.109619	457.500000
806.145264	454.400000
806.180847	453.400000
806.216431	453.100000
806.252014	459.200000
806.287659	459.300000
806.323181	466.100000
806.358826	460.800000
806.394409	442.100000
806.429993	445.000000
806.465576	461.300000
806.501160	446.500000
806.536743	437.300000
806.572327	451.700000
806.607910	445.100000
806.643494	446.600000
806.679077	444.400000
806.714661	443.800000
806.750244	447.200000
806.785828	439.800000
806.821350	441.800000
806.856934	449.600000
806.892517	442.700000
806.928101	435.700000
806.963684	438.900000
806.999268	450.300000
807.034790	430.900000
807.070374	438.500000
807.105896	429.300000
807.141479	426.500000
807.177063	434.800000
807.212585	426.600000
807.248169	428.100000
807.283752	429.400000
807.319275	428.200000
807.354858	429.400000
807.390381	423.000000
807.425903	421.800000
807.461487	422.600000
807.497070	414.200000
807.532593	421.600000
807.568115	418.400000
807.603699	414.100000
807.639221	410.300000
807.674744	419.000000
807.710266	420.000000
807.745850	422.700000
807.781372	414.000000
807.816895	413.000000
807.852417	414.700000
807.888000	414.100000
807.923523	408.800000
807.959045	414.200000
807.994629	400.600000
808.030090	400.500000
808.065613	406.600000
808.101135	411.200000
808.136658	406.900000
808.172241	406.200000
808.207764	402.100000
808.243225	396.800000
808.278809	394.800000
808.314270	404.700000
808.349792	388.200000
808.385315	391.000000
808.420837	395.400000
808.456360	400.700000
808.491882	399.200000
808.527344	396.700000
808.562866	405.800000
808.598389	395.300000
808.633850	390.000000
808.669434	385.100000
808.704895	395.300000
808.740417	400.300000
808.775940	390.700000
808.811462	388.900000
808.846924	383.500000
808.882385	378.900000
808.917847	382.500000
808.953369	384.000000
808.988892	382.700000
809.024353	390.500000
809.059875	388.800000
809.095398	384.700000
809.130798	378.600000
809.166321	378.700000
809.201843	379.300000
809.237305	379.400000
809.272766	388.200000
809.308228	373.000000
809.343750	375.000000
809.379211	376.600000
809.414734	377.500000
809.450134	382.000000
809.485657	365.400000
809.521118	373.900000
809.556580	372.700000
809.592102	369.800000
809.627502	368.000000
809.663025	365.400000
809.698486	363.600000
809.733887	357.600000
809.769409	362.200000
809.804871	354.000000
809.840271	357.400000
809.875793	361.100000
809.911194	364.100000
809.946655	355.600000
809.982178	352.600000
810.017639	357.900000
810.053040	357.900000
810.088501	353.900000
810.123901	353.800000
810.159424	348.200000
810.194885	347.200000
810.230286	351.100000
810.265747	347.000000
810.301208	344.000000
810.336609	347.100000
810.372070	338.400000
810.407532	340.600000
810.442932	342.600000
810.478394	348.600000
810.513794	343.500000
810.549255	340.800000
810.584717	337.700000
810.620117	333.200000
810.655518	339.200000
810.690979	340.100000
810.726379	337.900000
810.761841	328.700000
810.797302	330.400000
810.832642	327.500000
810.868103	339.700000
810.903564	329.000000
810.938904	337.600000
810.974365	326.500000
811.009827	330.000000
811.045166	326.200000
811.080627	318.700000
811.115967	323.200000
811.151428	331.500000
811.186829	323.900000
811.222229	323.100000
811.257629	316.700000
811.293091	322.600000
811.328430	332.000000
811.363892	325.100000
811.399292	325.600000
811.434631	322.000000
811.470093	325.700000
811.505493	316.500000
811.540833	317.500000
811.576294	323.800000
811.611694	317.200000
811.647034	313.700000
811.682434	315.900000
811.717773	318.600000
811.753235	321.300000
811.788635	317.000000
811.823975	315.100000
811.859375	323.000000
811.894775	308.600000
811.930115	312.900000
811.965515	311.200000
812.000916	314.400000
812.036255	308.200000
812.071655	315.700000
812.106995	308.600000
812.142395	310.100000
812.177795	316.700000
812.213196	314.400000
812.248474	313.700000
812.283875	305.300000
812.319214	308.800000
812.354614	308.500000
812.390015	304.000000
812.425293	304.300000
812.460693	306.600000
812.496094	301.700000
812.531433	297.300000
812.566772	298.900000
812.602173	302.400000
812.637451	302.200000
812.672852	298.800000
812.708191	300.300000
812.743530	296.900000
812.778931	288.800000
812.814270	293.600000
812.849609	301.400000
812.884949	295.500000
812.920227	287.700000
812.955627	304.500000
812.990967	295.500000
813.026306	290.900000
813.061646	279.600000
813.096985	279.500000
813.132324	276.200000
813.167664	282.000000
813.203003	286.400000
813.238281	275.200000
813.273682	275.800000
813.308960	271.200000
813.344299	273.800000
813.379639	284.200000
813.414978	275.200000
813.450256	276.200000
813.485596	278.900000
813.520874	272.300000
813.556213	274.500000
813.591614	279.200000
813.626831	269.900000
813.662170	274.000000
813.697510	283.700000
813.732788	267.100000
813.768127	273.000000
813.803467	274.800000
813.838745	270.300000
813.874084	274.200000
813.909363	272.700000
813.944641	272.700000
813.979980	263.700000
814.015320	269.800000
814.050598	263.100000
814.085876	268.400000
814.121155	266.100000
814.156494	263.200000
814.191772	264.500000
814.227051	262.700000
814.262390	261.700000
814.297668	263.500000
814.332947	265.200000
814.368225	257.800000
814.403564	261.300000
814.438782	259.400000
814.474121	261.300000
814.509338	257.400000
814.544617	267.500000
814.579956	256.100000
814.615173	267.600000
814.650513	262.500000
814.685791	254.700000
814.721008	259.400000
814.756348	258.300000
814.791626	255.800000
814.826843	255.500000
814.862122	255.500000
814.897400	252.900000
814.932678	255.200000
814.967957	256.300000
815.003235	254.900000
815.038452	248.600000
815.073730	245.000000
815.108948	257.600000
815.144226	254.400000
815.179504	258.600000
815.214722	243.300000
815.250000	243.400000
815.285278	250.200000
815.320496	244.800000
815.355774	247.600000
815.391052	251.600000
815.426270	246.700000
815.461487	246.200000
815.496765	243.000000
815.531982	239.400000
815.567261	244.300000
815.602539	252.000000
815.637695	247.100000
815.672974	248.600000
815.708191	249.000000
815.743408	248.600000
815.778687	241.700000
815.813904	251.300000
815.849121	235.200000
815.884399	237.700000
815.919556	237.600000
815.954834	238.100000
815.990051	243.100000
816.025269	246.300000
816.060486	236.500000
816.095703	236.600000
816.130920	239.600000
816.166199	234.800000
816.201416	239.100000
816.236572	245.200000
816.271851	235.900000
816.307007	241.600000
816.342224	233.700000
816.377441	235.900000
816.412659	228.600000
816.447876	239.100000
816.483093	234.400000
816.518250	233.700000
816.553467	231.600000
816.588745	236.300000
816.623901	228.800000
816.659119	222.700000
816.694275	228.500000
816.729492	225.900000
816.764709	261.400000
816.799927	223.200000
816.835083	228.600000
816.870300	221.500000
816.905457	224.000000
816.940674	228.600000
816.975830	223.500000
817.010986	220.400000
817.046204	223.800000
817.081421	218.900000
817.116577	218.900000
817.151733	228.100000
817.186951	227.800000
817.222107	223.900000
817.257324	226.700000
817.292419	223.100000
817.327637	216.000000
817.362854	221.700000
817.398010	216.300000
817.433167	219.900000
817.468323	218.100000
817.503479	219.700000
817.538635	228.000000
817.573853	221.300000
817.608948	220.000000
817.644165	215.100000
817.679321	216.000000
817.714478	215.900000
817.749634	218.100000
817.784790	229.000000
817.819946	224.400000
817.855103	206.400000
817.890198	215.900000
817.925415	207.800000
817.960571	218.600000
817.995667	215.800000
818.030823	216.100000
818.066040	212.100000
818.101135	214.800000
818.136292	214.300000
818.171448	207.600000
818.206543	212.000000
818.241699	215.000000
818.276855	213.400000
818.311951	211.800000
818.347107	208.200000
818.382263	214.900000
818.417358	218.700000
818.452515	218.000000
818.487610	220.700000
818.522766	207.200000
818.557922	219.700000
818.593018	215.600000
818.628113	213.300000
818.663269	207.500000
818.698364	212.000000
818.733521	207.400000
818.768677	213.200000
818.803711	203.800000
818.838867	207.200000
818.874023	206.900000
818.909058	204.500000
818.944214	202.900000
818.979370	211.100000
819.014404	206.900000
819.049561	205.100000
819.084595	209.600000
819.119751	201.400000
819.154846	207.800000
819.189941	206.500000
819.225037	200.700000
819.260193	198.100000
819.295227	199.600000
819.330322	195.400000
819.365479	195.400000
819.400513	229.100000
819.435608	193.200000
819.470764	192.800000
819.505798	196.400000
819.540894	197.200000
819.575989	196.400000
819.611084	204.600000
819.646179	206.000000
819.681213	200.900000
819.716309	198.700000
819.751404	196.800000
819.786438	205.100000
819.821533	195.000000
819.856628	198.600000
819.891663	202.700000
819.926758	209.500000
819.961853	204.800000
819.996887	195.300000
820.031982	201.800000
820.067017	195.900000
820.102112	225.200000
820.137207	195.000000
820.172302	211.200000
820.207275	194.200000
820.242371	193.200000
820.277405	193.900000
820.312500	196.000000
820.347534	198.100000
820.382568	201.000000
820.417664	194.200000
820.452759	195.000000
820.487732	192.900000
820.522827	193.200000
820.557861	190.100000
820.592896	193.200000
820.627930	194.400000
820.662964	191.000000
820.698059	195.500000
820.733093	193.600000
820.768127	196.400000
820.803162	194.000000
820.838196	192.100000
820.873230	194.100000
820.908264	193.400000
820.943298	191.400000
820.978333	199.000000
821.013367	194.800000
821.048401	198.400000
821.083435	198.700000
821.118469	186.900000
821.153503	197.400000
821.188477	196.300000
821.223511	187.000000
821.258484	194.300000
821.293579	194.200000
821.328613	187.200000
821.363647	192.200000
821.398621	187.300000
821.433655	188.300000
821.468628	205.900000
821.503662	192.600000
821.538696	196.400000
821.573669	187.600000
821.608704	195.000000
821.643677	189.900000
821.678650	196.200000
821.713684	200.800000
821.748718	191.100000
821.783691	193.000000
821.818726	192.700000
821.853638	195.000000
821.888672	191.100000
821.923706	191.100000
821.958618	189.600000
821.993652	189.600000
822.028687	195.600000
822.063599	199.800000
822.098633	194.700000
822.133667	188.500000
822.168579	190.500000
822.203613	193.400000
822.238586	186.300000
822.273560	193.900000
822.308533	188.500000
822.343567	190.200000
822.378479	189.600000
822.413452	190.600000
822.448425	187.200000
822.483398	196.800000
822.518372	195.300000
822.553345	188.400000
822.588318	199.000000
822.623291	190.500000
822.658203	188.500000
822.693237	190.900000
822.728210	186.100000
822.763123	194.300000
822.798096	186.500000
822.833069	192.300000
822.867981	192.800000
822.902954	192.800000
822.937927	194.400000
822.972900	202.000000
823.007874	183.300000
823.042725	196.000000
823.077698	204.000000
823.112671	187.200000
823.147583	189.800000
823.182556	193.500000
823.217529	195.700000
823.252441	189.900000
823.287415	204.500000
823.322388	193.700000
823.357239	190.600000
823.392212	198.000000
823.427185	195.500000
823.462097	188.000000
823.497009	194.500000
823.531982	189.300000
823.566895	191.700000
823.601807	184.800000
823.636719	190.100000
823.671631	195.900000
823.706604	190.300000
823.741455	193.400000
823.776428	184.300000
823.811340	193.500000
823.846252	197.100000
823.881165	199.000000
823.916138	191.200000
823.950989	199.600000
823.985901	188.700000
824.020813	191.500000
824.055725	189.600000
824.090637	184.400000
824.125610	193.200000
824.160461	192.800000
824.195374	193.300000
824.230225	196.200000
824.265198	184.600000
824.300110	186.100000
824.334961	201.300000
824.369873	181.600000
824.404785	193.900000
824.439636	196.700000
824.474548	183.300000
824.509460	179.900000
824.544312	195.800000
824.579224	191.100000
824.614075	191.400000
824.648987	189.200000
824.683899	190.100000
824.718811	187.700000
824.753662	196.900000
824.788574	194.800000
824.823364	193.000000
824.858276	186.800000
824.893188	196.300000
824.928040	195.800000
824.962952	193.100000
824.997803	194.300000
825.032654	191.600000
825.067566	194.200000
825.102417	187.200000
825.137268	189.400000
825.172119	189.900000
825.206970	187.300000
825.241882	189.600000
825.276733	188.900000
825.311646	188.000000
825.346436	185.500000
825.381348	184.700000
825.416138	190.100000
825.450989	185.800000
825.485901	181.300000
825.520691	180.600000
825.555542	184.400000
825.590454	187.900000
825.625244	182.300000
825.660095	194.300000
825.695007	192.500000
825.729797	187.600000
825.764648	184.400000
825.799438	187.600000
825.834290	189.900000
825.869202	183.000000
825.903992	189.100000
825.938843	184.100000
825.973694	182.300000
826.008484	199.700000
826.043335	182.900000
826.078186	179.500000
826.112976	193.200000
826.147827	190.700000
826.182678	197.100000
826.217468	179.800000
826.252319	192.700000
826.287109	182.600000
826.321899	194.600000
826.356750	183.600000
826.391541	182.700000
826.426392	191.900000
826.461182	187.800000
826.495972	180.600000
826.530823	179.300000
826.565613	186.100000
826.600403	182.000000
826.635254	189.700000
826.670044	178.600000
826.704834	179.600000
826.739685	182.300000
826.774475	188.700000
826.809265	186.400000
826.844055	183.000000
826.878906	192.700000
826.913635	188.000000
826.948425	188.600000
826.983215	187.900000
827.018005	191.500000
827.052856	185.400000
827.087585	189.300000
827.122375	180.200000
827.157227	184.800000
827.191956	199.900000
827.226746	181.800000
827.261536	190.200000
827.296265	180.400000
827.331116	183.300000
827.365906	188.400000
827.400635	182.300000
827.435425	177.400000
827.470215	191.800000
827.504944	184.600000
827.539734	191.500000
827.574463	185.200000
827.609253	193.100000
827.644043	185.800000
827.678772	190.200000
827.713562	183.800000
827.748352	184.900000
827.783081	183.100000
827.817871	187.300000
827.852600	180.300000
827.887329	186.600000
827.922119	176.000000
827.956848	190.000000
827.991638	198.500000
828.026367	188.000000
828.061157	187.000000
828.095886	186.100000
828.130615	200.700000
828.165344	176.400000
828.200073	185.900000
828.234863	184.800000
828.269592	184.700000
828.304321	191.100000
828.339111	185.300000
828.373779	183.700000
828.408569	191.500000
828.443298	190.900000
828.477966	183.000000
828.512756	187.400000
828.547424	180.000000
828.582214	183.600000
828.616943	184.900000
828.651672	185.600000
828.686340	189.700000
828.721130	181.500000
828.755798	185.500000
828.790527	186.000000
828.825256	187.100000
828.859924	185.900000
828.894714	191.800000
828.929443	194.500000
828.964111	181.600000
828.998840	188.600000
829.033569	183.900000
829.068237	183.800000
829.102966	184.000000
829.137634	187.100000
829.172363	187.700000
829.207092	187.100000
829.241821	183.400000
829.276489	177.900000
829.311157	187.400000
829.345825	183.700000
829.380554	190.500000
829.415283	182.300000
829.449951	179.800000
829.484619	194.600000
829.519348	194.000000
829.554016	185.000000
829.588745	184.700000
829.623413	180.300000
829.658081	197.000000
829.692749	180.400000
829.727417	191.200000
829.762146	186.100000
829.796814	182.100000
829.831482	182.900000
829.866150	187.800000
829.900879	182.600000
829.935486	189.900000
829.970154	183.200000
830.004883	197.900000
830.039490	187.000000
830.074219	183.400000
830.108887	185.900000
830.143494	185.000000
830.178223	180.700000
830.212891	185.000000
830.247498	185.700000
830.282166	194.100000
830.316772	190.600000
830.351501	183.900000
830.386169	184.000000
830.420776	184.200000
830.455444	186.000000
830.490112	182.800000
830.524719	177.100000
830.559387	187.300000
830.594055	189.000000
830.628662	184.300000
830.663330	185.200000
830.697998	193.900000
830.732605	184.800000
830.767273	188.700000
830.801941	184.100000
830.836487	194.600000
830.871155	187.100000
830.905762	187.900000
830.940430	179.200000
830.975098	182.600000
831.009644	187.100000
831.044312	193.500000
831.078979	189.600000
831.113525	178.100000
831.148193	187.600000
831.182861	184.700000
831.217407	189.300000
831.252075	201.600000
831.286621	184.400000
831.321289	180.800000
831.355896	186.500000
831.390564	192.300000
831.425110	188.200000
831.459778	192.100000
831.494324	197.800000
831.528931	188.300000
831.563599	191.200000
831.598145	178.500000
831.632751	187.100000
831.667419	184.300000
831.701965	188.200000
831.736572	187.900000
831.771179	181.000000
831.805786	183.100000
831.840393	193.200000
831.874939	178.400000
831.909546	190.600000
831.944153	178.000000
831.978760	184.700000
832.013306	181.500000
832.047913	193.100000
832.082458	195.000000
832.117065	182.600000
832.151672	195.600000
832.186218	187.200000
832.220825	188.900000
832.255432	177.300000
832.289978	183.700000
832.324585	188.700000
832.359192	188.300000
832.393677	183.700000
832.428284	187.400000
832.462830	184.200000
832.497437	184.800000
832.531982	189.100000
832.566589	184.600000
832.601135	186.900000
832.635681	176.900000
832.670227	184.700000
832.704773	193.200000
832.739380	188.200000
832.773926	187.900000
832.808472	181.500000
832.843079	186.300000
832.877563	188.500000
832.912170	184.200000
832.946716	178.100000
832.981201	191.700000
833.015808	188.400000
833.050293	185.600000
833.084839	181.600000
833.119446	183.400000
833.153992	189.300000
833.188477	184.600000
833.223022	182.400000
833.257568	188.200000
833.292114	191.000000
833.326660	196.200000
833.361145	182.000000
833.395691	179.400000
833.430237	184.500000
833.464783	189.700000
833.499329	181.900000
833.533875	180.800000
833.568359	189.100000
833.602905	191.700000
833.637390	189.800000
833.671875	182.500000
833.706421	186.200000
833.740906	183.400000
833.775452	175.000000
833.809998	183.400000
833.844482	191.800000
833.879028	185.900000
833.913513	184.200000
833.947998	189.800000
833.982544	182.100000
834.017090	182.500000
834.051514	174.600000
834.086060	189.500000
834.120544	186.300000
834.155029	187.600000
834.189575	184.200000
834.223999	188.500000
834.258545	187.300000
834.293030	185.800000
834.327515	186.300000
834.362000	182.100000
834.396545	190.000000
834.430969	184.300000
834.465454	190.000000
834.500000	178.100000
834.534424	187.900000
834.568970	176.400000
834.603455	178.300000
834.637878	183.000000
834.672363	186.600000
834.706909	185.500000
834.741333	186.200000
834.775818	178.900000
834.810242	181.800000
834.844727	186.500000
834.879211	184.500000
834.913635	185.700000
834.948181	185.800000
834.982666	186.900000
835.017090	186.300000
835.051575	189.000000
835.086060	183.100000
835.120483	188.700000
835.154907	189.400000
835.189331	185.300000
835.223816	190.100000
835.258301	180.200000
835.292786	179.500000
835.327209	189.300000
835.361694	182.700000
835.396057	183.300000
835.430542	190.100000
835.465027	186.300000
835.499390	182.100000
835.533875	205.700000
835.568359	184.000000
835.602722	178.300000
835.637207	188.300000
835.671692	180.300000
835.706055	201.300000
835.740540	188.000000
835.774902	188.500000
835.809387	186.100000
835.843811	180.200000
835.878235	193.500000
835.912659	179.800000
835.947083	182.600000
835.981506	185.400000
836.015930	178.300000
836.050354	190.200000
836.084778	194.000000
836.119202	190.700000
836.153625	199.900000
836.187988	181.300000
836.222473	182.800000
836.256897	187.100000
836.291260	185.300000
836.325684	188.300000
836.360046	184.400000
836.394470	185.800000
836.428894	192.400000
836.463318	182.800000
836.497681	190.100000
836.532104	193.200000
836.566467	187.500000
836.600891	184.900000
836.635315	191.500000
836.669678	188.100000
836.704102	190.300000
836.738525	186.900000
836.772888	178.300000
836.807251	183.400000
836.841675	188.900000
836.876038	181.400000
836.910461	183.000000
836.944763	188.800000
836.979187	180.500000
837.013611	190.300000
837.047974	179.500000
837.082336	196.600000
837.116699	190.000000
837.151062	185.100000
837.185486	180.100000
837.219849	183.900000
837.254211	190.200000
837.288574	184.400000
837.322937	180.800000
837.357300	173.800000
837.391663	198.300000
837.426086	191.400000
837.460388	186.600000
837.494751	190.300000
837.529114	183.000000
837.563477	192.000000
837.597839	187.200000
837.632141	184.900000
837.666565	183.100000
837.700928	188.700000
837.735229	188.900000
837.769592	188.700000
837.803955	192.100000
837.838257	184.000000
837.872620	182.300000
837.906982	194.600000
837.941284	186.300000
837.975647	186.700000
838.010010	193.900000
838.044312	184.200000
838.078674	183.400000
838.112976	186.500000
838.147339	189.000000
838.181702	185.000000
838.216003	194.900000
838.250366	187.800000
838.284668	188.000000
838.318970	178.700000
838.353333	185.100000
838.387634	185.500000
838.421936	185.300000
838.456299	187.000000
838.490601	193.400000
838.524902	190.800000
838.559265	191.600000
838.593567	189.700000
838.627869	179.600000
838.662170	188.800000
838.696472	178.400000
838.730774	182.100000
838.765137	191.400000
838.799377	170.900000
838.833740	186.100000
838.868042	192.500000
838.902283	177.000000
838.936646	192.800000
838.970947	188.300000
839.005188	192.300000
839.039551	180.000000
839.073792	193.800000
839.108093	184.500000
839.142395	195.500000
839.176697	179.700000
839.210937	187.300000
839.245300	197.600000
839.279541	179.700000
839.313843	184.700000
839.348145	188.600000
839.382385	191.000000
839.416687	191.300000
839.450989	188.800000
839.485229	184.800000
839.519531	181.900000
839.553833	191.500000
839.588013	186.000000
839.622314	186.400000
839.656555	189.700000
839.690857	185.900000
839.725159	179.600000
839.759460	184.900000
839.793640	183.600000
839.827942	185.200000
839.862183	182.300000
839.896423	187.900000
839.930725	194.800000
839.964966	193.700000
839.999207	192.300000
840.033508	194.600000
840.067688	184.000000
840.101990	195.800000
840.136230	186.300000
840.170471	193.100000
840.204712	183.200000
840.238953	182.700000
840.273193	188.100000
840.307434	189.200000
840.341736	183.100000
840.375916	179.200000
840.410217	183.200000
840.444397	190.700000
840.478638	188.800000
840.512878	192.000000
840.547119	188.500000
840.581360	187.900000
840.615601	197.100000
840.649780	194.900000
840.684021	185.700000
840.718262	195.100000
840.752441	192.400000
840.786682	186.600000
840.820862	188.500000
840.855103	192.900000
840.889343	186.900000
840.923584	191.200000
840.957764	188.200000
840.992004	187.400000
841.026184	199.800000
841.060425	186.500000
841.094666	183.000000
841.128845	190.000000
841.163025	186.700000
841.197266	189.200000
841.231445	187.600000
841.265686	187.700000
841.299866	183.200000
841.334045	194.900000
841.368286	185.300000
841.402405	194.300000
841.436646	190.700000
841.470825	184.100000
841.505005	185.800000
841.539185	182.100000
841.573425	181.800000
841.607544	186.500000
841.641785	187.100000
841.675964	182.000000
841.710144	186.600000
841.744324	182.100000
841.778503	184.800000
841.812683	182.900000
841.846863	194.900000
841.881042	191.500000
841.915222	183.500000
841.949402	201.800000
841.983521	177.400000
842.017700	185.400000
842.051880	187.300000
842.086060	189.600000
842.120239	185.900000
842.154419	184.300000
842.188538	187.600000
842.222717	183.200000
842.256897	195.600000
842.291016	184.900000
842.325195	189.200000
842.359375	197.600000
842.393494	194.100000
842.427673	188.300000
842.461853	189.500000
842.495911	193.900000
842.530090	188.700000
842.564209	187.400000
842.598389	188.600000
842.632568	187.600000
842.666626	191.200000
842.700806	183.100000
842.734985	185.000000
842.769043	189.500000
842.803223	183.400000
842.837402	184.800000
842.871460	184.300000
842.905640	194.800000
842.939697	182.900000
842.973877	188.800000
843.007996	192.200000
843.042175	195.800000
843.076233	184.200000
843.110413	188.900000
843.144470	195.700000
843.178589	191.200000
843.212769	184.400000
843.246826	191.700000
843.280945	184.500000
843.315125	185.500000
843.349182	184.200000
843.383301	192.100000
843.417419	198.500000
843.451538	187.800000
843.485657	185.200000
843.519714	187.000000
843.553833	189.600000
843.587952	184.100000
843.622070	182.600000
843.656128	190.200000
843.690247	185.600000
843.724304	185.100000
843.758423	190.000000
843.792542	185.300000
843.826599	187.200000
843.860718	184.900000
843.894836	180.000000
843.928894	186.800000
843.963013	189.400000
843.997070	182.500000
844.031128	181.000000
844.065247	191.900000
844.099304	191.700000
844.133362	186.800000
844.167480	190.600000
844.201599	193.300000
844.235596	188.700000
844.269714	188.400000
844.303711	189.100000
844.337830	180.300000
844.371948	191.200000
844.405945	186.400000
844.440063	182.800000
844.474121	202.100000
844.508118	186.900000
844.542236	186.300000
844.576294	187.300000
844.610352	181.600000
844.644409	186.400000
844.678406	179.100000
844.712524	192.300000
844.746582	194.300000
844.780640	187.000000
844.814636	187.900000
844.848755	198.700000
844.882751	187.000000
844.916809	191.700000
844.950867	190.400000
844.984863	196.600000
845.018921	186.700000
845.052979	184.400000
845.086975	188.000000
845.121033	181.200000
845.155090	184.600000
845.189087	195.300000
845.223145	186.500000
845.257141	187.000000
845.291199	191.100000
845.325256	194.800000
845.359253	188.200000
845.393250	197.700000
845.427307	187.300000
845.461304	188.500000
845.495361	189.200000
845.529358	196.400000
845.563354	186.000000
845.597412	183.100000
845.631409	195.900000
845.665405	192.900000
845.699463	192.800000
845.733459	185.100000
845.767456	194.500000
845.801453	185.300000
845.835449	195.100000
845.869446	191.300000
845.903503	193.400000
845.937439	183.900000
845.971497	195.000000
846.005493	180.200000
846.039429	192.000000
846.073486	197.600000
846.107483	186.900000
846.141418	186.500000
846.175476	187.400000
846.209473	194.000000
846.243408	183.500000
846.277405	189.000000
846.311401	183.900000
846.345337	188.500000
846.379395	192.000000
846.413330	183.000000
846.447327	195.000000
846.481323	183.000000
846.515259	183.400000
846.549255	188.300000
846.583252	189.900000
846.617187	183.800000
846.651184	190.000000
846.685120	186.400000
846.719055	195.200000
846.753052	193.200000
846.786987	190.600000
846.820984	181.400000
846.854980	194.300000
846.888916	184.500000
846.922852	190.800000
846.956848	196.300000
846.990723	183.800000
847.024719	188.900000
847.058716	185.900000
847.092590	194.500000
847.126587	188.800000
847.160522	185.200000
847.194458	192.700000
847.228455	184.600000
847.262390	183.000000
847.296265	186.500000
847.330261	194.800000
847.364136	185.500000
847.398132	184.200000
847.432068	188.900000
847.466003	186.400000
847.499939	187.100000
847.533875	189.400000
847.567749	186.500000
847.601746	185.500000
847.635681	191.000000
847.669556	178.900000
847.703491	193.900000
847.737427	201.500000
847.771301	182.900000
847.805237	189.000000
847.839233	190.200000
847.873108	185.900000
847.907043	188.200000
847.940918	194.500000
847.974854	188.400000
848.008789	191.100000
848.042664	188.000000
848.076538	190.900000
848.110474	189.300000
848.144348	189.700000
848.178284	181.400000
848.212219	189.400000
848.246094	186.100000
848.279968	189.000000
848.313904	192.200000
848.347778	188.900000
848.381653	186.900000
848.415588	184.300000
848.449463	186.100000
848.483337	190.800000
848.517212	192.600000
848.551086	188.400000
848.585022	183.200000
848.618835	196.800000
848.652771	185.900000
848.686646	184.100000
848.720520	194.800000
848.754395	187.300000
848.788330	192.600000
848.822144	192.300000
848.856018	186.200000
848.889954	197.700000
848.923767	182.900000
848.957642	184.900000
848.991577	189.700000
849.025391	185.800000
849.059265	186.900000
849.093079	184.300000
849.126953	182.000000
849.160828	193.900000
849.194641	188.700000
849.228577	185.500000
849.262451	187.300000
849.296265	186.700000
849.330139	182.500000
849.364014	189.600000
849.397827	191.300000
849.431702	187.800000
849.465515	190.500000
849.499329	179.800000
849.533203	181.700000
849.567078	179.600000
849.600891	191.400000
849.634766	186.800000
849.668518	192.300000
849.702393	188.000000
849.736267	181.300000
849.770020	198.900000
849.803894	192.200000
849.837769	188.900000
849.871521	188.600000
849.905396	191.900000
849.939270	183.900000
849.973022	186.300000
850.006897	191.900000
850.040710	191.400000
850.074524	191.400000
850.108337	186.500000
850.142151	191.300000
850.175964	193.700000
850.209778	187.700000
850.243530	176.000000
850.277405	193.000000
850.311218	188.300000
850.344971	184.700000
850.378845	195.800000
850.412659	184.900000
850.446411	188.600000
850.480225	187.400000
850.514038	192.400000
850.547791	191.100000
850.581665	187.000000
850.615417	183.600000
850.649231	188.700000
850.683044	187.200000
850.716858	185.600000
850.750610	188.900000
850.784424	191.400000
850.818176	185.500000
850.851929	186.100000
850.885742	185.400000
850.919495	186.200000
850.953308	194.000000
850.987122	194.200000
851.020874	183.300000
851.054626	180.300000
851.088440	192.100000
851.122192	189.600000
851.156006	189.300000
851.189697	186.700000
851.223511	182.900000
851.257263	191.600000
851.291077	191.000000
851.324829	188.000000
851.358582	186.100000
851.392334	186.200000
851.426086	187.000000
851.459900	195.200000
851.493591	188.300000
851.527344	188.700000
851.561157	187.800000
851.594849	190.200000
851.628662	188.200000
851.662415	197.000000
851.696106	190.800000
851.729858	193.500000
851.763611	182.100000
851.797363	190.400000
851.831116	183.300000
851.864868	191.100000
851.898560	192.600000
851.932312	186.300000
851.966064	190.500000
851.999817	187.000000
852.033569	188.100000
852.067261	192.300000
852.101013	184.400000
852.134766	187.800000
852.168457	177.800000
852.202209	192.800000
852.235901	183.500000
852.269592	190.400000
852.303345	195.400000
852.337036	191.100000
852.370789	187.400000
852.404541	192.400000
852.438171	184.100000
852.471924	188.000000
852.505676	181.500000
852.539307	190.000000
852.573059	183.900000
852.606812	185.900000
852.640442	187.000000
852.674194	193.100000
852.707886	197.100000
852.741577	194.000000
852.775269	182.500000
852.809021	189.600000
852.842651	189.300000
852.876404	194.800000
852.910034	188.300000
852.943787	194.500000
852.977478	190.400000
853.011108	184.800000
853.044861	184.700000
853.078552	195.600000
853.112183	189.300000
853.145874	190.100000
853.179626	178.500000
853.213257	190.800000
853.246948	185.400000
853.280640	196.200000
853.314270	187.900000
853.347961	194.200000
853.381653	191.100000
853.415283	192.300000
853.448975	186.300000
853.482605	189.600000
853.516296	186.600000
853.549988	182.700000
853.583618	191.100000
853.617310	189.000000
853.651001	188.700000
853.684631	182.900000
853.718323	185.600000
853.751953	194.700000
853.785583	179.200000
853.819275	193.000000
853.852966	189.300000
853.886536	179.300000
853.920227	183.700000
853.953918	192.100000
853.987488	187.100000
854.021179	191.900000
854.054749	197.400000
854.088440	190.400000
854.122131	183.200000
854.155701	191.700000
854.189331	183.300000
854.223022	190.000000
854.256592	192.600000
854.290283	185.000000
854.323914	192.100000
854.357483	190.800000
854.391174	189.900000
854.424744	195.500000
854.458374	190.800000
854.492065	198.400000
854.525696	186.500000
854.559265	195.700000
854.592896	198.100000
854.626465	188.700000
854.660095	189.400000
854.693787	188.600000
854.727356	187.500000
854.760986	192.200000
854.794617	189.900000
854.828186	186.500000
854.861816	191.700000
854.895447	189.300000
854.929016	190.800000
854.962585	190.800000
854.996155	197.200000
855.029785	190.300000
855.063416	190.300000
855.097046	192.800000
855.130615	184.100000
855.164185	195.000000
855.197754	188.500000
855.231384	190.900000
855.264954	186.100000
855.298523	191.000000
855.332153	189.500000
855.365723	196.200000
855.399292	183.400000
855.432922	186.800000
855.466492	191.700000
855.500061	184.800000
855.533630	184.200000
855.567200	191.300000
855.600769	192.500000
855.634338	194.100000
855.667969	189.900000
855.701477	184.300000
855.735046	184.100000
855.768616	180.600000
855.802185	190.900000
855.835754	203.500000
855.869324	180.900000
855.902893	187.800000
855.936401	192.200000
855.969971	190.500000
856.003540	181.400000
856.037109	192.400000
856.070618	187.500000
856.104187	183.500000
856.137695	185.500000
856.171265	180.000000
856.204834	188.600000
856.238403	194.500000
856.271912	184.500000
856.305481	191.000000
856.338989	180.900000
856.372559	190.700000
856.406128	189.700000
856.439636	194.700000
856.473145	186.300000
856.506653	196.100000
856.540222	188.500000
856.573792	195.300000
856.607300	192.900000
856.640808	183.500000
856.674377	188.700000
856.707825	218.200000
856.741394	193.200000
856.774902	184.200000
856.808472	180.300000
856.841980	192.100000
856.875488	197.900000
856.908936	181.000000
856.942505	186.600000
856.976013	187.700000
857.009521	184.800000
857.043030	188.900000
857.076477	188.700000
857.110046	193.200000
857.143555	189.300000
857.177063	193.900000
857.210571	186.800000
857.244080	181.900000
857.277527	192.000000
857.311035	186.900000
857.344543	192.600000
857.378052	187.600000
857.411499	193.700000
857.445068	197.400000
857.478516	189.000000
857.512024	182.400000
857.545532	185.900000
857.578979	190.900000
857.612427	188.800000
857.645874	183.900000
857.679382	190.200000
857.712891	192.500000
857.746399	189.200000
857.779846	194.500000
857.813354	194.400000
857.846741	187.800000
857.880249	185.500000
857.913757	189.300000
857.947266	191.000000
857.980652	191.600000
858.014160	187.300000
858.047546	187.000000
858.081055	189.500000
858.114563	197.900000
858.147949	182.900000
858.181458	192.900000
858.214844	189.000000
858.248352	179.700000
858.281799	194.300000
858.315308	200.900000
858.348694	190.700000
858.382141	196.900000
858.415588	191.800000
858.449036	192.600000
858.482483	191.200000
858.515930	185.600000
858.549377	187.900000
858.582825	195.500000
858.616211	190.800000
858.649658	189.400000
858.683105	182.500000
858.716553	185.600000
858.750000	182.700000
858.783386	186.400000
858.816833	180.900000
858.850281	189.700000
858.883728	191.200000
858.917114	188.600000
858.950562	196.500000
858.983948	197.400000
859.017395	191.900000
859.050781	185.900000
859.084167	184.400000
859.117615	181.600000
859.151062	191.900000
859.184448	184.900000
859.217834	185.100000
859.251282	185.600000
859.284668	183.300000
859.318054	179.500000
859.351440	185.100000
859.384888	196.800000
859.418274	181.200000
859.451721	180.100000
859.485046	191.500000
859.518494	191.000000
859.551819	183.200000
859.585266	191.200000
859.618652	191.700000
859.652039	183.200000
859.685425	184.500000
859.718811	181.600000
859.752197	177.300000
859.785583	196.100000
859.819031	195.000000
859.852356	192.100000
859.885742	184.400000
859.919067	188.000000
859.952454	185.500000
859.985901	193.000000
860.019287	185.200000
860.052612	0.000000
860.085999	0.000000
860.119324	0.000000
860.152710	0.000000
860.186096	0.000000
860.219421	0.000000
860.252808	0.000000
860.286133	0.000000
860.319519	0.000000
860.352905	0.000000
860.386292	0.000000
860.419617	0.000000
860.452942	0.000000
860.486267	0.000000
860.519653	0.000000
860.553040	0.000000
860.586365	0.000000
860.619690	0.000000
860.653076	0.000000
860.686340	0.000000
860.719727	0.000000
860.753113	0.000000
860.786377	0.000000
860.819763	0.000000
860.853027	0.000000
860.886414	0.000000
860.919739	0.000000
860.953125	0.000000
860.986389	0.000000
861.019714	0.000000
861.053040	0.000000
861.086365	0.000000
861.119690	0.000000
861.153076	0.000000
861.186340	0.000000
861.219666	0.000000
861.252930	0.000000
861.286316	0.000000
861.319641	0.000000
861.352905	0.000000
861.386230	0.000000
861.419495	0.000000
861.452820	0.000000
861.486145	0.000000
861.519470	0.000000
861.552734	0.000000
861.586060	0.000000
861.619324	0.000000
861.652649	0.000000
861.685974	0.000000
861.719238	0.000000
861.752563	0.000000
861.785828	0.000000
861.819092	0.000000
861.852417	0.000000
861.885742	0.000000
861.918945	0.000000
861.952271	0.000000
861.985535	0.000000
862.018799	0.000000
862.052124	0.000000
862.085449	0.000000
862.118652	0.000000
862.151978	0.000000
862.185181	0.000000
862.218506	0.000000
862.251770	0.000000
862.285034	0.000000
862.318298	0.000000
862.351562	0.000000
862.384827	0.000000
862.418091	0.000000
862.451355	0.000000
862.484619	0.000000
862.517883	0.000000
862.551086	0.000000
862.584351	0.000000
862.617676	0.000000
862.650940	0.000000
862.684143	0.000000
862.717407	0.000000
862.750610	0.000000
862.783875	0.000000
862.817139	0.000000
862.850342	0.000000
862.883606	0.000000
862.916870	0.000000
862.950073	0.000000
862.983337	0.000000
863.016602	0.000000
863.049805	0.000000
863.083069	0.000000
863.116211	0.000000
863.149475	0.000000
863.182739	0.000000
863.216003	0.000000
863.249146	0.000000
863.282410	0.000000
863.315613	0.000000
863.348816	0.000000
863.382080	0.000000
863.415222	0.000000
863.448486	0.000000
863.481689	0.000000
863.514893	0.000000
863.548157	0.000000
863.581360	0.000000
863.614502	0.000000
863.647766	0.000000
863.680908	0.000000
863.714172	0.000000
863.747375	0.000000
863.780579	0.000000
863.813721	0.000000
863.846985	0.000000
863.880127	0.000000
863.913330	0.000000
863.946533	0.000000
863.979675	0.000000
864.012939	0.000000
