Model Number: SPM-001-M   
Serial Number: 10090201
Firmware Version: 004.17.6
Exposure Time: 500000.000000us
Data Taken on: 03-03-2021 10:04:25.161
Wavelength	Amplitude
733.770752	0.000000
733.808716	0.000000
733.846619	0.000000
733.884583	0.000000
733.922546	0.000000
733.960449	0.000000
733.998413	0.000000
734.036377	0.000000
734.074219	0.000000
734.112183	0.000000
734.150085	0.000000
734.188049	0.000000
734.226013	0.000000
734.263916	0.000000
734.301819	0.000000
734.339783	0.000000
734.377686	0.000000
734.415588	0.000000
734.453552	0.000000
734.491455	0.000000
734.529419	0.000000
734.567322	0.000000
734.605225	0.000000
734.643127	0.000000
734.681091	0.000000
734.718994	0.000000
734.756897	0.000000
734.794800	0.000000
734.832703	0.000000
734.870667	0.000000
734.908508	0.000000
734.946472	0.000000
734.984375	0.000000
735.022278	0.000000
735.060181	0.000000
735.098083	0.000000
735.135986	0.000000
735.173889	0.000000
735.211792	0.000000
735.249695	0.000000
735.287598	0.000000
735.325439	0.000000
735.363403	0.000000
735.401306	0.000000
735.439148	0.000000
735.477051	0.000000
735.515015	0.000000
735.552856	0.000000
735.590759	0.000000
735.628662	0.000000
735.666504	0.000000
735.704407	0.000000
735.742310	0.000000
735.780212	0.000000
735.818115	0.000000
735.856018	0.000000
735.893860	0.000000
735.931763	0.000000
735.969604	0.000000
736.007507	0.000000
736.045410	0.000000
736.083252	0.000000
736.121094	0.000000
736.158997	0.000000
736.196838	0.000000
736.234741	0.000000
736.272644	0.000000
736.310486	0.000000
736.348389	0.000000
736.386230	0.000000
736.424072	0.000000
736.461975	0.000000
736.499878	0.000000
736.537720	0.000000
736.575562	0.000000
736.613403	0.000000
736.651306	0.000000
736.689148	0.000000
736.726990	0.000000
736.764893	0.000000
736.802734	0.000000
736.840576	0.000000
736.878418	0.000000
736.916321	0.000000
736.954102	0.000000
736.992004	0.000000
737.029846	0.000000
737.067688	0.000000
737.105530	0.000000
737.143372	0.000000
737.181213	0.000000
737.219116	0.000000
737.256897	0.000000
737.294739	0.000000
737.332642	0.000000
737.370422	0.000000
737.408325	0.000000
737.446167	0.000000
737.483948	0.000000
737.521790	0.000000
737.559692	0.000000
737.597473	0.000000
737.635315	0.000000
737.673157	0.000000
737.710999	0.000000
737.748840	0.000000
737.786621	0.000000
737.824463	0.000000
737.862305	0.000000
737.900085	0.000000
737.937927	0.000000
737.975769	0.000000
738.013550	0.000000
738.051392	0.000000
738.089233	0.000000
738.127014	0.000000
738.164856	0.000000
738.202698	0.000000
738.240479	0.000000
738.278320	0.000000
738.316162	0.000000
738.353943	0.000000
738.391785	0.000000
738.429565	0.000000
738.467407	0.000000
738.505188	0.000000
738.542969	0.000000
738.580811	0.000000
738.618652	0.000000
738.656372	0.000000
738.694214	0.000000
738.732056	0.000000
738.769836	0.000000
738.807617	0.000000
738.845459	0.000000
738.883240	0.000000
738.921021	0.000000
738.958862	0.000000
738.996582	0.000000
739.034424	0.000000
739.072205	0.000000
739.109985	0.000000
739.147827	0.000000
739.185547	0.000000
739.223389	0.000000
739.261169	0.000000
739.298889	0.000000
739.336731	0.000000
739.374512	0.000000
739.412292	0.000000
739.450073	0.000000
739.487854	0.000000
739.525635	0.000000
739.563416	0.000000
739.601135	0.000000
739.638977	0.000000
739.676758	0.000000
739.714478	0.000000
739.752258	0.000000
739.790100	0.000000
739.827820	0.000000
739.865601	0.000000
739.903381	0.000000
739.941101	0.000000
739.978882	190.200000
740.016724	185.400000
740.054443	191.300000
740.092224	183.900000
740.130005	182.900000
740.167725	183.700000
740.205505	182.700000
740.243225	192.500000
740.281006	187.700000
740.318787	179.100000
740.356506	193.500000
740.394287	190.900000
740.432068	182.800000
740.469727	179.300000
740.507507	189.800000
740.545288	185.700000
740.583008	189.100000
740.620789	187.700000
740.658569	178.400000
740.696228	185.000000
740.734009	191.600000
740.771790	175.100000
740.809509	189.900000
740.847229	182.700000
740.884949	184.100000
740.922729	178.700000
740.960449	184.800000
740.998169	181.400000
741.035950	181.300000
741.073669	188.200000
741.111389	185.300000
741.149170	195.900000
741.186890	196.600000
741.224609	190.300000
741.262329	189.600000
741.300110	197.600000
741.337769	182.100000
741.375549	179.100000
741.413208	189.100000
741.450989	182.500000
741.488708	183.900000
741.526367	185.100000
741.564148	191.000000
741.601868	190.900000
741.639526	185.700000
741.677307	186.600000
741.715027	189.000000
741.752686	181.200000
741.790466	192.500000
741.828186	188.500000
741.865845	182.800000
741.903564	178.800000
741.941345	186.600000
741.979004	181.800000
742.016724	190.600000
742.054382	186.700000
742.092102	192.100000
742.129822	178.600000
742.167480	184.700000
742.205200	184.400000
742.242920	188.300000
742.280640	191.800000
742.318359	183.300000
742.356079	185.500000
742.393738	189.400000
742.431396	185.900000
742.469116	189.400000
742.506775	176.600000
742.544495	188.900000
742.582214	190.100000
742.619873	186.000000
742.657593	193.600000
742.695251	191.400000
742.732971	186.200000
742.770630	187.800000
742.808289	186.600000
742.846008	186.100000
742.883728	188.200000
742.921326	186.800000
742.959045	184.100000
742.996765	186.300000
743.034424	187.100000
743.072083	184.700000
743.109802	188.500000
743.147400	180.400000
743.185120	187.600000
743.222839	186.600000
743.260437	191.000000
743.298157	189.100000
743.335754	178.200000
743.373474	184.900000
743.411133	178.400000
743.448792	186.100000
743.486450	185.000000
743.524170	178.200000
743.561768	186.600000
743.599487	193.500000
743.637146	197.300000
743.674744	185.200000
743.712463	184.500000
743.750122	187.500000
743.787720	189.100000
743.825439	183.400000
743.863037	184.200000
743.900696	185.400000
743.938416	210.700000
743.976013	185.000000
744.013672	194.500000
744.051331	190.900000
744.088928	194.600000
744.126587	194.000000
744.164307	187.700000
744.201904	183.900000
744.239563	188.900000
744.277222	189.500000
744.314819	186.000000
744.352478	194.500000
744.390137	188.600000
744.427734	187.800000
744.465393	184.300000
744.502991	181.700000
744.540649	188.700000
744.578308	187.300000
744.615906	182.000000
744.653564	176.300000
744.691223	190.200000
744.728821	178.800000
744.766418	186.900000
744.804077	189.000000
744.841675	183.400000
744.879333	180.400000
744.916992	186.000000
744.954529	183.800000
744.992187	190.500000
745.029785	184.200000
745.067444	183.400000
745.105042	187.000000
745.142639	187.600000
745.180298	196.800000
745.217896	184.800000
745.255493	185.400000
745.293152	190.800000
745.330750	190.500000
745.368347	195.700000
745.405945	189.600000
745.443604	187.600000
745.481140	189.900000
745.518799	184.700000
745.556396	189.700000
745.593994	189.900000
745.631592	185.300000
745.669189	181.600000
745.706787	188.500000
745.744385	183.300000
745.781982	188.300000
745.819580	184.900000
745.857178	185.200000
745.894775	186.900000
745.932373	188.200000
745.969971	188.100000
746.007568	177.900000
746.045166	195.400000
746.082764	191.000000
746.120300	188.600000
746.157898	189.600000
746.195557	187.100000
746.233093	179.600000
746.270691	190.200000
746.308228	187.900000
746.345825	190.800000
746.383423	190.500000
746.420959	182.400000
746.458557	183.800000
746.496155	185.300000
746.533691	185.500000
746.571289	182.300000
746.608887	187.000000
746.646423	187.700000
746.684021	187.300000
746.721619	185.100000
746.759155	187.400000
746.796753	179.400000
746.834351	180.600000
746.871826	182.100000
746.909424	193.400000
746.946960	188.600000
746.984558	184.000000
747.022156	183.600000
747.059631	194.500000
747.097229	189.000000
747.134827	184.400000
747.172363	192.900000
747.209900	188.200000
747.247498	180.800000
747.285034	192.900000
747.322571	193.200000
747.360168	185.400000
747.397644	179.900000
747.435242	190.400000
747.472778	192.500000
747.510315	184.100000
747.547913	183.800000
747.585388	193.700000
747.622925	185.100000
747.660522	178.600000
747.697998	182.900000
747.735596	185.600000
747.773132	184.100000
747.810669	186.800000
747.848206	190.000000
747.885742	182.900000
747.923279	181.600000
747.960815	188.300000
747.998352	187.200000
748.035889	192.000000
748.073425	190.500000
748.110901	183.900000
748.148437	182.000000
748.185974	187.300000
748.223511	196.300000
748.261047	188.200000
748.298584	186.700000
748.336060	186.600000
748.373596	189.800000
748.411133	206.200000
748.448608	182.600000
748.486145	191.700000
748.523682	193.800000
748.561218	192.800000
748.598755	187.900000
748.636292	189.100000
748.673706	184.800000
748.711243	194.700000
748.748718	188.100000
748.786255	187.800000
748.823792	186.000000
748.861267	182.300000
748.898804	189.100000
748.936340	189.600000
748.973816	183.900000
749.011292	192.200000
749.048828	187.800000
749.086304	188.900000
749.123840	196.400000
749.161316	182.600000
749.198792	195.500000
749.236328	193.000000
749.273743	187.000000
749.311279	185.800000
749.348816	189.700000
749.386230	186.700000
749.423767	176.100000
749.461304	189.300000
749.498718	188.000000
749.536255	193.000000
749.573730	196.800000
749.611206	191.500000
749.648682	186.900000
749.686218	187.200000
749.723633	191.300000
749.761169	183.600000
749.798645	181.900000
749.836060	185.100000
749.873596	182.700000
749.911011	187.600000
749.948547	193.300000
749.986023	186.600000
750.023437	185.200000
750.060913	180.600000
750.098450	180.600000
750.135864	185.800000
750.173340	186.000000
750.210815	190.700000
750.248291	183.300000
750.285767	187.800000
750.323242	193.100000
750.360657	189.700000
750.398132	183.200000
750.435608	189.400000
750.473022	182.000000
750.510498	182.100000
750.547974	181.500000
750.585449	184.900000
750.622925	177.100000
750.660339	196.100000
750.697815	187.100000
750.735291	186.500000
750.772644	187.600000
750.810120	188.000000
750.847595	190.100000
750.885010	182.900000
750.922485	195.700000
750.959961	185.500000
750.997375	194.000000
751.034851	189.800000
751.072266	191.200000
751.109680	179.600000
751.147156	191.300000
751.184570	189.200000
751.221985	187.700000
751.259460	177.400000
751.296875	187.400000
751.334290	187.100000
751.371765	190.300000
751.409180	190.200000
751.446594	192.700000
751.484070	190.100000
751.521423	188.200000
751.558899	188.200000
751.596375	194.800000
751.633728	193.300000
751.671204	199.400000
751.708618	182.800000
751.746033	188.400000
751.783447	181.300000
751.820801	181.800000
751.858276	189.700000
751.895691	186.300000
751.933105	185.700000
751.970520	183.600000
752.007935	185.300000
752.045349	191.800000
752.082764	185.100000
752.120178	185.000000
752.157532	183.500000
752.195007	184.600000
752.232422	189.700000
752.269775	190.900000
752.307190	189.700000
752.344543	183.300000
752.382019	186.700000
752.419434	186.100000
752.456787	189.700000
752.494202	191.600000
752.531616	188.300000
752.568970	190.700000
752.606384	187.100000
752.643799	188.400000
752.681152	195.400000
752.718567	189.200000
752.755981	180.100000
752.793335	191.000000
752.830750	180.400000
752.868164	193.100000
752.905518	182.800000
752.942932	191.100000
752.980225	183.300000
753.017639	191.900000
753.055054	186.100000
753.092407	189.100000
753.129822	191.700000
753.167175	197.100000
753.204529	186.700000
753.241943	184.100000
753.279358	181.100000
753.316650	190.000000
753.354065	188.400000
753.391479	191.800000
753.428772	195.900000
753.466187	190.900000
753.503479	182.300000
753.540894	185.000000
753.578308	182.300000
753.615601	182.100000
753.653015	186.600000
753.690369	185.000000
753.727722	182.800000
753.765076	180.700000
753.802490	182.500000
753.839783	178.900000
753.877136	183.900000
753.914551	200.300000
753.951843	181.500000
753.989258	191.100000
754.026611	188.300000
754.063904	188.800000
754.101257	182.900000
754.138611	179.300000
754.175964	187.500000
754.213318	199.700000
754.250610	179.700000
754.288025	185.600000
754.325378	182.100000
754.362671	192.700000
754.400024	184.900000
754.437378	196.700000
754.474670	197.000000
754.512085	183.800000
754.549438	186.800000
754.586731	184.400000
754.624084	185.500000
754.661438	183.000000
754.698730	194.900000
754.736084	185.100000
754.773376	186.200000
754.810730	189.900000
754.848083	184.800000
754.885315	190.700000
754.922668	180.300000
754.960022	181.400000
754.997314	191.300000
755.034668	186.800000
755.072021	186.300000
755.109253	183.800000
755.146606	193.800000
755.183960	183.900000
755.221252	193.600000
755.258545	191.000000
755.295898	191.800000
755.333191	192.900000
755.370544	189.800000
755.407776	185.500000
755.445129	186.900000
755.482422	191.700000
755.519714	184.400000
755.557068	179.200000
755.594360	179.500000
755.631653	191.000000
755.668945	196.600000
755.706299	188.400000
755.743530	197.700000
755.780884	194.200000
755.818176	192.000000
755.855408	191.600000
755.892761	187.900000
755.930054	188.300000
755.967346	189.100000
756.004639	190.100000
756.041870	188.100000
756.079224	191.400000
756.116516	184.100000
756.153748	191.000000
756.191040	193.700000
756.228394	190.000000
756.265625	183.200000
756.302917	187.700000
756.340210	183.500000
756.377441	192.500000
756.414795	195.100000
756.452087	185.800000
756.489319	182.200000
756.526611	191.000000
756.563843	190.100000
756.601135	197.700000
756.638428	196.800000
756.675659	186.500000
756.712952	192.400000
756.750244	191.200000
756.787476	189.300000
756.824768	196.200000
756.862061	185.200000
756.899292	235.400000
756.936584	192.200000
756.973816	197.900000
757.011047	199.300000
757.048340	190.500000
757.085632	189.300000
757.122864	205.300000
757.160156	186.300000
757.197327	191.400000
757.234619	194.500000
757.271912	187.700000
757.309082	193.600000
757.346375	186.300000
757.383667	195.200000
757.420837	190.300000
757.458130	190.800000
757.495422	187.800000
757.532593	192.100000
757.569885	183.800000
757.607117	186.300000
757.644348	192.500000
757.681580	203.800000
757.718811	179.600000
757.756042	191.000000
757.793335	187.000000
757.830505	192.300000
757.867798	188.100000
757.905029	186.600000
757.942200	192.400000
757.979492	186.700000
758.016724	189.100000
758.053894	188.400000
758.091187	208.400000
758.128418	191.300000
758.165588	188.700000
758.202820	203.300000
758.240112	188.600000
758.277283	201.000000
758.314514	191.800000
758.351685	188.100000
758.388916	200.600000
758.426147	198.200000
758.463379	201.700000
758.500610	196.300000
758.537842	192.900000
758.575012	198.100000
758.612244	187.600000
758.649475	205.800000
758.686646	185.100000
758.723877	199.800000
758.761108	198.900000
758.798279	192.600000
758.835510	194.000000
758.872742	199.300000
758.909851	193.900000
758.947083	195.500000
758.984253	195.900000
759.021484	198.500000
759.058716	197.700000
759.095886	198.200000
759.133057	194.100000
759.170288	197.000000
759.207458	190.900000
759.244690	204.900000
759.281860	203.300000
759.319031	194.700000
759.356262	192.600000
759.393433	193.900000
759.430603	193.000000
759.467773	194.700000
759.505005	201.000000
759.542175	201.000000
759.579346	195.300000
759.616516	197.100000
759.653687	199.500000
759.690918	194.200000
759.728027	197.800000
759.765259	198.100000
759.802429	200.800000
759.839539	200.700000
759.876770	204.200000
759.913940	208.000000
759.951111	199.700000
759.988281	197.400000
760.025452	194.800000
760.062561	194.700000
760.099792	207.200000
760.136963	200.600000
760.174072	198.100000
760.211243	192.400000
760.248413	194.000000
760.285583	194.500000
760.322754	209.500000
760.359863	204.200000
760.397034	205.600000
760.434204	198.000000
760.471375	200.200000
760.508545	198.100000
760.545715	198.500000
760.582825	195.100000
760.619995	205.200000
760.657166	194.500000
760.694275	205.700000
760.731445	201.500000
760.768555	202.200000
760.805664	204.400000
760.842834	203.300000
760.879944	203.100000
760.917114	202.200000
760.954285	199.700000
760.991394	194.700000
761.028564	206.500000
761.065674	205.000000
761.102783	197.500000
761.139954	205.400000
761.177124	206.500000
761.214172	207.600000
761.251343	201.200000
761.288452	201.700000
761.325562	205.000000
761.362732	199.500000
761.399841	201.200000
761.436951	203.000000
761.474121	197.900000
761.511169	203.100000
761.548340	206.700000
761.585449	205.800000
761.622559	207.400000
761.659668	204.300000
761.696838	208.800000
761.733887	204.500000
761.771057	201.700000
761.808167	202.300000
761.845276	207.100000
761.882385	215.900000
761.919434	204.900000
761.956604	223.300000
761.993713	200.200000
762.030762	211.800000
762.067871	204.000000
762.105042	204.000000
762.142090	211.200000
762.179199	206.600000
762.216309	210.900000
762.253418	221.400000
762.290527	215.400000
762.327637	212.200000
762.364685	202.500000
762.401794	211.900000
762.438904	210.100000
762.475952	206.500000
762.513062	203.800000
762.550110	204.800000
762.587219	219.000000
762.624329	217.500000
762.661377	212.000000
762.698486	211.700000
762.735596	209.900000
762.772644	205.100000
762.809753	202.500000
762.846863	209.800000
762.883911	215.300000
762.921021	213.700000
762.958069	212.000000
762.995117	218.500000
763.032227	219.500000
763.069336	208.300000
763.106323	205.500000
763.143433	204.700000
763.180481	215.700000
763.217590	214.300000
763.254639	212.300000
763.291687	210.100000
763.328735	219.700000
763.365845	212.300000
763.402893	211.000000
763.439941	214.100000
763.477051	216.300000
763.514038	217.400000
763.551147	211.900000
763.588196	214.800000
763.625244	214.200000
763.662292	222.400000
763.699402	224.400000
763.736389	218.000000
763.773499	226.700000
763.810486	219.500000
763.847534	217.600000
763.884644	219.100000
763.921631	213.900000
763.958679	227.900000
763.995728	217.900000
764.032776	225.600000
764.069824	213.900000
764.106873	223.500000
764.143860	228.100000
764.180969	217.400000
764.218018	226.400000
764.255005	218.100000
764.292053	217.900000
764.329102	229.500000
764.366089	228.600000
764.403137	227.700000
764.440125	218.300000
764.477173	223.800000
764.514221	224.600000
764.551208	224.200000
764.588257	218.900000
764.625305	228.300000
764.662292	234.000000
764.699341	235.700000
764.736389	226.700000
764.773376	242.900000
764.810425	230.500000
764.847473	237.800000
764.884399	231.700000
764.921448	240.000000
764.958435	238.700000
764.995483	229.500000
765.032532	245.400000
765.069458	230.400000
765.106506	230.800000
765.143555	230.900000
765.180481	233.700000
765.217529	242.200000
765.254578	227.100000
765.291504	237.700000
765.328552	234.300000
765.365540	230.600000
765.402527	244.800000
765.439575	232.400000
765.476501	228.400000
765.513550	231.000000
765.550537	236.500000
765.587463	244.300000
765.624512	234.200000
765.661499	227.200000
765.698486	241.600000
765.735474	233.300000
765.772461	235.900000
765.809448	243.500000
765.846436	241.500000
765.883423	247.000000
765.920410	240.000000
765.957397	235.500000
765.994385	242.200000
766.031311	253.400000
766.068359	244.800000
766.105286	243.400000
766.142273	249.600000
766.179260	244.700000
766.216187	238.900000
766.253174	237.100000
766.290161	245.600000
766.327148	246.600000
766.364136	248.700000
766.401123	264.300000
766.438049	240.700000
766.475037	254.800000
766.512024	252.100000
766.548950	262.800000
766.585937	257.700000
766.622864	252.300000
766.659790	249.900000
766.696777	240.700000
766.733704	255.300000
766.770691	246.100000
766.807678	258.500000
766.844604	254.800000
766.881531	253.600000
766.918518	257.300000
766.955444	260.900000
766.992432	252.800000
767.029358	257.100000
767.066284	258.600000
767.103271	256.300000
767.140198	285.100000
767.177124	271.300000
767.214050	261.600000
767.251038	261.900000
767.287964	255.900000
767.324890	256.000000
767.361816	259.900000
767.398743	265.600000
767.435730	259.200000
767.472595	264.400000
767.509583	269.700000
767.546509	257.200000
767.583374	262.200000
767.620361	254.100000
767.657288	261.900000
767.694214	263.700000
767.731140	261.500000
767.768066	260.900000
767.804993	264.300000
767.841919	255.800000
767.878845	264.500000
767.915710	271.500000
767.952698	266.000000
767.989563	268.700000
768.026489	269.600000
768.063416	262.200000
768.100281	260.900000
768.137207	273.900000
768.174133	270.200000
768.211060	271.000000
768.247986	270.300000
768.284912	267.100000
768.321777	268.100000
768.358704	266.700000
768.395630	271.700000
768.432495	263.900000
768.469421	270.600000
768.506348	274.500000
768.543152	280.500000
768.580078	278.600000
768.616943	279.500000
768.653870	281.500000
768.690796	277.500000
768.727661	276.600000
768.764587	278.000000
768.801453	274.200000
768.838318	282.800000
768.875244	278.800000
768.912109	283.700000
768.948975	276.200000
768.985901	281.400000
769.022766	277.600000
769.059631	283.300000
769.096558	275.100000
769.133362	278.500000
769.170288	279.200000
769.207214	277.500000
769.244019	283.500000
769.280945	284.600000
769.317810	291.100000
769.354675	284.600000
769.391541	294.300000
769.428406	290.900000
769.465271	296.900000
769.502136	288.000000
769.539062	291.500000
769.575867	290.200000
769.612732	294.900000
769.649597	298.400000
769.686462	299.000000
769.723328	293.800000
769.760193	292.000000
769.797058	294.900000
769.833923	301.700000
769.870728	297.900000
769.907593	299.900000
769.944519	298.500000
769.981323	302.100000
770.018188	304.100000
770.055054	301.700000
770.091858	300.200000
770.128723	310.100000
770.165588	316.700000
770.202393	300.800000
770.239258	313.800000
770.276062	309.800000
770.312927	309.000000
770.349792	316.000000
770.386597	313.900000
770.423462	323.900000
770.460327	329.700000
770.497131	315.300000
770.533997	309.000000
770.570862	325.700000
770.607605	324.600000
770.644470	319.300000
770.681335	321.800000
770.718140	323.800000
770.754944	314.900000
770.791809	317.700000
770.828613	318.800000
770.865479	322.500000
770.902222	331.400000
770.939087	325.800000
770.975952	316.400000
771.012695	322.200000
771.049561	337.400000
771.086365	326.200000
771.123169	324.300000
771.159973	327.200000
771.196838	329.600000
771.233582	333.100000
771.270447	329.400000
771.307251	335.000000
771.344055	330.300000
771.380859	337.700000
771.417664	329.600000
771.454468	340.100000
771.491272	337.900000
771.528076	340.100000
771.564880	337.800000
771.601685	343.500000
771.638428	332.900000
771.675293	341.300000
771.712097	332.500000
771.748840	350.400000
771.785645	341.000000
771.822449	343.900000
771.859253	347.300000
771.896057	345.500000
771.932861	354.700000
771.969604	344.500000
772.006409	338.100000
772.043213	350.800000
772.079956	346.600000
772.116760	341.100000
772.153503	347.200000
772.190308	357.300000
772.227112	347.300000
772.263855	344.100000
772.300659	349.200000
772.337463	358.300000
772.374207	349.500000
772.411011	342.100000
772.447754	346.000000
772.484497	363.900000
772.521301	355.800000
772.558105	354.600000
772.594849	357.200000
772.631592	360.200000
772.668396	360.200000
772.705139	365.500000
772.741882	361.300000
772.778625	372.200000
772.815430	370.000000
772.852173	365.600000
772.888916	373.000000
772.925720	374.800000
772.962463	381.800000
772.999207	372.900000
773.035950	378.700000
773.072754	377.200000
773.109436	369.800000
773.146240	372.900000
773.182922	370.000000
773.219727	379.000000
773.256470	377.900000
773.293152	365.800000
773.329956	372.200000
773.366699	377.900000
773.403381	367.500000
773.440186	374.300000
773.476929	381.000000
773.513611	372.000000
773.550354	374.100000
773.587158	374.200000
773.623840	370.000000
773.660583	376.600000
773.697327	388.700000
773.734009	380.700000
773.770813	381.400000
773.807495	375.500000
773.844238	379.700000
773.880981	391.600000
773.917664	389.400000
773.954407	395.800000
773.991150	384.100000
774.027832	390.500000
774.064575	381.400000
774.101318	390.700000
774.138000	392.900000
774.174744	387.800000
774.211487	391.100000
774.248108	378.500000
774.284851	378.100000
774.321594	388.700000
774.358276	393.400000
774.395020	400.800000
774.431702	394.600000
774.468384	390.400000
774.505127	385.100000
774.541809	394.500000
774.578491	400.000000
774.615234	403.000000
774.651917	392.800000
774.688599	399.200000
774.725342	409.100000
774.762024	404.700000
774.798706	411.300000
774.835449	409.200000
774.872070	416.100000
774.908813	414.500000
774.945496	411.100000
774.982178	413.000000
775.018860	413.100000
775.055542	415.500000
775.092224	414.700000
775.128967	422.700000
775.165588	421.100000
775.202271	413.900000
775.239014	423.300000
775.275635	423.800000
775.312317	419.700000
775.349060	425.700000
775.385681	424.100000
775.422363	417.700000
775.459045	424.700000
775.495667	426.500000
775.532410	431.200000
775.569092	431.500000
775.605713	435.200000
775.642395	433.000000
775.679016	432.800000
775.715698	434.800000
775.752380	436.200000
775.789001	429.100000
775.825684	428.000000
775.862366	432.000000
775.898987	446.500000
775.935669	433.700000
775.972351	452.500000
776.008972	453.300000
776.045654	453.300000
776.082336	449.200000
776.118958	447.400000
776.155640	450.900000
776.192322	458.300000
776.228882	459.700000
776.265564	461.700000
776.302185	458.100000
776.338867	466.600000
776.375488	453.300000
776.412109	466.000000
776.448792	469.900000
776.485413	478.200000
776.522034	468.300000
776.558716	466.400000
776.595337	466.800000
776.631958	472.500000
776.668579	474.300000
776.705261	481.300000
776.741882	477.700000
776.778503	479.700000
776.815186	475.700000
776.851746	483.300000
776.888367	483.400000
776.924988	489.800000
776.961609	478.300000
776.998291	482.600000
777.034851	476.800000
777.071472	487.700000
777.108154	485.600000
777.144714	497.100000
777.181335	494.000000
777.218018	483.900000
777.254578	491.800000
777.291199	492.900000
777.327759	496.300000
777.364380	504.500000
777.401062	511.100000
777.437622	521.400000
777.474243	511.400000
777.510864	519.200000
777.547424	513.800000
777.584045	514.200000
777.620667	516.100000
777.657227	514.900000
777.693848	516.400000
777.730469	536.100000
777.767029	524.000000
777.803650	530.500000
777.840271	524.500000
777.876831	526.600000
777.913452	535.000000
777.950012	514.700000
777.986633	514.400000
778.023193	511.500000
778.059753	509.200000
778.096375	512.300000
778.132996	528.200000
778.169556	517.300000
778.206116	520.100000
778.242737	514.400000
778.279297	525.000000
778.315857	517.600000
778.352478	525.400000
778.389038	532.500000
778.425598	531.400000
778.462219	537.400000
778.498718	532.600000
778.535339	541.500000
778.571838	540.500000
778.608459	544.900000
778.645020	536.300000
778.681580	540.400000
778.718140	542.800000
778.754761	535.800000
778.791260	540.900000
778.827881	549.600000
778.864441	550.800000
778.900940	557.600000
778.937561	558.000000
778.974121	558.300000
779.010620	543.100000
779.047241	548.700000
779.083801	558.900000
779.120300	554.400000
779.156860	558.200000
779.193359	552.200000
779.229980	553.600000
779.266541	555.900000
779.303040	557.900000
779.339600	551.000000
779.376160	546.300000
779.412659	546.000000
779.449219	542.200000
779.485779	551.300000
779.522278	549.800000
779.558838	555.700000
779.595398	556.100000
779.631897	554.800000
779.668457	549.700000
779.705017	558.600000
779.741516	546.000000
779.778076	544.300000
779.814575	552.700000
779.851074	554.400000
779.887634	549.300000
779.924133	561.800000
779.960693	545.800000
779.997253	557.300000
780.033691	562.200000
780.070251	562.500000
780.106812	574.200000
780.143250	572.200000
780.179810	565.000000
780.216370	565.000000
780.252808	572.400000
780.289368	577.500000
780.325867	576.300000
780.362366	576.200000
780.398865	583.800000
780.435364	579.800000
780.471863	590.300000
780.508423	585.900000
780.544861	590.000000
780.581421	594.900000
780.617920	583.200000
780.654419	581.800000
780.690918	587.800000
780.727417	595.800000
780.763916	594.200000
780.800415	601.700000
780.836914	589.400000
780.873352	599.700000
780.909912	588.500000
780.946411	594.600000
780.982849	604.700000
781.019348	613.800000
781.055786	607.100000
781.092346	603.200000
781.128845	609.000000
781.165283	610.000000
781.201782	621.200000
781.238281	623.700000
781.274719	630.000000
781.311218	623.000000
781.347717	631.300000
781.384155	617.000000
781.420654	620.300000
781.457092	631.100000
781.493591	624.800000
781.530090	620.400000
781.566528	626.300000
781.602966	629.200000
781.639465	625.000000
781.675903	621.400000
781.712402	631.000000
781.748901	634.700000
781.785278	624.900000
781.821777	632.300000
781.858276	629.100000
781.894714	644.400000
781.931152	635.700000
781.967651	647.500000
782.004089	644.000000
782.040527	653.600000
782.076965	654.500000
782.113403	652.200000
782.149902	659.200000
782.186340	648.700000
782.222778	667.100000
782.259277	652.200000
782.295654	655.100000
782.332092	662.000000
782.368591	665.700000
782.404968	658.000000
782.441467	665.600000
782.477905	670.200000
782.514282	665.200000
782.550781	676.700000
782.587219	675.800000
782.623596	680.200000
782.660095	690.300000
782.696472	697.400000
782.732910	697.300000
782.769348	696.000000
782.805786	715.100000
782.842224	710.600000
782.878662	708.900000
782.915039	706.300000
782.951477	711.300000
782.987915	707.900000
783.024292	711.200000
783.060730	714.700000
783.097168	705.400000
783.133545	700.700000
783.169983	699.000000
783.206421	691.100000
783.242798	690.500000
783.279236	680.000000
783.315613	676.000000
783.352051	674.500000
783.388489	668.800000
783.424866	661.300000
783.461304	672.800000
783.497681	680.900000
783.534058	674.300000
783.570496	671.800000
783.606934	667.200000
783.643250	674.200000
783.679687	684.700000
783.716125	677.100000
783.752441	692.300000
783.788879	707.500000
783.825317	715.200000
783.861633	717.600000
783.898071	723.900000
783.934448	733.900000
783.970825	747.600000
784.007263	747.300000
784.043579	753.400000
784.080017	759.600000
784.116394	750.200000
784.152710	754.100000
784.189148	758.500000
784.225525	760.300000
784.261902	749.200000
784.298279	748.500000
784.334656	744.300000
784.371033	734.100000
784.407410	734.000000
784.443787	720.400000
784.480164	706.000000
784.516541	690.500000
784.552856	695.400000
784.589233	692.500000
784.625610	686.500000
784.661987	716.500000
784.698364	705.600000
784.734741	701.100000
784.771057	704.300000
784.807434	708.700000
784.843811	722.400000
784.880127	717.600000
784.916504	742.700000
784.952881	745.300000
784.989197	743.100000
785.025574	741.400000
785.061951	744.300000
785.098267	767.800000
785.134644	759.000000
785.170959	760.000000
785.207275	759.600000
785.243652	758.600000
785.279968	740.900000
785.316345	748.900000
785.352722	748.800000
785.388977	742.500000
785.425354	727.800000
785.461731	708.200000
785.498047	700.500000
785.534363	693.700000
785.570679	697.800000
785.606995	699.500000
785.643372	706.400000
785.679687	697.100000
785.716003	685.100000
785.752380	668.500000
785.788635	642.800000
785.825012	614.800000
785.861328	557.500000
785.897644	483.100000
785.933960	445.900000
785.970337	418.200000
786.006592	430.100000
786.042908	456.800000
786.079285	514.700000
786.115540	584.200000
786.151855	655.700000
786.188171	703.300000
786.224487	738.000000
786.260803	743.600000
786.297119	761.600000
786.333435	757.100000
786.369751	754.900000
786.406006	757.900000
786.442322	740.900000
786.478638	729.200000
786.514954	746.000000
786.551270	737.300000
786.587585	751.900000
786.623840	739.600000
786.660156	731.500000
786.696472	718.700000
786.732727	718.400000
786.769043	723.900000
786.805298	715.800000
786.841614	723.100000
786.877930	731.800000
786.914124	722.100000
786.950439	738.100000
786.986755	743.800000
787.023010	756.200000
787.059326	768.300000
787.095642	771.400000
787.131836	788.200000
787.168152	781.200000
787.204468	786.000000
787.240723	800.000000
787.276978	802.300000
787.313293	805.700000
787.349548	805.400000
787.385803	804.000000
787.422058	793.000000
787.458313	783.800000
787.494629	788.000000
787.530823	784.700000
787.567139	769.700000
787.603455	766.500000
787.639648	750.500000
787.675903	756.100000
787.712219	753.600000
787.748413	749.100000
787.784729	764.200000
787.820984	751.500000
787.857178	745.600000
787.893494	740.000000
787.929749	738.000000
787.965942	751.200000
788.002258	767.700000
788.038452	776.400000
788.074707	772.300000
788.110962	784.100000
788.147217	781.900000
788.183472	793.100000
788.219727	804.300000
788.255920	822.300000
788.292175	828.700000
788.328430	823.000000
788.364624	810.900000
788.400879	807.800000
788.437134	815.000000
788.473328	811.700000
788.509583	809.900000
788.545837	799.400000
788.582031	802.900000
788.618286	797.800000
788.654480	793.800000
788.690735	804.700000
788.726990	825.400000
788.763184	820.500000
788.799377	834.400000
788.835632	821.200000
788.871826	840.000000
788.908081	831.300000
788.944336	832.200000
788.980469	854.700000
789.016724	847.200000
789.052979	849.300000
789.089111	830.700000
789.125366	845.900000
789.161621	820.600000
789.197754	835.100000
789.234009	829.000000
789.270142	821.300000
789.306396	817.700000
789.342590	816.300000
789.378784	788.900000
789.414978	788.100000
789.451233	800.400000
789.487366	801.200000
789.523621	812.500000
789.559814	802.400000
789.595947	794.400000
789.632202	799.000000
789.668335	806.000000
789.704529	825.600000
789.740784	844.100000
789.776917	846.500000
789.813110	837.600000
789.849304	851.900000
789.885498	851.500000
789.921692	875.100000
789.957886	875.200000
789.994019	881.000000
790.030212	875.000000
790.066406	884.200000
790.102539	880.200000
790.138733	889.300000
790.174927	882.400000
790.211060	898.700000
790.247253	884.000000
790.283386	875.200000
790.319580	866.400000
790.355774	846.200000
790.391907	854.300000
790.428101	873.500000
790.464294	863.200000
790.500427	864.900000
790.536621	845.500000
790.572754	828.000000
790.608887	825.200000
790.645081	832.500000
790.681274	848.700000
790.717346	849.500000
790.753540	837.400000
790.789734	816.100000
790.825867	802.700000
790.862000	806.300000
790.898132	823.100000
790.934265	819.300000
790.970459	821.300000
791.006592	817.700000
791.042725	819.000000
791.078918	812.000000
791.114990	809.600000
791.151184	812.600000
791.187317	828.000000
791.223389	818.400000
791.259583	810.300000
791.295715	818.500000
791.331848	820.000000
791.367981	826.600000
791.404114	828.200000
791.440247	827.200000
791.476379	835.500000
791.512451	819.200000
791.548584	825.700000
791.584778	812.700000
791.620850	832.500000
791.656982	836.200000
791.693115	841.400000
791.729187	835.600000
791.765381	830.300000
791.801514	830.600000
791.837585	831.700000
791.873718	838.600000
791.909851	846.900000
791.945923	858.300000
791.982056	831.100000
792.018188	825.100000
792.054260	831.700000
792.090393	826.200000
792.126465	819.600000
792.162598	829.500000
792.198669	821.000000
792.234741	820.600000
792.270874	807.400000
792.307007	792.400000
792.343079	796.400000
792.379150	811.300000
792.415283	799.000000
792.451355	805.800000
792.487488	779.800000
792.523560	771.800000
792.559631	764.200000
792.595764	730.200000
792.631836	700.800000
792.667908	685.800000
792.703979	665.700000
792.740051	680.700000
792.776184	706.100000
792.812256	710.300000
792.848328	721.600000
792.884399	727.800000
792.920471	732.600000
792.956543	729.600000
792.992615	729.200000
793.028748	722.200000
793.064758	727.400000
793.100830	743.900000
793.136963	763.900000
793.172974	761.600000
793.209045	752.800000
793.245178	765.900000
793.281189	750.400000
793.317261	750.700000
793.353271	750.800000
793.389404	761.500000
793.425476	757.900000
793.461487	747.000000
793.497559	738.900000
793.533630	742.900000
793.569641	739.300000
793.605713	743.000000
793.641785	748.600000
793.677795	759.500000
793.713867	747.700000
793.749878	756.000000
793.785950	766.300000
793.822021	771.000000
793.858032	756.200000
793.894104	770.900000
793.930176	755.200000
793.966187	757.500000
794.002258	746.300000
794.038269	752.700000
794.074280	751.200000
794.110352	772.900000
794.146423	755.600000
794.182373	749.700000
794.218445	750.700000
794.254517	744.400000
794.290466	728.800000
794.326538	738.800000
794.362549	738.900000
794.398560	745.200000
794.434631	752.600000
794.470581	729.800000
794.506653	728.000000
794.542664	731.400000
794.578674	737.900000
794.614685	732.300000
794.650757	734.300000
794.686707	731.600000
794.722778	727.200000
794.758789	731.100000
794.794739	736.400000
794.830811	758.100000
794.866821	776.800000
794.902771	772.700000
794.938843	767.400000
794.974792	766.400000
795.010803	768.100000
795.046814	770.500000
795.082825	763.400000
795.118835	777.500000
795.154846	755.900000
795.190796	760.000000
795.226807	740.700000
795.262817	747.300000
795.298767	748.400000
795.334778	753.700000
795.370850	746.900000
795.406799	751.100000
795.442810	738.500000
795.478821	737.300000
795.514709	735.300000
795.550720	757.900000
795.586670	737.600000
795.622681	742.100000
795.658691	745.900000
795.694641	745.100000
795.730652	732.300000
795.766663	738.700000
795.802551	741.800000
795.838562	758.800000
795.874573	743.800000
795.910522	747.000000
795.946472	735.400000
795.982483	737.400000
796.018433	737.300000
796.054382	743.700000
796.090393	735.500000
796.126282	734.200000
796.162292	730.800000
796.198242	725.300000
796.234192	722.600000
796.270203	722.300000
796.306091	722.700000
796.342041	733.700000
796.378052	725.900000
796.413940	727.100000
796.449951	736.700000
796.485901	731.700000
796.521790	731.700000
796.557800	745.400000
796.593689	742.800000
796.629639	743.200000
796.665649	734.900000
796.701599	732.600000
796.737488	729.100000
796.773437	734.100000
796.809387	735.000000
796.845337	739.700000
796.881287	727.800000
796.917175	715.900000
796.953125	715.000000
796.989075	721.200000
797.024963	728.400000
797.060913	724.900000
797.096863	724.300000
797.132751	715.800000
797.168701	703.300000
797.204590	715.300000
797.240540	716.100000
797.276489	723.800000
797.312439	732.400000
797.348328	727.600000
797.384277	719.000000
797.420166	709.900000
797.456055	713.100000
797.492004	709.300000
797.527893	716.400000
797.563843	719.500000
797.599731	710.100000
797.635620	698.200000
797.671570	708.400000
797.707520	707.800000
797.743347	702.800000
797.779297	712.100000
797.815125	710.200000
797.851074	700.700000
797.887024	694.200000
797.922913	680.500000
797.958801	689.700000
797.994690	683.700000
798.030579	694.500000
798.066467	700.400000
798.102356	693.500000
798.138245	687.600000
798.174133	685.200000
798.210083	691.600000
798.245911	701.000000
798.281799	699.400000
798.317749	692.600000
798.353577	692.800000
798.389465	687.100000
798.425293	682.800000
798.461243	681.800000
798.497131	687.000000
798.532959	691.300000
798.568848	697.700000
798.604736	685.200000
798.640564	670.000000
798.676453	671.100000
798.712402	674.500000
798.748230	684.600000
798.784119	677.800000
798.820007	679.000000
798.855835	673.200000
798.891724	668.500000
798.927551	659.600000
798.963379	670.800000
798.999268	665.700000
799.035095	660.600000
799.070984	655.100000
799.106873	644.300000
799.142700	647.700000
799.178528	642.300000
799.214417	640.300000
799.250244	657.400000
799.286133	654.400000
799.321960	649.700000
799.357788	643.500000
799.393677	638.200000
799.429504	637.400000
799.465332	637.000000
799.501221	647.700000
799.537048	647.700000
799.572876	639.500000
799.608704	640.700000
799.644531	643.700000
799.680359	645.600000
799.716248	652.400000
799.752014	658.000000
799.787903	648.200000
799.823730	647.100000
799.859558	637.800000
799.895386	640.200000
799.931213	643.100000
799.967041	637.500000
800.002869	638.100000
800.038696	653.300000
800.074463	635.400000
800.110352	638.000000
800.146179	633.600000
800.181946	642.900000
800.217773	643.700000
800.253540	642.200000
800.289429	640.000000
800.325256	630.000000
800.361023	622.600000
800.396851	625.500000
800.432678	628.500000
800.468445	629.500000
800.504272	629.800000
800.540100	616.300000
800.575867	615.400000
800.611694	622.100000
800.647461	615.100000
800.683289	617.600000
800.719116	626.300000
800.754883	619.500000
800.790649	606.500000
800.826477	599.600000
800.862244	622.800000
800.898071	608.400000
800.933838	608.900000
800.969604	611.400000
801.005432	612.100000
801.041199	611.700000
801.076965	602.500000
801.112793	592.800000
801.148560	591.900000
801.184326	590.000000
801.220154	596.800000
801.255859	588.800000
801.291687	592.900000
801.327454	582.600000
801.363281	584.900000
801.398987	583.100000
801.434814	581.800000
801.470520	592.800000
801.506287	577.900000
801.542114	571.400000
801.577820	572.900000
801.613647	575.100000
801.649414	571.300000
801.685120	575.500000
801.720886	583.400000
801.756714	570.800000
801.792419	563.700000
801.828186	556.500000
801.863892	565.600000
801.899719	561.500000
801.935486	557.300000
801.971252	566.500000
802.006958	562.200000
802.042725	554.000000
802.078430	556.200000
802.114197	552.900000
802.149963	568.300000
802.185669	556.900000
802.221436	556.100000
802.257202	556.400000
802.292908	551.100000
802.328674	558.200000
802.364441	560.400000
802.400146	559.300000
802.435913	557.600000
802.471558	558.000000
802.507324	553.000000
802.543091	547.000000
802.578796	553.800000
802.614502	555.400000
802.650269	557.900000
802.685974	543.400000
802.721741	550.800000
802.757446	553.200000
802.793152	549.400000
802.828918	560.000000
802.864624	553.600000
802.900330	554.900000
802.936035	554.100000
802.971802	552.100000
803.007446	546.300000
803.043213	539.900000
803.078857	547.700000
803.114624	535.400000
803.150330	543.600000
803.185974	533.000000
803.221741	537.600000
803.257446	544.400000
803.293152	549.400000
803.328857	542.000000
803.364563	536.500000
803.400208	527.400000
803.435974	537.900000
803.471680	528.900000
803.507324	526.900000
803.543030	536.900000
803.578735	539.100000
803.614441	530.500000
803.650146	540.300000
803.685791	526.500000
803.721497	530.000000
803.757202	517.400000
803.792847	530.800000
803.828552	520.100000
803.864258	523.200000
803.899902	518.700000
803.935608	508.000000
803.971313	512.300000
804.006958	513.300000
804.042664	508.800000
804.078308	514.700000
804.113953	508.000000
804.149658	517.200000
804.185364	505.700000
804.221008	515.900000
804.256714	504.600000
804.292297	500.700000
804.328003	502.400000
804.363708	495.600000
804.399292	495.600000
804.434998	500.300000
804.470703	490.200000
804.506287	503.000000
804.541992	492.700000
804.577637	497.800000
804.613281	484.700000
804.648926	484.600000
804.684570	484.500000
804.720215	480.000000
804.755920	480.400000
804.791565	477.600000
804.827209	486.500000
804.862854	480.100000
804.898437	471.700000
804.934143	474.200000
804.969788	474.500000
805.005371	477.200000
805.041077	476.600000
805.076721	474.800000
805.112305	465.200000
805.147949	468.900000
805.183655	462.400000
805.219238	467.500000
805.254883	467.700000
805.290466	474.400000
805.326111	468.800000
805.361755	459.300000
805.397400	463.300000
805.432983	465.700000
805.468628	464.800000
805.504211	468.400000
805.539856	467.900000
805.575500	467.700000
805.611084	461.600000
805.646729	448.100000
805.682373	451.000000
805.717957	459.400000
805.753601	462.600000
805.789246	445.700000
805.824768	457.700000
805.860413	461.000000
805.895996	446.400000
805.931641	444.500000
805.967224	456.500000
806.002869	447.600000
806.038452	458.900000
806.074036	455.600000
806.109619	445.200000
806.145264	441.300000
806.180847	446.500000
806.216431	443.700000
806.252014	450.800000
806.287659	447.700000
806.323181	455.800000
806.358826	447.000000
806.394409	434.400000
806.429993	435.200000
806.465576	450.500000
806.501160	436.800000
806.536743	426.800000
806.572327	440.400000
806.607910	436.300000
806.643494	437.100000
806.679077	430.500000
806.714661	431.300000
806.750244	433.800000
806.785828	426.400000
806.821350	429.400000
806.856934	431.800000
806.892517	430.600000
806.928101	424.100000
806.963684	423.500000
806.999268	435.400000
807.034790	416.800000
807.070374	425.300000
807.105896	420.200000
807.141479	414.200000
807.177063	421.400000
807.212585	413.800000
807.248169	417.800000
807.283752	421.400000
807.319275	417.000000
807.354858	420.500000
807.390381	416.100000
807.425903	414.200000
807.461487	410.300000
807.497070	405.300000
807.532593	409.400000
807.568115	406.600000
807.603699	402.100000
807.639221	398.000000
807.674744	402.800000
807.710266	406.900000
807.745850	412.400000
807.781372	403.800000
807.816895	400.800000
807.852417	404.300000
807.888000	402.800000
807.923523	398.300000
807.959045	401.200000
807.994629	390.200000
808.030090	391.300000
808.065613	397.200000
808.101135	400.300000
808.136658	397.500000
808.172241	394.900000
808.207764	392.200000
808.243225	390.000000
808.278809	385.700000
808.314270	393.500000
808.349792	381.400000
808.385315	381.700000
808.420837	388.400000
808.456360	391.200000
808.491882	392.200000
808.527344	385.600000
808.562866	396.500000
808.598389	389.100000
808.633850	382.500000
808.669434	380.100000
808.704895	387.900000
808.740417	393.000000
808.775940	384.700000
808.811462	383.500000
808.846924	376.400000
808.882385	372.500000
808.917847	373.200000
808.953369	378.000000
808.988892	372.700000
809.024353	383.300000
809.059875	381.300000
809.095398	375.600000
809.130798	372.800000
809.166321	369.800000
809.201843	368.400000
809.237305	369.600000
809.272766	378.500000
809.308228	363.800000
809.343750	365.400000
809.379211	364.600000
809.414734	366.300000
809.450134	372.900000
809.485657	358.900000
809.521118	364.700000
809.556580	362.100000
809.592102	362.700000
809.627502	357.800000
809.663025	358.500000
809.698486	354.300000
809.733887	352.700000
809.769409	356.800000
809.804871	349.000000
809.840271	351.100000
809.875793	354.500000
809.911194	358.000000
809.946655	350.300000
809.982178	348.900000
810.017639	350.700000
810.053040	347.300000
810.088501	347.400000
810.123901	345.600000
810.159424	342.400000
810.194885	339.200000
810.230286	344.300000
810.265747	337.900000
810.301208	337.100000
810.336609	341.300000
810.372070	333.400000
810.407532	335.300000
810.442932	338.400000
810.478394	341.400000
810.513794	337.500000
810.549255	337.200000
810.584717	332.900000
810.620117	328.200000
810.655518	334.600000
810.690979	332.400000
810.726379	331.000000
810.761841	322.100000
810.797302	323.400000
810.832642	322.000000
810.868103	331.400000
810.903564	322.100000
810.938904	329.500000
810.974365	317.300000
811.009827	325.800000
811.045166	318.000000
811.080627	311.900000
811.115967	318.300000
811.151428	325.700000
811.186829	316.100000
811.222229	317.400000
811.257629	309.500000
811.293091	318.500000
811.328430	325.700000
811.363892	319.900000
811.399292	320.100000
811.434631	315.400000
811.470093	320.100000
811.505493	310.700000
811.540833	313.800000
811.576294	317.400000
811.611694	312.100000
811.647034	306.800000
811.682434	313.000000
811.717773	312.400000
811.753235	319.700000
811.788635	308.000000
811.823975	310.000000
811.859375	318.400000
811.894775	304.500000
811.930115	306.400000
811.965515	306.200000
812.000916	310.100000
812.036255	304.500000
812.071655	309.000000
812.106995	299.700000
812.142395	303.600000
812.177795	311.200000
812.213196	307.900000
812.248474	307.200000
812.283875	301.500000
812.319214	302.300000
812.354614	304.000000
812.390015	301.800000
812.425293	301.700000
812.460693	301.600000
812.496094	299.800000
812.531433	291.500000
812.566772	294.100000
812.602173	295.900000
812.637451	298.200000
812.672852	293.000000
812.708191	297.500000
812.743530	291.100000
812.778931	284.500000
812.814270	288.400000
812.849609	296.500000
812.884949	289.700000
812.920227	283.100000
812.955627	300.700000
812.990967	291.100000
813.026306	285.000000
813.061646	276.100000
813.096985	273.500000
813.132324	273.200000
813.167664	276.000000
813.203003	283.500000
813.238281	271.300000
813.273682	272.900000
813.308960	269.300000
813.344299	272.000000
813.379639	278.200000
813.414978	273.100000
813.450256	270.800000
813.485596	275.200000
813.520874	265.700000
813.556213	271.100000
813.591614	273.600000
813.626831	266.600000
813.662170	271.300000
813.697510	278.400000
813.732788	263.200000
813.768127	270.900000
813.803467	269.600000
813.838745	265.500000
813.874084	268.100000
813.909363	269.400000
813.944641	267.800000
813.979980	259.300000
814.015320	264.500000
814.050598	261.000000
814.085876	265.800000
814.121155	261.200000
814.156494	259.600000
814.191772	261.500000
814.227051	258.100000
814.262390	260.200000
814.297668	259.500000
814.332947	262.500000
814.368225	254.300000
814.403564	258.000000
814.438782	254.400000
814.474121	258.600000
814.509338	254.700000
814.544617	263.100000
814.579956	251.800000
814.615173	265.100000
814.650513	261.600000
814.685791	253.200000
814.721008	256.600000
814.756348	256.400000
814.791626	253.100000
814.826843	252.400000
814.862122	254.400000
814.897400	250.300000
814.932678	251.600000
814.967957	252.700000
815.003235	252.800000
815.038452	246.600000
815.073730	244.700000
815.108948	254.000000
815.144226	250.600000
815.179504	255.300000
815.214722	242.500000
815.250000	239.100000
815.285278	247.800000
815.320496	241.800000
815.355774	245.400000
815.391052	246.900000
815.426270	245.000000
815.461487	242.500000
815.496765	238.500000
815.531982	235.800000
815.567261	241.600000
815.602539	248.100000
815.637695	243.700000
815.672974	246.300000
815.708191	245.000000
815.743408	246.400000
815.778687	238.700000
815.813904	248.800000
815.849121	234.000000
815.884399	234.700000
815.919556	233.200000
815.954834	234.100000
815.990051	238.700000
816.025269	242.200000
816.060486	232.400000
816.095703	233.900000
816.130920	235.100000
816.166199	233.300000
816.201416	235.900000
816.236572	241.900000
816.271851	232.600000
816.307007	238.600000
816.342224	228.500000
816.377441	233.400000
816.412659	224.500000
816.447876	236.600000
816.483093	229.600000
816.518250	232.700000
816.553467	229.600000
816.588745	233.900000
816.623901	226.400000
816.659119	221.100000
816.694275	226.900000
816.729492	223.400000
816.764709	259.100000
816.799927	221.100000
816.835083	226.500000
816.870300	220.600000
816.905457	223.200000
816.940674	224.100000
816.975830	220.400000
817.010986	217.800000
817.046204	220.700000
817.081421	217.400000
817.116577	216.500000
817.151733	227.700000
817.186951	225.200000
817.222107	221.600000
817.257324	224.200000
817.292419	223.000000
817.327637	214.400000
817.362854	219.100000
817.398010	212.500000
817.433167	216.500000
817.468323	215.300000
817.503479	218.100000
817.538635	225.500000
817.573853	219.800000
817.608948	218.500000
817.644165	214.100000
817.679321	212.500000
817.714478	212.600000
817.749634	215.200000
817.784790	227.000000
817.819946	222.200000
817.855103	205.200000
817.890198	214.300000
817.925415	207.900000
817.960571	215.800000
817.995667	213.400000
818.030823	215.800000
818.066040	210.400000
818.101135	214.300000
818.136292	211.800000
818.171448	205.800000
818.206543	211.600000
818.241699	214.500000
818.276855	211.000000
818.311951	209.900000
818.347107	205.400000
818.382263	212.800000
818.417358	217.100000
818.452515	218.900000
818.487610	218.400000
818.522766	206.800000
818.557922	217.200000
818.593018	213.100000
818.628113	212.300000
818.663269	206.100000
818.698364	209.000000
818.733521	207.100000
818.768677	209.700000
818.803711	202.100000
818.838867	204.100000
818.874023	208.800000
818.909058	203.700000
818.944214	202.600000
818.979370	208.700000
819.014404	206.700000
819.049561	202.800000
819.084595	208.800000
819.119751	198.500000
819.154846	208.400000
819.189941	203.000000
819.225037	200.000000
819.260193	195.200000
819.295227	199.700000
819.330322	193.500000
819.365479	191.700000
819.400513	227.100000
819.435608	193.900000
819.470764	190.600000
819.505798	195.100000
819.540894	195.700000
819.575989	196.400000
819.611084	204.500000
819.646179	204.100000
819.681213	201.300000
819.716309	197.600000
819.751404	196.500000
819.786438	201.300000
819.821533	194.400000
819.856628	198.300000
819.891663	201.100000
819.926758	206.800000
819.961853	203.700000
819.996887	193.500000
820.031982	200.500000
820.067017	196.200000
820.102112	226.200000
820.137207	194.800000
820.172302	210.800000
820.207275	192.400000
820.242371	193.600000
820.277405	193.100000
820.312500	195.600000
820.347534	198.500000
820.382568	201.000000
820.417664	192.700000
820.452759	192.400000
820.487732	191.800000
820.522827	194.400000
820.557861	190.000000
820.592896	193.100000
820.627930	193.400000
820.662964	191.600000
820.698059	195.700000
820.733093	192.800000
820.768127	197.700000
820.803162	193.200000
820.838196	189.600000
820.873230	194.800000
820.908264	194.600000
820.943298	189.900000
820.978333	198.000000
821.013367	194.800000
821.048401	198.100000
821.083435	198.700000
821.118469	185.400000
821.153503	197.700000
821.188477	194.600000
821.223511	186.300000
821.258484	192.600000
821.293579	194.800000
821.328613	185.600000
821.363647	191.200000
821.398621	187.100000
821.433655	189.900000
821.468628	205.900000
821.503662	190.900000
821.538696	194.900000
821.573669	187.000000
821.608704	194.700000
821.643677	189.200000
821.678650	194.400000
821.713684	201.000000
821.748718	191.400000
821.783691	190.900000
821.818726	194.000000
821.853638	193.800000
821.888672	190.600000
821.923706	191.800000
821.958618	189.300000
821.993652	189.500000
822.028687	195.900000
822.063599	197.600000
822.098633	194.000000
822.133667	187.100000
822.168579	191.200000
822.203613	193.400000
822.238586	188.000000
822.273560	193.700000
822.308533	188.000000
822.343567	188.500000
822.378479	190.800000
822.413452	188.800000
822.448425	185.400000
822.483398	195.300000
822.518372	196.600000
822.553345	187.800000
822.588318	198.400000
822.623291	188.700000
822.658203	189.300000
822.693237	191.400000
822.728210	186.600000
822.763123	190.600000
822.798096	185.200000
822.833069	189.100000
822.867981	191.300000
822.902954	192.000000
822.937927	193.100000
822.972900	201.400000
823.007874	184.000000
823.042725	194.900000
823.077698	202.900000
823.112671	185.900000
823.147583	188.000000
823.182556	193.100000
823.217529	195.900000
823.252441	188.200000
823.287415	202.700000
823.322388	194.000000
823.357239	190.000000
823.392212	198.000000
823.427185	195.600000
823.462097	186.500000
823.497009	194.500000
823.531982	187.800000
823.566895	192.100000
823.601807	185.900000
823.636719	189.100000
823.671631	194.800000
823.706604	189.100000
823.741455	194.200000
823.776428	182.800000
823.811340	196.700000
823.846252	196.200000
823.881165	197.700000
823.916138	191.300000
823.950989	199.900000
823.985901	186.600000
824.020813	192.100000
824.055725	188.400000
824.090637	185.300000
824.125610	192.000000
824.160461	192.400000
824.195374	192.300000
824.230225	194.200000
824.265198	183.100000
824.300110	186.700000
824.334961	200.300000
824.369873	180.200000
824.404785	191.300000
824.439636	195.600000
824.474548	182.600000
824.509460	180.900000
824.544312	194.200000
824.579224	193.200000
824.614075	192.600000
824.648987	189.100000
824.683899	189.300000
824.718811	188.000000
824.753662	195.900000
824.788574	196.200000
824.823364	191.300000
824.858276	187.800000
824.893188	194.300000
824.928040	195.800000
824.962952	192.300000
824.997803	195.200000
825.032654	191.800000
825.067566	194.100000
825.102417	187.400000
825.137268	189.200000
825.172119	190.100000
825.206970	185.100000
825.241882	189.000000
825.276733	186.400000
825.311646	187.400000
825.346436	184.500000
825.381348	184.400000
825.416138	189.400000
825.450989	186.200000
825.485901	181.400000
825.520691	181.300000
825.555542	183.000000
825.590454	188.100000
825.625244	180.600000
825.660095	194.600000
825.695007	192.600000
825.729797	187.800000
825.764648	184.100000
825.799438	188.200000
825.834290	188.200000
825.869202	181.300000
825.903992	187.500000
825.938843	184.200000
825.973694	182.500000
826.008484	200.200000
826.043335	181.700000
826.078186	177.600000
826.112976	192.800000
826.147827	193.400000
826.182678	195.600000
826.217468	179.900000
826.252319	190.500000
826.287109	181.300000
826.321899	192.000000
826.356750	186.200000
826.391541	181.300000
826.426392	191.800000
826.461182	185.300000
826.495972	181.300000
826.530823	178.200000
826.565613	187.900000
826.600403	181.400000
826.635254	189.600000
826.670044	177.800000
826.704834	178.600000
826.739685	180.600000
826.774475	190.000000
826.809265	185.400000
826.844055	183.300000
826.878906	190.500000
826.913635	187.600000
826.948425	188.800000
826.983215	187.500000
827.018005	190.500000
827.052856	184.300000
827.087585	188.900000
827.122375	179.100000
827.157227	186.400000
827.191956	199.100000
827.226746	182.200000
827.261536	190.000000
827.296265	179.300000
827.331116	182.400000
827.365906	189.900000
827.400635	182.000000
827.435425	176.800000
827.470215	191.800000
827.504944	185.000000
827.539734	189.700000
827.574463	185.700000
827.609253	191.600000
827.644043	185.800000
827.678772	190.000000
827.713562	183.800000
827.748352	183.400000
827.783081	181.500000
827.817871	187.200000
827.852600	181.400000
827.887329	186.100000
827.922119	175.100000
827.956848	187.600000
827.991638	199.100000
828.026367	186.600000
828.061157	186.500000
828.095886	185.400000
828.130615	200.400000
828.165344	176.400000
828.200073	186.600000
828.234863	182.600000
828.269592	185.300000
828.304321	188.700000
828.339111	186.800000
828.373779	181.600000
828.408569	191.200000
828.443298	190.400000
828.477966	183.300000
828.512756	186.500000
828.547424	180.300000
828.582214	183.200000
828.616943	183.500000
828.651672	183.900000
828.686340	189.700000
828.721130	183.300000
828.755798	186.200000
828.790527	184.900000
828.825256	187.200000
828.859924	186.600000
828.894714	193.100000
828.929443	194.500000
828.964111	183.300000
828.998840	189.300000
829.033569	182.700000
829.068237	184.900000
829.102966	182.000000
829.137634	188.300000
829.172363	187.800000
829.207092	187.300000
829.241821	182.100000
829.276489	178.500000
829.311157	186.300000
829.345825	183.600000
829.380554	191.200000
829.415283	181.700000
829.449951	178.500000
829.484619	194.600000
829.519348	193.600000
829.554016	186.400000
829.588745	185.100000
829.623413	179.600000
829.658081	194.700000
829.692749	182.800000
829.727417	189.600000
829.762146	188.300000
829.796814	180.800000
829.831482	184.300000
829.866150	187.500000
829.900879	183.400000
829.935486	189.500000
829.970154	183.300000
830.004883	195.700000
830.039490	188.100000
830.074219	182.600000
830.108887	186.300000
830.143494	184.000000
830.178223	180.400000
830.212891	185.200000
830.247498	185.300000
830.282166	193.200000
830.316772	190.600000
830.351501	182.000000
830.386169	184.900000
830.420776	184.000000
830.455444	186.800000
830.490112	184.200000
830.524719	176.700000
830.559387	188.200000
830.594055	188.500000
830.628662	184.500000
830.663330	186.500000
830.697998	194.500000
830.732605	185.400000
830.767273	188.600000
830.801941	184.700000
830.836487	194.700000
830.871155	188.000000
830.905762	189.500000
830.940430	180.100000
830.975098	183.100000
831.009644	186.100000
831.044312	193.700000
831.078979	189.500000
831.113525	178.400000
831.148193	187.500000
831.182861	184.700000
831.217407	189.500000
831.252075	202.700000
831.286621	182.000000
831.321289	179.900000
831.355896	185.000000
831.390564	192.100000
831.425110	185.800000
831.459778	192.100000
831.494324	198.400000
831.528931	189.600000
831.563599	189.000000
831.598145	178.800000
831.632751	184.200000
831.667419	184.900000
831.701965	186.500000
831.736572	189.100000
831.771179	179.200000
831.805786	182.300000
831.840393	192.600000
831.874939	178.300000
831.909546	190.000000
831.944153	176.600000
831.978760	183.000000
832.013306	180.300000
832.047913	191.700000
832.082458	194.700000
832.117065	182.100000
832.151672	193.500000
832.186218	186.500000
832.220825	188.300000
832.255432	178.200000
832.289978	183.300000
832.324585	188.600000
832.359192	188.300000
832.393677	184.600000
832.428284	187.400000
832.462830	183.400000
832.497437	184.600000
832.531982	188.900000
832.566589	183.400000
832.601135	188.000000
832.635681	177.800000
832.670227	185.100000
832.704773	193.400000
832.739380	188.600000
832.773926	187.200000
832.808472	182.800000
832.843079	185.900000
832.877563	188.000000
832.912170	182.400000
832.946716	178.300000
832.981201	190.900000
833.015808	188.200000
833.050293	184.500000
833.084839	181.600000
833.119446	184.300000
833.153992	189.900000
833.188477	184.100000
833.223022	181.500000
833.257568	186.800000
833.292114	192.500000
833.326660	196.700000
833.361145	184.200000
833.395691	178.500000
833.430237	184.800000
833.464783	188.100000
833.499329	182.300000
833.533875	180.200000
833.568359	188.800000
833.602905	190.300000
833.637390	190.000000
833.671875	183.600000
833.706421	184.700000
833.740906	181.300000
833.775452	175.500000
833.809998	181.900000
833.844482	192.700000
833.879028	185.100000
833.913513	183.500000
833.947998	186.300000
833.982544	181.000000
834.017090	184.100000
834.051514	174.200000
834.086060	187.600000
834.120544	185.300000
834.155029	187.100000
834.189575	184.100000
834.223999	189.200000
834.258545	187.200000
834.293030	187.700000
834.327515	186.600000
834.362000	182.800000
834.396545	189.500000
834.430969	185.600000
834.465454	190.100000
834.500000	178.500000
834.534424	188.000000
834.568970	177.000000
834.603455	175.700000
834.637878	182.500000
834.672363	186.900000
834.706909	185.300000
834.741333	185.900000
834.775818	180.000000
834.810242	181.100000
834.844727	187.000000
834.879211	182.700000
834.913635	186.700000
834.948181	185.700000
834.982666	186.100000
835.017090	183.700000
835.051575	187.600000
835.086060	181.100000
835.120483	188.300000
835.154907	188.100000
835.189331	185.000000
835.223816	188.400000
835.258301	179.600000
835.292786	180.600000
835.327209	190.100000
835.361694	182.100000
835.396057	183.000000
835.430542	187.800000
835.465027	187.200000
835.499390	179.600000
835.533875	206.300000
835.568359	182.800000
835.602722	177.800000
835.637207	186.200000
835.671692	179.600000
835.706055	200.700000
835.740540	188.000000
835.774902	189.300000
835.809387	187.500000
835.843811	180.700000
835.878235	193.400000
835.912659	179.500000
835.947083	182.200000
835.981506	186.300000
836.015930	178.700000
836.050354	191.100000
836.084778	193.600000
836.119202	190.800000
836.153625	199.300000
836.187988	181.300000
836.222473	182.600000
836.256897	188.100000
836.291260	184.400000
836.325684	188.600000
836.360046	183.300000
836.394470	184.500000
836.428894	191.400000
836.463318	182.500000
836.497681	189.600000
836.532104	193.600000
836.566467	186.000000
836.600891	184.100000
836.635315	190.300000
836.669678	187.600000
836.704102	190.400000
836.738525	188.000000
836.772888	177.600000
836.807251	183.100000
836.841675	187.700000
836.876038	178.900000
836.910461	181.600000
836.944763	190.000000
836.979187	181.100000
837.013611	190.400000
837.047974	179.200000
837.082336	197.300000
837.116699	188.200000
837.151062	185.100000
837.185486	178.900000
837.219849	184.300000
837.254211	188.700000
837.288574	183.900000
837.322937	180.700000
837.357300	174.000000
837.391663	197.700000
837.426086	191.000000
837.460388	186.400000
837.494751	190.600000
837.529114	184.000000
837.563477	190.900000
837.597839	187.100000
837.632141	185.800000
837.666565	184.200000
837.700928	188.100000
837.735229	189.700000
837.769592	188.000000
837.803955	190.500000
837.838257	184.000000
837.872620	182.200000
837.906982	193.200000
837.941284	187.800000
837.975647	186.600000
838.010010	192.900000
838.044312	183.700000
838.078674	185.100000
838.112976	186.500000
838.147339	189.000000
838.181702	184.800000
838.216003	196.500000
838.250366	186.300000
838.284668	189.200000
838.318970	176.800000
838.353333	186.600000
838.387634	184.200000
838.421936	186.500000
838.456299	185.600000
838.490601	193.500000
838.524902	187.500000
838.559265	192.700000
838.593567	188.900000
838.627869	180.500000
838.662170	188.400000
838.696472	178.700000
838.730774	182.000000
838.765137	192.100000
838.799377	170.700000
838.833740	186.400000
838.868042	191.900000
838.902283	177.900000
838.936646	192.300000
838.970947	188.000000
839.005188	191.300000
839.039551	180.000000
839.073792	193.100000
839.108093	183.300000
839.142395	195.800000
839.176697	181.100000
839.210937	185.900000
839.245300	198.400000
839.279541	179.500000
839.313843	184.000000
839.348145	189.200000
839.382385	190.700000
839.416687	190.400000
839.450989	188.700000
839.485229	185.500000
839.519531	181.400000
839.553833	191.900000
839.588013	186.600000
839.622314	188.200000
839.656555	188.600000
839.690857	186.200000
839.725159	179.400000
839.759460	185.600000
839.793640	183.500000
839.827942	184.600000
839.862183	181.500000
839.896423	186.900000
839.930725	196.300000
839.964966	193.300000
839.999207	192.000000
840.033508	193.500000
840.067688	183.000000
840.101990	194.300000
840.136230	186.100000
840.170471	193.800000
840.204712	181.200000
840.238953	182.200000
840.273193	186.700000
840.307434	190.300000
840.341736	181.800000
840.375916	180.300000
840.410217	182.700000
840.444397	190.300000
840.478638	187.100000
840.512878	191.900000
840.547119	186.700000
840.581360	188.400000
840.615601	195.700000
840.649780	195.700000
840.684021	185.900000
840.718262	194.500000
840.752441	192.200000
840.786682	187.700000
840.820862	187.400000
840.855103	192.600000
840.889343	187.300000
840.923584	191.200000
840.957764	189.000000
840.992004	188.300000
841.026184	201.000000
841.060425	185.400000
841.094666	183.000000
841.128845	191.300000
841.163025	187.300000
841.197266	190.500000
841.231445	188.100000
841.265686	186.900000
841.299866	181.500000
841.334045	194.800000
841.368286	185.000000
841.402405	194.500000
841.436646	190.500000
841.470825	183.500000
841.505005	185.900000
841.539185	182.100000
841.573425	184.000000
841.607544	186.300000
841.641785	187.900000
841.675964	181.900000
841.710144	188.000000
841.744324	183.400000
841.778503	186.700000
841.812683	182.200000
841.846863	195.700000
841.881042	192.000000
841.915222	183.900000
841.949402	201.300000
841.983521	178.600000
842.017700	184.400000
842.051880	189.000000
842.086060	188.800000
842.120239	187.300000
842.154419	183.500000
842.188538	187.000000
842.222717	182.100000
842.256897	197.700000
842.291016	184.700000
842.325195	187.500000
842.359375	198.200000
842.393494	195.100000
842.427673	186.900000
842.461853	188.200000
842.495911	194.700000
842.530090	189.000000
842.564209	184.600000
842.598389	189.300000
842.632568	188.100000
842.666626	191.200000
842.700806	181.700000
842.734985	184.200000
842.769043	189.800000
842.803223	186.200000
842.837402	185.600000
842.871460	183.700000
842.905640	195.000000
842.939697	184.300000
842.973877	190.300000
843.007996	191.700000
843.042175	196.800000
843.076233	184.200000
843.110413	188.800000
843.144470	196.100000
843.178589	192.800000
843.212769	185.700000
843.246826	190.600000
843.280945	185.000000
843.315125	185.900000
843.349182	183.000000
843.383301	194.100000
843.417419	198.500000
843.451538	188.100000
843.485657	185.300000
843.519714	185.900000
843.553833	188.900000
843.587952	185.100000
843.622070	182.000000
843.656128	190.000000
843.690247	183.800000
843.724304	185.400000
843.758423	188.800000
843.792542	186.700000
843.826599	186.700000
843.860718	186.100000
843.894836	180.000000
843.928894	187.200000
843.963013	189.000000
843.997070	184.600000
844.031128	180.300000
844.065247	192.600000
844.099304	191.400000
844.133362	188.900000
844.167480	190.100000
844.201599	195.500000
844.235596	187.000000
844.269714	187.700000
844.303711	189.700000
844.337830	179.800000
844.371948	190.500000
844.405945	186.700000
844.440063	183.000000
844.474121	201.100000
844.508118	185.300000
844.542236	186.000000
844.576294	186.100000
844.610352	182.600000
844.644409	185.500000
844.678406	178.000000
844.712524	191.700000
844.746582	193.200000
844.780640	186.900000
844.814636	187.000000
844.848755	197.700000
844.882751	185.400000
844.916809	193.900000
844.950867	188.800000
844.984863	196.100000
845.018921	186.200000
845.052979	184.200000
845.086975	188.000000
845.121033	182.100000
845.155090	183.000000
845.189087	194.500000
845.223145	183.700000
845.257141	187.800000
845.291199	190.200000
845.325256	194.300000
845.359253	187.600000
845.393250	199.500000
845.427307	185.300000
845.461304	190.200000
845.495361	187.500000
845.529358	198.700000
845.563354	184.700000
845.597412	182.400000
845.631409	195.200000
845.665405	194.700000
845.699463	191.400000
845.733459	185.200000
845.767456	193.900000
845.801453	186.300000
845.835449	194.300000
845.869446	191.900000
845.903503	191.000000
845.937439	184.800000
845.971497	193.800000
846.005493	181.500000
846.039429	192.500000
846.073486	196.700000
846.107483	185.500000
846.141418	186.200000
846.175476	186.200000
846.209473	193.500000
846.243408	184.600000
846.277405	188.400000
846.311401	184.600000
846.345337	188.000000
846.379395	193.300000
846.413330	184.700000
846.447327	195.700000
846.481323	183.600000
846.515259	185.200000
846.549255	187.800000
846.583252	190.900000
846.617187	182.300000
846.651184	190.300000
846.685120	185.500000
846.719055	196.000000
846.753052	191.700000
846.786987	192.500000
846.820984	181.000000
846.854980	196.000000
846.888916	182.600000
846.922852	190.400000
846.956848	196.100000
846.990723	183.500000
847.024719	188.000000
847.058716	186.800000
847.092590	195.600000
847.126587	188.700000
847.160522	184.600000
847.194458	191.600000
847.228455	182.600000
847.262390	182.000000
847.296265	185.400000
847.330261	194.300000
847.364136	185.800000
847.398132	185.600000
847.432068	186.900000
847.466003	187.500000
847.499939	186.400000
847.533875	190.200000
847.567749	185.200000
847.601746	184.100000
847.635681	189.400000
847.669556	179.500000
847.703491	192.200000
847.737427	201.000000
847.771301	183.100000
847.805237	189.700000
847.839233	189.000000
847.873108	187.600000
847.907043	186.900000
847.940918	194.200000
847.974854	187.400000
848.008789	191.500000
848.042664	188.100000
848.076538	190.200000
848.110474	187.900000
848.144348	188.200000
848.178284	181.800000
848.212219	189.500000
848.246094	187.200000
848.279968	188.400000
848.313904	189.900000
848.347778	188.100000
848.381653	188.000000
848.415588	184.000000
848.449463	184.200000
848.483337	190.200000
848.517212	193.800000
848.551086	187.300000
848.585022	182.900000
848.618835	196.200000
848.652771	184.600000
848.686646	183.200000
848.720520	196.100000
848.754395	186.600000
848.788330	192.200000
848.822144	191.100000
848.856018	186.600000
848.889954	196.400000
848.923767	184.900000
848.957642	184.100000
848.991577	192.200000
849.025391	184.400000
849.059265	186.500000
849.093079	183.900000
849.126953	182.600000
849.160828	193.000000
849.194641	189.200000
849.228577	184.900000
849.262451	187.300000
849.296265	186.500000
849.330139	182.200000
849.364014	186.900000
849.397827	191.300000
849.431702	187.500000
849.465515	191.400000
849.499329	178.700000
849.533203	182.500000
849.567078	176.800000
849.600891	191.000000
849.634766	186.100000
849.668518	191.200000
849.702393	187.300000
849.736267	181.500000
849.770020	198.500000
849.803894	191.000000
849.837769	188.300000
849.871521	187.600000
849.905396	191.900000
849.939270	184.000000
849.973022	185.200000
850.006897	190.500000
850.040710	190.300000
850.074524	191.900000
850.108337	188.000000
850.142151	190.500000
850.175964	194.000000
850.209778	188.200000
850.243530	176.300000
850.277405	192.500000
850.311218	189.400000
850.344971	184.300000
850.378845	196.700000
850.412659	185.000000
850.446411	189.000000
850.480225	186.800000
850.514038	194.000000
850.547791	191.600000
850.581665	189.000000
850.615417	183.900000
850.649231	189.400000
850.683044	186.500000
850.716858	186.400000
850.750610	187.300000
850.784424	191.500000
850.818176	185.300000
850.851929	186.000000
850.885742	184.500000
850.919495	187.300000
850.953308	193.900000
850.987122	195.500000
851.020874	181.400000
851.054626	181.200000
851.088440	191.200000
851.122192	192.300000
851.156006	187.300000
851.189697	185.900000
851.223511	182.600000
851.257263	192.200000
851.291077	190.300000
851.324829	186.700000
851.358582	184.400000
851.392334	185.200000
851.426086	186.100000
851.459900	195.500000
851.493591	188.500000
851.527344	188.600000
851.561157	187.200000
851.594849	191.300000
851.628662	189.300000
851.662415	196.300000
851.696106	189.300000
851.729858	192.900000
851.763611	181.600000
851.797363	189.100000
851.831116	183.800000
851.864868	190.600000
851.898560	191.300000
851.932312	185.600000
851.966064	190.200000
851.999817	187.100000
852.033569	187.800000
852.067261	190.900000
852.101013	184.100000
852.134766	187.000000
852.168457	177.600000
852.202209	192.000000
852.235901	182.500000
852.269592	190.700000
852.303345	197.600000
852.337036	191.500000
852.370789	188.700000
852.404541	191.200000
852.438171	184.000000
852.471924	187.400000
852.505676	181.400000
852.539307	189.600000
852.573059	184.900000
852.606812	184.300000
852.640442	187.600000
852.674194	192.000000
852.707886	198.500000
852.741577	194.000000
852.775269	183.700000
852.809021	187.000000
852.842651	190.000000
852.876404	192.500000
852.910034	188.500000
852.943787	195.200000
852.977478	189.800000
853.011108	184.000000
853.044861	184.500000
853.078552	193.500000
853.112183	189.500000
853.145874	189.300000
853.179626	180.000000
853.213257	189.600000
853.246948	185.900000
853.280640	196.400000
853.314270	187.700000
853.347961	194.300000
853.381653	191.600000
853.415283	191.500000
853.448975	185.000000
853.482605	188.800000
853.516296	187.700000
853.549988	182.600000
853.583618	189.500000
853.617310	190.500000
853.651001	189.300000
853.684631	184.300000
853.718323	185.500000
853.751953	195.400000
853.785583	180.400000
853.819275	192.500000
853.852966	188.200000
853.886536	180.500000
853.920227	183.000000
853.953918	193.300000
853.987488	186.100000
854.021179	192.800000
854.054749	195.200000
854.088440	190.800000
854.122131	183.800000
854.155701	191.600000
854.189331	183.400000
854.223022	191.100000
854.256592	189.500000
854.290283	184.900000
854.323914	190.100000
854.357483	189.400000
854.391174	190.600000
854.424744	197.200000
854.458374	188.000000
854.492065	198.500000
854.525696	186.000000
854.559265	194.000000
854.592896	198.800000
854.626465	188.800000
854.660095	189.700000
854.693787	189.700000
854.727356	187.100000
854.760986	192.300000
854.794617	189.300000
854.828186	187.400000
854.861816	192.600000
854.895447	188.400000
854.929016	190.100000
854.962585	192.000000
854.996155	196.500000
855.029785	189.400000
855.063416	190.100000
855.097046	192.200000
855.130615	182.300000
855.164185	194.700000
855.197754	188.200000
855.231384	191.100000
855.264954	187.300000
855.298523	193.800000
855.332153	190.700000
855.365723	197.700000
855.399292	185.800000
855.432922	186.500000
855.466492	191.000000
855.500061	183.000000
855.533630	184.400000
855.567200	192.500000
855.600769	193.000000
855.634338	192.200000
855.667969	191.200000
855.701477	183.800000
855.735046	185.800000
855.768616	179.500000
855.802185	191.500000
855.835754	202.800000
855.869324	180.000000
855.902893	185.300000
855.936401	195.100000
855.969971	188.900000
856.003540	181.900000
856.037109	192.000000
856.070618	188.800000
856.104187	181.500000
856.137695	186.200000
856.171265	178.300000
856.204834	188.300000
856.238403	192.900000
856.271912	185.500000
856.305481	189.900000
856.338989	183.300000
856.372559	191.200000
856.406128	190.400000
856.439636	193.200000
856.473145	186.100000
856.506653	194.700000
856.540222	186.800000
856.573792	195.200000
856.607300	193.100000
856.640808	182.500000
856.674377	189.200000
856.707825	217.400000
856.741394	193.200000
856.774902	184.700000
856.808472	180.800000
856.841980	191.100000
856.875488	195.800000
856.908936	180.500000
856.942505	185.900000
856.976013	187.900000
857.009521	184.300000
857.043030	188.400000
857.076477	187.700000
857.110046	194.000000
857.143555	189.400000
857.177063	192.800000
857.210571	185.400000
857.244080	182.900000
857.277527	191.200000
857.311035	188.500000
857.344543	192.000000
857.378052	189.300000
857.411499	193.100000
857.445068	197.800000
857.478516	188.400000
857.512024	183.100000
857.545532	186.100000
857.578979	190.200000
857.612427	186.600000
857.645874	183.400000
857.679382	189.700000
857.712891	192.700000
857.746399	187.400000
857.779846	194.400000
857.813354	191.700000
857.846741	188.400000
857.880249	183.100000
857.913757	190.400000
857.947266	189.900000
857.980652	191.800000
858.014160	185.800000
858.047546	186.400000
858.081055	186.800000
858.114563	197.500000
858.147949	182.600000
858.181458	193.000000
858.214844	186.600000
858.248352	180.400000
858.281799	192.900000
858.315308	200.700000
858.348694	191.800000
858.382141	197.400000
858.415588	191.100000
858.449036	193.600000
858.482483	191.200000
858.515930	185.500000
858.549377	188.500000
858.582825	196.400000
858.616211	191.700000
858.649658	190.800000
858.683105	184.300000
858.716553	185.900000
858.750000	183.200000
858.783386	186.500000
858.816833	180.300000
858.850281	190.000000
858.883728	190.800000
858.917114	188.600000
858.950562	197.000000
858.983948	197.200000
859.017395	192.300000
859.050781	186.100000
859.084167	184.900000
859.117615	182.700000
859.151062	191.700000
859.184448	185.200000
859.217834	185.900000
859.251282	186.400000
859.284668	184.300000
859.318054	177.400000
859.351440	185.700000
859.384888	195.800000
859.418274	180.500000
859.451721	179.000000
859.485046	192.100000
859.518494	188.600000
859.551819	184.500000
859.585266	189.800000
859.618652	191.700000
859.652039	181.300000
859.685425	184.200000
859.718811	181.000000
859.752197	177.900000
859.785583	196.300000
859.819031	196.000000
859.852356	191.000000
859.885742	185.000000
859.919067	187.600000
859.952454	185.600000
859.985901	193.300000
860.019287	185.300000
860.052612	0.000000
860.085999	0.000000
860.119324	0.000000
860.152710	0.000000
860.186096	0.000000
860.219421	0.000000
860.252808	0.000000
860.286133	0.000000
860.319519	0.000000
860.352905	0.000000
860.386292	0.000000
860.419617	0.000000
860.452942	0.000000
860.486267	0.000000
860.519653	0.000000
860.553040	0.000000
860.586365	0.000000
860.619690	0.000000
860.653076	0.000000
860.686340	0.000000
860.719727	0.000000
860.753113	0.000000
860.786377	0.000000
860.819763	0.000000
860.853027	0.000000
860.886414	0.000000
860.919739	0.000000
860.953125	0.000000
860.986389	0.000000
861.019714	0.000000
861.053040	0.000000
861.086365	0.000000
861.119690	0.000000
861.153076	0.000000
861.186340	0.000000
861.219666	0.000000
861.252930	0.000000
861.286316	0.000000
861.319641	0.000000
861.352905	0.000000
861.386230	0.000000
861.419495	0.000000
861.452820	0.000000
861.486145	0.000000
861.519470	0.000000
861.552734	0.000000
861.586060	0.000000
861.619324	0.000000
861.652649	0.000000
861.685974	0.000000
861.719238	0.000000
861.752563	0.000000
861.785828	0.000000
861.819092	0.000000
861.852417	0.000000
861.885742	0.000000
861.918945	0.000000
861.952271	0.000000
861.985535	0.000000
862.018799	0.000000
862.052124	0.000000
862.085449	0.000000
862.118652	0.000000
862.151978	0.000000
862.185181	0.000000
862.218506	0.000000
862.251770	0.000000
862.285034	0.000000
862.318298	0.000000
862.351562	0.000000
862.384827	0.000000
862.418091	0.000000
862.451355	0.000000
862.484619	0.000000
862.517883	0.000000
862.551086	0.000000
862.584351	0.000000
862.617676	0.000000
862.650940	0.000000
862.684143	0.000000
862.717407	0.000000
862.750610	0.000000
862.783875	0.000000
862.817139	0.000000
862.850342	0.000000
862.883606	0.000000
862.916870	0.000000
862.950073	0.000000
862.983337	0.000000
863.016602	0.000000
863.049805	0.000000
863.083069	0.000000
863.116211	0.000000
863.149475	0.000000
863.182739	0.000000
863.216003	0.000000
863.249146	0.000000
863.282410	0.000000
863.315613	0.000000
863.348816	0.000000
863.382080	0.000000
863.415222	0.000000
863.448486	0.000000
863.481689	0.000000
863.514893	0.000000
863.548157	0.000000
863.581360	0.000000
863.614502	0.000000
863.647766	0.000000
863.680908	0.000000
863.714172	0.000000
863.747375	0.000000
863.780579	0.000000
863.813721	0.000000
863.846985	0.000000
863.880127	0.000000
863.913330	0.000000
863.946533	0.000000
863.979675	0.000000
864.012939	0.000000
