Model Number: SPM-001-M   
Serial Number: 10090201
Firmware Version: 004.17.6
Exposure Time: 500000.000000us
Data Taken on: 20-03-2021 09:20:23.658
Wavelength	Amplitude
733.770752	0.000000
733.808716	0.000000
733.846619	0.000000
733.884583	0.000000
733.922546	0.000000
733.960449	0.000000
733.998413	0.000000
734.036377	0.000000
734.074219	0.000000
734.112183	0.000000
734.150085	0.000000
734.188049	0.000000
734.226013	0.000000
734.263916	0.000000
734.301819	0.000000
734.339783	0.000000
734.377686	0.000000
734.415588	0.000000
734.453552	0.000000
734.491455	0.000000
734.529419	0.000000
734.567322	0.000000
734.605225	0.000000
734.643127	0.000000
734.681091	0.000000
734.718994	0.000000
734.756897	0.000000
734.794800	0.000000
734.832703	0.000000
734.870667	0.000000
734.908508	0.000000
734.946472	0.000000
734.984375	0.000000
735.022278	0.000000
735.060181	0.000000
735.098083	0.000000
735.135986	0.000000
735.173889	0.000000
735.211792	0.000000
735.249695	0.000000
735.287598	0.000000
735.325439	0.000000
735.363403	0.000000
735.401306	0.000000
735.439148	0.000000
735.477051	0.000000
735.515015	0.000000
735.552856	0.000000
735.590759	0.000000
735.628662	0.000000
735.666504	0.000000
735.704407	0.000000
735.742310	0.000000
735.780212	0.000000
735.818115	0.000000
735.856018	0.000000
735.893860	0.000000
735.931763	0.000000
735.969604	0.000000
736.007507	0.000000
736.045410	0.000000
736.083252	0.000000
736.121094	0.000000
736.158997	0.000000
736.196838	0.000000
736.234741	0.000000
736.272644	0.000000
736.310486	0.000000
736.348389	0.000000
736.386230	0.000000
736.424072	0.000000
736.461975	0.000000
736.499878	0.000000
736.537720	0.000000
736.575562	0.000000
736.613403	0.000000
736.651306	0.000000
736.689148	0.000000
736.726990	0.000000
736.764893	0.000000
736.802734	0.000000
736.840576	0.000000
736.878418	0.000000
736.916321	0.000000
736.954102	0.000000
736.992004	0.000000
737.029846	0.000000
737.067688	0.000000
737.105530	0.000000
737.143372	0.000000
737.181213	0.000000
737.219116	0.000000
737.256897	0.000000
737.294739	0.000000
737.332642	0.000000
737.370422	0.000000
737.408325	0.000000
737.446167	0.000000
737.483948	0.000000
737.521790	0.000000
737.559692	0.000000
737.597473	0.000000
737.635315	0.000000
737.673157	0.000000
737.710999	0.000000
737.748840	0.000000
737.786621	0.000000
737.824463	0.000000
737.862305	0.000000
737.900085	0.000000
737.937927	0.000000
737.975769	0.000000
738.013550	0.000000
738.051392	0.000000
738.089233	0.000000
738.127014	0.000000
738.164856	0.000000
738.202698	0.000000
738.240479	0.000000
738.278320	0.000000
738.316162	0.000000
738.353943	0.000000
738.391785	0.000000
738.429565	0.000000
738.467407	0.000000
738.505188	0.000000
738.542969	0.000000
738.580811	0.000000
738.618652	0.000000
738.656372	0.000000
738.694214	0.000000
738.732056	0.000000
738.769836	0.000000
738.807617	0.000000
738.845459	0.000000
738.883240	0.000000
738.921021	0.000000
738.958862	0.000000
738.996582	0.000000
739.034424	0.000000
739.072205	0.000000
739.109985	0.000000
739.147827	0.000000
739.185547	0.000000
739.223389	0.000000
739.261169	0.000000
739.298889	0.000000
739.336731	0.000000
739.374512	0.000000
739.412292	0.000000
739.450073	0.000000
739.487854	0.000000
739.525635	0.000000
739.563416	0.000000
739.601135	0.000000
739.638977	0.000000
739.676758	0.000000
739.714478	0.000000
739.752258	0.000000
739.790100	0.000000
739.827820	0.000000
739.865601	0.000000
739.903381	0.000000
739.941101	0.000000
739.978882	192.600000
740.016724	188.800000
740.054443	194.200000
740.092224	186.000000
740.130005	185.500000
740.167725	185.700000
740.205505	184.700000
740.243225	196.500000
740.281006	189.400000
740.318787	181.900000
740.356506	194.200000
740.394287	193.700000
740.432068	184.900000
740.469727	183.300000
740.507507	191.700000
740.545288	188.600000
740.583008	191.300000
740.620789	188.600000
740.658569	181.100000
740.696228	188.000000
740.734009	195.300000
740.771790	176.300000
740.809509	193.300000
740.847229	184.000000
740.884949	185.900000
740.922729	181.900000
740.960449	186.800000
740.998169	183.400000
741.035950	186.200000
741.073669	190.300000
741.111389	187.500000
741.149170	198.700000
741.186890	200.500000
741.224609	192.300000
741.262329	191.100000
741.300110	200.500000
741.337769	184.300000
741.375549	184.400000
741.413208	192.000000
741.450989	185.000000
741.488708	187.000000
741.526367	188.400000
741.564148	193.100000
741.601868	194.500000
741.639526	190.300000
741.677307	190.800000
741.715027	191.800000
741.752686	185.900000
741.790466	195.800000
741.828186	190.900000
741.865845	184.400000
741.903564	179.500000
741.941345	188.600000
741.979004	185.800000
742.016724	191.200000
742.054382	189.200000
742.092102	194.500000
742.129822	181.900000
742.167480	186.700000
742.205200	187.400000
742.242920	191.000000
742.280640	193.100000
742.318359	185.000000
742.356079	185.300000
742.393738	192.700000
742.431396	188.400000
742.469116	191.600000
742.506775	178.300000
742.544495	190.500000
742.582214	192.500000
742.619873	187.000000
742.657593	196.500000
742.695251	191.700000
742.732971	187.800000
742.770630	191.500000
742.808289	187.400000
742.846008	189.400000
742.883728	191.600000
742.921326	188.500000
742.959045	185.400000
742.996765	188.600000
743.034424	188.800000
743.072083	185.900000
743.109802	188.700000
743.147400	184.000000
743.185120	190.800000
743.222839	189.800000
743.260437	194.300000
743.298157	191.300000
743.335754	181.400000
743.373474	186.900000
743.411133	181.300000
743.448792	188.700000
743.486450	189.000000
743.524170	181.400000
743.561768	189.500000
743.599487	197.000000
743.637146	200.900000
743.674744	189.100000
743.712463	189.500000
743.750122	190.300000
743.787720	191.900000
743.825439	186.000000
743.863037	187.100000
743.900696	189.400000
743.938416	214.900000
743.976013	188.400000
744.013672	198.300000
744.051331	194.100000
744.088928	198.400000
744.126587	195.600000
744.164307	190.000000
744.201904	185.400000
744.239563	192.600000
744.277222	191.700000
744.314819	189.100000
744.352478	195.900000
744.390137	190.400000
744.427734	190.800000
744.465393	186.500000
744.502991	184.700000
744.540649	192.600000
744.578308	190.000000
744.615906	183.200000
744.653564	178.400000
744.691223	192.800000
744.728821	181.700000
744.766418	188.500000
744.804077	192.000000
744.841675	185.900000
744.879333	182.400000
744.916992	187.600000
744.954529	186.800000
744.992187	196.100000
745.029785	187.800000
745.067444	185.800000
745.105042	190.000000
745.142639	193.000000
745.180298	198.900000
745.217896	186.500000
745.255493	189.400000
745.293152	193.900000
745.330750	193.800000
745.368347	198.300000
745.405945	193.200000
745.443604	190.600000
745.481140	193.300000
745.518799	188.600000
745.556396	193.900000
745.593994	193.300000
745.631592	190.000000
745.669189	184.200000
745.706787	190.800000
745.744385	185.200000
745.781982	192.000000
745.819580	187.500000
745.857178	189.900000
745.894775	189.400000
745.932373	190.500000
745.969971	190.100000
746.007568	182.200000
746.045166	198.100000
746.082764	194.500000
746.120300	192.000000
746.157898	193.100000
746.195557	188.400000
746.233093	183.600000
746.270691	192.600000
746.308228	191.800000
746.345825	193.900000
746.383423	193.500000
746.420959	184.900000
746.458557	187.100000
746.496155	186.500000
746.533691	188.700000
746.571289	184.700000
746.608887	189.300000
746.646423	189.900000
746.684021	190.100000
746.721619	188.500000
746.759155	190.600000
746.796753	183.100000
746.834351	183.900000
746.871826	186.500000
746.909424	196.800000
746.946960	192.800000
746.984558	187.500000
747.022156	187.900000
747.059631	196.500000
747.097229	192.000000
747.134827	189.200000
747.172363	197.900000
747.209900	192.600000
747.247498	184.700000
747.285034	196.500000
747.322571	197.500000
747.360168	187.500000
747.397644	182.400000
747.435242	194.000000
747.472778	195.700000
747.510315	187.900000
747.547913	187.300000
747.585388	196.300000
747.622925	188.600000
747.660522	181.000000
747.697998	186.100000
747.735596	187.700000
747.773132	185.500000
747.810669	188.900000
747.848206	193.500000
747.885742	183.200000
747.923279	184.200000
747.960815	192.500000
747.998352	189.700000
748.035889	194.500000
748.073425	193.600000
748.110901	186.600000
748.148437	183.800000
748.185974	189.300000
748.223511	198.000000
748.261047	190.300000
748.298584	190.200000
748.336060	188.000000
748.373596	190.800000
748.411133	209.300000
748.448608	185.100000
748.486145	193.200000
748.523682	196.500000
748.561218	195.600000
748.598755	191.000000
748.636292	192.900000
748.673706	186.400000
748.711243	196.100000
748.748718	191.300000
748.786255	189.800000
748.823792	189.200000
748.861267	183.500000
748.898804	192.400000
748.936340	191.800000
748.973816	188.200000
749.011292	196.300000
749.048828	190.700000
749.086304	191.500000
749.123840	201.700000
749.161316	185.300000
749.198792	199.600000
749.236328	195.700000
749.273743	190.100000
749.311279	188.600000
749.348816	192.100000
749.386230	189.500000
749.423767	179.100000
749.461304	193.700000
749.498718	190.400000
749.536255	195.600000
749.573730	203.300000
749.611206	195.500000
749.648682	188.200000
749.686218	189.500000
749.723633	194.800000
749.761169	187.400000
749.798645	186.200000
749.836060	188.700000
749.873596	187.600000
749.911011	189.500000
749.948547	196.100000
749.986023	188.700000
750.023437	189.800000
750.060913	183.100000
750.098450	183.400000
750.135864	187.100000
750.173340	189.500000
750.210815	192.400000
750.248291	184.700000
750.285767	189.500000
750.323242	195.900000
750.360657	192.000000
750.398132	183.700000
750.435608	193.000000
750.473022	185.000000
750.510498	185.700000
750.547974	185.300000
750.585449	188.100000
750.622925	178.400000
750.660339	200.400000
750.697815	189.500000
750.735291	188.800000
750.772644	190.900000
750.810120	190.800000
750.847595	192.700000
750.885010	185.600000
750.922485	198.700000
750.959961	188.600000
750.997375	197.800000
751.034851	194.000000
751.072266	195.700000
751.109680	183.600000
751.147156	196.000000
751.184570	193.200000
751.221985	191.000000
751.259460	181.200000
751.296875	189.400000
751.334290	189.300000
751.371765	192.800000
751.409180	192.800000
751.446594	195.200000
751.484070	191.300000
751.521423	192.100000
751.558899	191.600000
751.596375	197.400000
751.633728	197.700000
751.671204	201.600000
751.708618	186.300000
751.746033	191.300000
751.783447	184.600000
751.820801	187.100000
751.858276	191.100000
751.895691	189.900000
751.933105	185.900000
751.970520	185.000000
752.007935	188.900000
752.045349	194.100000
752.082764	188.800000
752.120178	187.800000
752.157532	184.900000
752.195007	186.800000
752.232422	191.900000
752.269775	193.800000
752.307190	192.600000
752.344543	185.500000
752.382019	189.100000
752.419434	188.400000
752.456787	193.200000
752.494202	193.700000
752.531616	192.100000
752.568970	194.600000
752.606384	189.500000
752.643799	191.800000
752.681152	199.500000
752.718567	192.500000
752.755981	183.200000
752.793335	192.800000
752.830750	181.700000
752.868164	196.600000
752.905518	184.600000
752.942932	193.900000
752.980225	184.800000
753.017639	196.000000
753.055054	189.400000
753.092407	192.200000
753.129822	196.600000
753.167175	201.000000
753.204529	189.700000
753.241943	187.100000
753.279358	184.400000
753.316650	194.200000
753.354065	191.300000
753.391479	195.100000
753.428772	199.800000
753.466187	193.900000
753.503479	184.500000
753.540894	188.600000
753.578308	184.500000
753.615601	184.500000
753.653015	191.100000
753.690369	187.800000
753.727722	185.500000
753.765076	183.600000
753.802490	182.700000
753.839783	181.400000
753.877136	186.800000
753.914551	204.000000
753.951843	185.200000
753.989258	194.400000
754.026611	190.500000
754.063904	193.300000
754.101257	185.600000
754.138611	183.300000
754.175964	190.100000
754.213318	201.600000
754.250610	183.000000
754.288025	187.000000
754.325378	185.200000
754.362671	196.300000
754.400024	188.400000
754.437378	199.300000
754.474670	199.400000
754.512085	186.500000
754.549438	190.500000
754.586731	188.800000
754.624084	189.100000
754.661438	185.800000
754.698730	198.200000
754.736084	188.900000
754.773376	190.200000
754.810730	192.200000
754.848083	188.500000
754.885315	194.200000
754.922668	183.500000
754.960022	185.500000
754.997314	194.600000
755.034668	191.300000
755.072021	191.900000
755.109253	188.200000
755.146606	198.200000
755.183960	188.100000
755.221252	200.300000
755.258545	195.800000
755.295898	196.700000
755.333191	197.100000
755.370544	194.000000
755.407776	190.800000
755.445129	192.200000
755.482422	195.800000
755.519714	187.700000
755.557068	183.600000
755.594360	182.900000
755.631653	196.100000
755.668945	201.800000
755.706299	194.100000
755.743530	203.300000
755.780884	199.700000
755.818176	197.700000
755.855408	196.700000
755.892761	194.500000
755.930054	193.200000
755.967346	194.000000
756.004639	196.300000
756.041870	191.500000
756.079224	195.700000
756.116516	189.400000
756.153748	196.600000
756.191040	200.700000
756.228394	195.300000
756.265625	189.900000
756.302917	193.200000
756.340210	190.800000
756.377441	200.600000
756.414795	201.200000
756.452087	192.500000
756.489319	187.900000
756.526611	196.800000
756.563843	197.000000
756.601135	204.500000
756.638428	202.900000
756.675659	195.000000
756.712952	199.700000
756.750244	198.000000
756.787476	197.100000
756.824768	203.500000
756.862061	193.600000
756.899292	242.500000
756.936584	199.200000
756.973816	206.400000
757.011047	208.100000
757.048340	196.300000
757.085632	197.100000
757.122864	211.900000
757.160156	193.600000
757.197327	199.000000
757.234619	200.100000
757.271912	195.600000
757.309082	200.600000
757.346375	192.600000
757.383667	203.200000
757.420837	198.100000
757.458130	199.300000
757.495422	196.200000
757.532593	199.900000
757.569885	192.300000
757.607117	193.900000
757.644348	199.000000
757.681580	210.500000
757.718811	185.600000
757.756042	197.800000
757.793335	195.600000
757.830505	202.100000
757.867798	196.900000
757.905029	195.800000
757.942200	201.100000
757.979492	196.100000
758.016724	198.500000
758.053894	197.300000
758.091187	216.700000
758.128418	200.300000
758.165588	199.700000
758.202820	211.900000
758.240112	202.400000
758.277283	212.800000
758.314514	202.300000
758.351685	199.100000
758.388916	211.300000
758.426147	209.500000
758.463379	210.500000
758.500610	206.000000
758.537842	201.600000
758.575012	209.800000
758.612244	199.200000
758.649475	215.900000
758.686646	195.800000
758.723877	211.000000
758.761108	210.600000
758.798279	204.300000
758.835510	205.900000
758.872742	210.400000
758.909851	206.100000
758.947083	208.500000
758.984253	205.600000
759.021484	210.400000
759.058716	208.900000
759.095886	209.300000
759.133057	204.100000
759.170288	208.500000
759.207458	202.000000
759.244690	217.300000
759.281860	215.200000
759.319031	205.900000
759.356262	204.100000
759.393433	205.800000
759.430603	206.300000
759.467773	205.500000
759.505005	213.500000
759.542175	213.200000
759.579346	207.300000
759.616516	208.300000
759.653687	210.800000
759.690918	205.700000
759.728027	208.900000
759.765259	208.600000
759.802429	211.100000
759.839539	210.900000
759.876770	217.400000
759.913940	217.700000
759.951111	211.400000
759.988281	210.600000
760.025452	205.700000
760.062561	205.100000
760.099792	217.500000
760.136963	213.100000
760.174072	208.700000
760.211243	204.200000
760.248413	206.400000
760.285583	206.200000
760.322754	220.300000
760.359863	216.300000
760.397034	219.400000
760.434204	209.800000
760.471375	212.000000
760.508545	210.200000
760.545715	211.700000
760.582825	207.800000
760.619995	216.200000
760.657166	206.500000
760.694275	220.900000
760.731445	215.100000
760.768555	215.300000
760.805664	216.200000
760.842834	214.500000
760.879944	217.300000
760.917114	215.400000
760.954285	212.700000
760.991394	208.200000
761.028564	220.500000
761.065674	218.000000
761.102783	210.300000
761.139954	219.200000
761.177124	218.200000
761.214172	222.400000
761.251343	213.600000
761.288452	216.200000
761.325562	219.100000
761.362732	213.800000
761.399841	214.800000
761.436951	218.900000
761.474121	213.900000
761.511169	219.600000
761.548340	222.000000
761.585449	221.200000
761.622559	221.500000
761.659668	221.200000
761.696838	224.200000
761.733887	222.300000
761.771057	217.700000
761.808167	221.300000
761.845276	226.200000
761.882385	232.600000
761.919434	224.000000
761.956604	242.000000
761.993713	219.600000
762.030762	231.100000
762.067871	223.700000
762.105042	223.400000
762.142090	233.000000
762.179199	227.100000
762.216309	231.500000
762.253418	240.700000
762.290527	236.600000
762.327637	233.600000
762.364685	222.100000
762.401794	232.200000
762.438904	229.800000
762.475952	224.800000
762.513062	225.700000
762.550110	224.500000
762.587219	240.700000
762.624329	240.000000
762.661377	234.500000
762.698486	234.000000
762.735596	232.100000
762.772644	227.800000
762.809753	224.200000
762.846863	232.800000
762.883911	235.900000
762.921021	236.700000
762.958069	234.400000
762.995117	242.500000
763.032227	242.000000
763.069336	236.200000
763.106323	231.800000
763.143433	229.800000
763.180481	237.600000
763.217590	239.500000
763.254639	233.400000
763.291687	237.300000
763.328735	244.500000
763.365845	238.000000
763.402893	238.100000
763.439941	240.100000
763.477051	242.600000
763.514038	246.600000
763.551147	237.900000
763.588196	240.600000
763.625244	239.700000
763.662292	246.000000
763.699402	251.300000
763.736389	247.900000
763.773499	256.700000
763.810486	250.000000
763.847534	245.900000
763.884644	248.100000
763.921631	245.400000
763.958679	256.600000
763.995728	246.700000
764.032776	257.100000
764.069824	244.600000
764.106873	253.000000
764.143860	258.400000
764.180969	248.200000
764.218018	257.400000
764.255005	251.000000
764.292053	252.500000
764.329102	262.800000
764.366089	262.000000
764.403137	262.300000
764.440125	250.400000
764.477173	256.200000
764.514221	257.400000
764.551208	256.600000
764.588257	251.200000
764.625305	262.300000
764.662292	267.000000
764.699341	271.400000
764.736389	261.900000
764.773376	279.900000
764.810425	264.800000
764.847473	271.700000
764.884399	269.100000
764.921448	276.700000
764.958435	272.100000
764.995483	263.300000
765.032532	279.800000
765.069458	263.500000
765.106506	265.200000
765.143555	265.300000
765.180481	270.100000
765.217529	276.900000
765.254578	262.500000
765.291504	274.000000
765.328552	269.600000
765.365540	267.200000
765.402527	282.100000
765.439575	268.700000
765.476501	264.000000
765.513550	267.100000
765.550537	269.800000
765.587463	277.600000
765.624512	267.200000
765.661499	262.600000
765.698486	277.800000
765.735474	268.400000
765.772461	270.000000
765.809448	278.800000
765.846436	275.700000
765.883423	282.900000
765.920410	276.700000
765.957397	270.900000
765.994385	276.300000
766.031311	285.800000
766.068359	280.000000
766.105286	277.800000
766.142273	286.800000
766.179260	280.600000
766.216187	274.900000
766.253174	273.500000
766.290161	279.300000
766.327148	282.200000
766.364136	286.300000
766.401123	298.000000
766.438049	277.700000
766.475037	291.700000
766.512024	287.700000
766.548950	301.900000
766.585937	297.800000
766.622864	292.200000
766.659790	291.000000
766.696777	279.800000
766.733704	296.100000
766.770691	287.800000
766.807678	301.100000
766.844604	295.500000
766.881531	293.200000
766.918518	300.800000
766.955444	303.200000
766.992432	295.600000
767.029358	299.900000
767.066284	300.900000
767.103271	299.500000
767.140198	329.300000
767.177124	314.800000
767.214050	304.500000
767.251038	306.300000
767.287964	305.100000
767.324890	301.100000
767.361816	308.000000
767.398743	313.100000
767.435730	307.400000
767.472595	312.100000
767.509583	318.100000
767.546509	305.200000
767.583374	313.500000
767.620361	304.900000
767.657288	310.900000
767.694214	311.400000
767.731140	312.100000
767.768066	312.500000
767.804993	319.700000
767.841919	308.900000
767.878845	316.300000
767.915710	325.500000
767.952698	318.800000
767.989563	322.800000
768.026489	322.900000
768.063416	317.800000
768.100281	319.100000
768.137207	329.400000
768.174133	328.900000
768.211060	329.000000
768.247986	326.600000
768.284912	324.700000
768.321777	331.400000
768.358704	326.000000
768.395630	330.600000
768.432495	326.100000
768.469421	331.600000
768.506348	335.600000
768.543152	342.200000
768.580078	339.700000
768.616943	340.700000
768.653870	344.300000
768.690796	341.800000
768.727661	340.500000
768.764587	341.300000
768.801453	337.600000
768.838318	351.500000
768.875244	348.500000
768.912109	352.800000
768.948975	345.300000
768.985901	346.400000
769.022766	347.600000
769.059631	352.400000
769.096558	347.800000
769.133362	351.900000
769.170288	352.700000
769.207214	351.400000
769.244019	359.800000
769.280945	360.300000
769.317810	365.900000
769.354675	360.100000
769.391541	369.200000
769.428406	365.800000
769.465271	374.400000
769.502136	364.400000
769.539062	370.100000
769.575867	370.300000
769.612732	375.300000
769.649597	380.500000
769.686462	380.700000
769.723328	379.300000
769.760193	375.700000
769.797058	377.800000
769.833923	389.000000
769.870728	381.700000
769.907593	386.200000
769.944519	386.800000
769.981323	388.200000
770.018188	390.600000
770.055054	386.500000
770.091858	387.700000
770.128723	397.700000
770.165588	405.900000
770.202393	388.400000
770.239258	400.900000
770.276062	396.900000
770.312927	395.800000
770.349792	404.900000
770.386597	401.500000
770.423462	412.200000
770.460327	420.400000
770.497131	402.400000
770.533997	398.000000
770.570862	413.800000
770.607605	414.900000
770.644470	411.200000
770.681335	410.700000
770.718140	411.100000
770.754944	403.200000
770.791809	403.900000
770.828613	407.800000
770.865479	407.500000
770.902222	419.300000
770.939087	414.200000
770.975952	404.900000
771.012695	408.800000
771.049561	425.500000
771.086365	413.100000
771.123169	411.000000
771.159973	416.300000
771.196838	414.400000
771.233582	416.400000
771.270447	418.600000
771.307251	423.200000
771.344055	415.900000
771.380859	422.500000
771.417664	415.500000
771.454468	424.700000
771.491272	425.000000
771.528076	425.000000
771.564880	422.500000
771.601685	431.900000
771.638428	422.300000
771.675293	428.700000
771.712097	419.100000
771.748840	437.700000
771.785645	427.500000
771.822449	431.400000
771.859253	436.100000
771.896057	432.400000
771.932861	446.600000
771.969604	436.600000
772.006409	429.100000
772.043213	443.100000
772.079956	441.900000
772.116760	433.700000
772.153503	435.900000
772.190308	449.000000
772.227112	441.400000
772.263855	436.100000
772.300659	442.000000
772.337463	450.400000
772.374207	440.700000
772.411011	439.200000
772.447754	441.000000
772.484497	458.300000
772.521301	451.500000
772.558105	450.000000
772.594849	454.000000
772.631592	458.700000
772.668396	455.900000
772.705139	462.300000
772.741882	460.200000
772.778625	474.700000
772.815430	475.100000
772.852173	466.600000
772.888916	478.200000
772.925720	476.900000
772.962463	483.100000
772.999207	480.900000
773.035950	485.800000
773.072754	485.800000
773.109436	482.400000
773.146240	483.800000
773.182922	480.500000
773.219727	491.200000
773.256470	490.900000
773.293152	480.400000
773.329956	487.600000
773.366699	494.600000
773.403381	483.800000
773.440186	492.600000
773.476929	499.200000
773.513611	491.500000
773.550354	495.100000
773.587158	495.600000
773.623840	489.800000
773.660583	500.400000
773.697327	515.400000
773.734009	506.700000
773.770813	506.700000
773.807495	504.800000
773.844238	505.700000
773.880981	522.000000
773.917664	521.200000
773.954407	525.800000
773.991150	520.400000
774.027832	525.500000
774.064575	516.100000
774.101318	525.300000
774.138000	533.700000
774.174744	529.700000
774.211487	533.600000
774.248108	522.600000
774.284851	520.600000
774.321594	530.300000
774.358276	536.600000
774.395020	546.800000
774.431702	544.200000
774.468384	538.000000
774.505127	531.000000
774.541809	544.400000
774.578491	552.100000
774.615234	555.200000
774.651917	547.900000
774.688599	557.300000
774.725342	562.700000
774.762024	558.600000
774.798706	564.500000
774.835449	568.300000
774.872070	576.300000
774.908813	572.200000
774.945496	571.700000
774.982178	568.400000
775.018860	574.400000
775.055542	576.500000
775.092224	583.500000
775.128967	592.500000
775.165588	587.100000
775.202271	578.900000
775.239014	590.600000
775.275635	593.700000
775.312317	592.200000
775.349060	595.500000
775.385681	597.400000
775.422363	586.500000
775.459045	597.500000
775.495667	600.600000
775.532410	607.600000
775.569092	609.300000
775.605713	611.700000
775.642395	608.300000
775.679016	611.200000
775.715698	610.000000
775.752380	617.200000
775.789001	610.900000
775.825684	613.900000
775.862366	618.300000
775.898987	629.200000
775.935669	617.600000
775.972351	640.600000
776.008972	637.800000
776.045654	635.700000
776.082336	630.100000
776.118958	633.200000
776.155640	632.600000
776.192322	644.300000
776.228882	648.300000
776.265564	647.700000
776.302185	644.900000
776.338867	651.200000
776.375488	636.600000
776.412109	648.000000
776.448792	655.300000
776.485413	660.000000
776.522034	651.600000
776.558716	646.800000
776.595337	645.100000
776.631958	649.900000
776.668579	655.500000
776.705261	661.300000
776.741882	657.800000
776.778503	658.600000
776.815186	652.100000
776.851746	661.800000
776.888367	660.800000
776.924988	672.200000
776.961609	660.200000
776.998291	662.900000
777.034851	652.100000
777.071472	667.200000
777.108154	662.000000
777.144714	675.000000
777.181335	673.300000
777.218018	664.900000
777.254578	670.200000
777.291199	667.900000
777.327759	676.700000
777.364380	681.700000
777.401062	687.100000
777.437622	699.400000
777.474243	685.100000
777.510864	691.400000
777.547424	685.500000
777.584045	685.100000
777.620667	691.200000
777.657227	694.000000
777.693848	694.900000
777.730469	711.200000
777.767029	701.900000
777.803650	703.200000
777.840271	696.100000
777.876831	699.400000
777.913452	702.700000
777.950012	685.700000
777.986633	688.000000
778.023193	685.100000
778.059753	688.400000
778.096375	692.600000
778.132996	708.300000
778.169556	695.700000
778.206116	700.900000
778.242737	696.300000
778.279297	707.100000
778.315857	697.100000
778.352478	703.800000
778.389038	715.100000
778.425598	717.800000
778.462219	721.400000
778.498718	725.200000
778.535339	729.000000
778.571838	729.200000
778.608459	737.100000
778.645020	730.600000
778.681580	738.000000
778.718140	743.100000
778.754761	735.300000
778.791260	739.500000
778.827881	753.500000
778.864441	750.400000
778.900940	754.600000
778.937561	752.000000
778.974121	760.300000
779.010620	741.700000
779.047241	747.500000
779.083801	759.700000
779.120300	759.500000
779.156860	761.200000
779.193359	758.800000
779.229980	760.700000
779.266541	767.200000
779.303040	773.300000
779.339600	763.400000
779.376160	759.600000
779.412659	767.800000
779.449219	757.000000
779.485779	772.800000
779.522278	767.500000
779.558838	773.500000
779.595398	775.100000
779.631897	779.200000
779.668457	772.400000
779.705017	781.300000
779.741516	772.200000
779.778076	765.700000
779.814575	778.700000
779.851074	785.400000
779.887634	783.800000
779.924133	792.800000
779.960693	780.400000
779.997253	789.500000
780.033691	794.300000
780.070251	801.200000
780.106812	818.300000
780.143250	812.500000
780.179810	809.000000
780.216370	814.000000
780.252808	821.800000
780.289368	835.900000
780.325867	833.400000
780.362366	833.800000
780.398865	844.500000
780.435364	831.200000
780.471863	847.700000
780.508423	843.000000
780.544861	847.500000
780.581421	854.600000
780.617920	846.900000
780.654419	840.900000
780.690918	849.300000
780.727417	857.100000
780.763916	852.500000
780.800415	862.500000
780.836914	853.900000
780.873352	858.800000
780.909912	849.300000
780.946411	857.700000
780.982849	862.500000
781.019348	883.300000
781.055786	877.700000
781.092346	875.000000
781.128845	884.300000
781.165283	890.700000
781.201782	897.600000
781.238281	900.100000
781.274719	907.600000
781.311218	903.200000
781.347717	916.900000
781.384155	902.300000
781.420654	905.300000
781.457092	916.700000
781.493591	915.100000
781.530090	907.600000
781.566528	912.100000
781.602966	915.800000
781.639465	915.300000
781.675903	907.800000
781.712402	922.600000
781.748901	928.000000
781.785278	921.300000
781.821777	923.600000
781.858276	923.500000
781.894714	942.400000
781.931152	930.300000
781.967651	940.300000
782.004089	933.800000
782.040527	943.200000
782.076965	938.200000
782.113403	944.100000
782.149902	945.300000
782.186340	936.400000
782.222778	954.700000
782.259277	940.500000
782.295654	936.200000
782.332092	950.000000
782.368591	944.600000
782.404968	931.800000
782.441467	937.900000
782.477905	939.300000
782.514282	933.400000
782.550781	947.100000
782.587219	947.300000
782.623596	949.600000
782.660095	949.300000
782.696472	954.400000
782.732910	955.700000
782.769348	955.700000
782.805786	976.200000
782.842224	973.100000
782.878662	967.800000
782.915039	966.200000
782.951477	963.400000
782.987915	954.100000
783.024292	949.000000
783.060730	918.500000
783.097168	824.700000
783.133545	690.100000
783.169983	530.200000
783.206421	399.200000
783.242798	332.100000
783.279236	329.000000
783.315613	342.300000
783.352051	342.600000
783.388489	314.700000
783.424866	275.800000
783.461304	260.400000
783.497681	276.300000
783.534058	300.400000
783.570496	338.800000
783.606934	350.500000
783.643250	348.200000
783.679687	334.500000
783.716125	341.100000
783.752441	436.100000
783.788879	593.600000
783.825317	749.900000
783.861633	876.200000
783.898071	935.400000
783.934448	976.500000
783.970825	997.600000
784.007263	1005.100000
784.043579	1005.400000
784.080017	1017.500000
784.116394	1009.000000
784.152710	1010.900000
784.189148	1022.300000
784.225525	1031.500000
784.261902	1015.100000
784.298279	1010.000000
784.334656	1012.500000
784.371033	1001.700000
784.407410	1008.100000
784.443787	998.200000
784.480164	983.500000
784.516541	963.000000
784.552856	969.200000
784.589233	961.200000
784.625610	964.200000
784.661987	997.600000
784.698364	988.600000
784.734741	980.700000
784.771057	980.000000
784.807434	985.500000
784.843811	1003.100000
784.880127	1007.500000
784.916504	1040.100000
784.952881	1046.100000
784.989197	1042.200000
785.025574	1039.800000
785.061951	1049.300000
785.098267	1069.700000
785.134644	1068.400000
785.170959	1072.200000
785.207275	1077.300000
785.243652	1068.600000
785.279968	1048.200000
785.316345	1050.000000
785.352722	1051.100000
785.388977	1054.200000
785.425354	1037.700000
785.461731	1015.300000
785.498047	1006.600000
785.534363	996.100000
785.570679	992.100000
785.606995	1001.900000
785.643372	1012.100000
785.679687	1005.000000
785.716003	989.200000
785.752380	987.400000
785.788635	994.200000
785.825012	1017.400000
785.861328	1038.300000
785.897644	1026.400000
785.933960	1044.100000
785.970337	1049.200000
786.006592	1065.200000
786.042908	1079.100000
786.079285	1099.300000
786.115540	1110.900000
786.151855	1113.400000
786.188171	1102.300000
786.224487	1103.700000
786.260803	1097.400000
786.297119	1115.100000
786.333435	1115.700000
786.369751	1110.700000
786.406006	1111.300000
786.442322	1084.700000
786.478638	1072.800000
786.514954	1085.600000
786.551270	1087.400000
786.587585	1097.900000
786.623840	1086.800000
786.660156	1075.100000
786.696472	1062.400000
786.732727	1054.400000
786.769043	1063.400000
786.805298	1060.900000
786.841614	1077.400000
786.877930	1082.200000
786.914124	1070.600000
786.950439	1085.700000
786.986755	1094.800000
787.023010	1107.900000
787.059326	1127.500000
787.095642	1131.900000
787.131836	1145.900000
787.168152	1140.300000
787.204468	1136.500000
787.240723	1159.000000
787.276978	1170.000000
787.313293	1177.700000
787.349548	1177.700000
787.385803	1177.400000
787.422058	1166.300000
787.458313	1162.900000
787.494629	1167.000000
787.530823	1170.800000
787.567139	1154.500000
787.603455	1147.300000
787.639648	1133.100000
787.675903	1133.300000
787.712219	1133.600000
787.748413	1130.700000
787.784729	1145.200000
787.820984	1130.800000
787.857178	1123.800000
787.893494	1122.000000
787.929749	1114.300000
787.965942	1125.500000
788.002258	1146.600000
788.038452	1159.900000
788.074707	1154.000000
788.110962	1158.100000
788.147217	1153.600000
788.183472	1158.200000
788.219727	1166.400000
788.255920	1189.200000
788.292175	1193.600000
788.328430	1191.800000
788.364624	1171.100000
788.400879	1162.000000
788.437134	1170.900000
788.473328	1170.900000
788.509583	1174.100000
788.545837	1168.500000
788.582031	1160.500000
788.618286	1152.000000
788.654480	1147.700000
788.690735	1158.200000
788.726990	1183.100000
788.763184	1181.800000
788.799377	1192.400000
788.835632	1178.300000
788.871826	1190.300000
788.908081	1187.600000
788.944336	1180.100000
788.980469	1200.200000
789.016724	1194.700000
789.052979	1196.600000
789.089111	1174.200000
789.125366	1177.500000
789.161621	1161.100000
789.197754	1177.200000
789.234009	1170.100000
789.270142	1158.200000
789.306396	1150.600000
789.342590	1146.700000
789.378784	1118.200000
789.414978	1112.300000
789.451233	1140.000000
789.487366	1134.400000
789.523621	1146.700000
789.559814	1139.900000
789.595947	1125.000000
789.632202	1131.400000
789.668335	1146.100000
789.704529	1167.900000
789.740784	1194.500000
789.776917	1193.900000
789.813110	1179.200000
789.849304	1193.100000
789.885498	1189.300000
789.921692	1204.000000
789.957886	1217.300000
789.994019	1220.200000
790.030212	1212.100000
790.066406	1214.200000
790.102539	1209.900000
790.138733	1214.300000
790.174927	1216.100000
790.211060	1229.500000
790.247253	1220.700000
790.283386	1211.700000
790.319580	1192.900000
790.355774	1170.800000
790.391907	1171.700000
790.428101	1195.800000
790.464294	1199.400000
790.500427	1202.800000
790.536621	1176.800000
790.572754	1156.700000
790.608887	1156.300000
790.645081	1166.700000
790.681274	1180.200000
790.717346	1191.100000
790.753540	1177.000000
790.789734	1147.100000
790.825867	1122.600000
790.862000	1100.600000
790.898132	1076.500000
790.934265	1059.300000
790.970459	1077.700000
791.006592	1119.600000
791.042725	1172.300000
791.078918	1206.000000
791.114990	1220.300000
791.151184	1240.900000
791.187317	1273.000000
791.223389	1269.900000
791.259583	1258.000000
791.295715	1259.700000
791.331848	1263.100000
791.367981	1274.400000
791.404114	1285.500000
791.440247	1283.300000
791.476379	1288.400000
791.512451	1268.400000
791.548584	1259.200000
791.584778	1248.400000
791.620850	1268.500000
791.656982	1282.800000
791.693115	1285.400000
791.729187	1280.200000
791.765381	1268.100000
791.801514	1266.000000
791.837585	1271.100000
791.873718	1286.400000
791.909851	1310.700000
791.945923	1315.300000
791.982056	1281.700000
792.018188	1273.900000
792.054260	1276.700000
792.090393	1281.700000
792.126465	1276.000000
792.162598	1288.100000
792.198669	1275.800000
792.234741	1273.800000
792.270874	1268.000000
792.307007	1247.800000
792.343079	1248.000000
792.379150	1271.500000
792.415283	1259.600000
792.451355	1257.000000
792.487488	1235.400000
792.523560	1231.400000
792.559631	1226.600000
792.595764	1219.100000
792.631836	1230.800000
792.667908	1249.100000
792.703979	1232.900000
792.740051	1227.300000
792.776184	1231.700000
792.812256	1223.100000
792.848328	1233.300000
792.884399	1248.900000
792.920471	1248.400000
792.956543	1239.300000
792.992615	1242.100000
793.028748	1235.500000
793.064758	1239.400000
793.100830	1266.300000
793.136963	1284.200000
793.172974	1287.000000
793.209045	1272.400000
793.245178	1289.100000
793.281189	1270.300000
793.317261	1274.900000
793.353271	1286.500000
793.389404	1303.800000
793.425476	1292.500000
793.461487	1277.500000
793.497559	1269.100000
793.533630	1270.200000
793.569641	1264.300000
793.605713	1271.500000
793.641785	1283.600000
793.677795	1294.000000
793.713867	1280.200000
793.749878	1280.000000
793.785950	1289.000000
793.822021	1293.800000
793.858032	1280.800000
793.894104	1294.300000
793.930176	1288.100000
793.966187	1289.800000
794.002258	1270.500000
794.038269	1271.300000
794.074280	1273.700000
794.110352	1303.200000
794.146423	1281.600000
794.182373	1271.600000
794.218445	1267.500000
794.254517	1252.900000
794.290466	1238.900000
794.326538	1247.400000
794.362549	1251.500000
794.398560	1261.500000
794.434631	1264.300000
794.470581	1237.000000
794.506653	1223.900000
794.542664	1224.100000
794.578674	1225.700000
794.614685	1224.200000
794.650757	1223.800000
794.686707	1217.500000
794.722778	1202.800000
794.758789	1205.200000
794.794739	1215.500000
794.830811	1244.900000
794.866821	1276.400000
794.902771	1275.600000
794.938843	1259.400000
794.974792	1262.100000
795.010803	1261.000000
795.046814	1255.400000
795.082825	1248.200000
795.118835	1262.500000
795.154846	1242.000000
795.190796	1244.300000
795.226807	1223.600000
795.262817	1221.600000
795.298767	1224.100000
795.334778	1233.000000
795.370850	1223.100000
795.406799	1226.200000
795.442810	1205.800000
795.478821	1200.000000
795.514709	1194.300000
795.550720	1219.500000
795.586670	1204.400000
795.622681	1214.300000
795.658691	1214.200000
795.694641	1203.500000
795.730652	1192.800000
795.766663	1194.800000
795.802551	1203.300000
795.838562	1223.700000
795.874573	1210.700000
795.910522	1207.300000
795.946472	1194.200000
795.982483	1193.200000
796.018433	1193.200000
796.054382	1206.400000
796.090393	1199.100000
796.126282	1197.400000
796.162292	1181.900000
796.198242	1171.500000
796.234192	1170.100000
796.270203	1162.400000
796.306091	1169.900000
796.342041	1184.700000
796.378052	1180.000000
796.413940	1175.700000
796.449951	1180.600000
796.485901	1172.300000
796.521790	1177.800000
796.557800	1203.700000
796.593689	1212.000000
796.629639	1200.800000
796.665649	1185.800000
796.701599	1176.300000
796.737488	1171.400000
796.773437	1182.000000
796.809387	1183.700000
796.845337	1183.900000
796.881287	1173.300000
796.917175	1152.800000
796.953125	1145.700000
796.989075	1158.800000
797.024963	1163.200000
797.060913	1161.400000
797.096863	1165.000000
797.132751	1152.700000
797.168701	1131.500000
797.204590	1135.700000
797.240540	1134.100000
797.276489	1146.100000
797.312439	1158.200000
797.348328	1156.600000
797.384277	1146.600000
797.420166	1127.900000
797.456055	1123.500000
797.492004	1122.400000
797.527893	1137.500000
797.563843	1146.200000
797.599731	1139.900000
797.635620	1121.000000
797.671570	1124.500000
797.707520	1122.700000
797.743347	1126.100000
797.779297	1136.800000
797.815125	1138.900000
797.851074	1128.300000
797.887024	1111.500000
797.922913	1096.800000
797.958801	1103.600000
797.994690	1102.100000
798.030579	1108.900000
798.066467	1120.800000
798.102356	1108.700000
798.138245	1097.400000
798.174133	1091.100000
798.210083	1094.800000
798.245911	1105.200000
798.281799	1120.400000
798.317749	1111.300000
798.353577	1101.700000
798.389465	1091.100000
798.425293	1091.500000
798.461243	1084.800000
798.497131	1095.400000
798.532959	1106.400000
798.568848	1105.000000
798.604736	1091.400000
798.640564	1072.600000
798.676453	1069.100000
798.712402	1074.700000
798.748230	1082.400000
798.784119	1083.000000
798.820007	1087.400000
798.855835	1080.200000
798.891724	1065.500000
798.927551	1063.800000
798.963379	1071.600000
798.999268	1076.800000
799.035095	1072.300000
799.070984	1057.600000
799.106873	1044.600000
799.142700	1050.600000
799.178528	1035.700000
799.214417	1039.400000
799.250244	1063.900000
799.286133	1056.600000
799.321960	1045.400000
799.357788	1039.400000
799.393677	1036.900000
799.429504	1036.500000
799.465332	1037.800000
799.501221	1047.600000
799.537048	1050.700000
799.572876	1036.000000
799.608704	1034.900000
799.644531	1046.600000
799.680359	1049.800000
799.716248	1066.700000
799.752014	1073.700000
799.787903	1064.000000
799.823730	1054.700000
799.859558	1042.100000
799.895386	1048.000000
799.931213	1044.000000
799.967041	1040.700000
800.002869	1044.700000
800.038696	1056.900000
800.074463	1027.600000
800.110352	1032.400000
800.146179	1020.000000
800.181946	1031.000000
800.217773	1034.300000
800.253540	1037.200000
800.289429	1024.600000
800.325256	1010.700000
800.361023	1004.800000
800.396851	1006.700000
800.432678	1010.400000
800.468445	1011.800000
800.504272	1006.900000
800.540100	991.800000
800.575867	987.600000
800.611694	991.000000
800.647461	982.600000
800.683289	990.800000
800.719116	993.600000
800.754883	992.600000
800.790649	970.700000
800.826477	963.900000
800.862244	979.100000
800.898071	965.500000
800.933838	966.000000
800.969604	970.500000
801.005432	969.400000
801.041199	965.200000
801.076965	951.700000
801.112793	941.200000
801.148560	927.600000
801.184326	936.500000
801.220154	939.600000
801.255859	927.900000
801.291687	925.900000
801.327454	918.100000
801.363281	912.500000
801.398987	911.800000
801.434814	915.700000
801.470520	926.300000
801.506287	911.500000
801.542114	901.800000
801.577820	899.700000
801.613647	901.300000
801.649414	899.100000
801.685120	898.900000
801.720886	904.500000
801.756714	896.900000
801.792419	880.700000
801.828186	872.600000
801.863892	884.300000
801.899719	872.400000
801.935486	873.300000
801.971252	884.000000
802.006958	870.400000
802.042725	867.600000
802.078430	866.400000
802.114197	862.900000
802.149963	878.100000
802.185669	862.500000
802.221436	860.800000
802.257202	861.700000
802.292908	854.100000
802.328674	864.100000
802.364441	866.000000
802.400146	863.800000
802.435913	856.700000
802.471558	853.500000
802.507324	847.900000
802.543091	839.300000
802.578796	851.000000
802.614502	850.400000
802.650269	861.100000
802.685974	843.800000
802.721741	847.600000
802.757446	846.100000
802.793152	840.800000
802.828918	849.900000
802.864624	850.900000
802.900330	848.100000
802.936035	838.100000
802.971802	831.400000
803.007446	826.200000
803.043213	821.700000
803.078857	828.100000
803.114624	814.500000
803.150330	820.500000
803.185974	808.900000
803.221741	812.600000
803.257446	819.600000
803.293152	817.900000
803.328857	814.400000
803.364563	807.200000
803.400208	798.800000
803.435974	805.000000
803.471680	796.500000
803.507324	788.900000
803.543030	800.800000
803.578735	807.200000
803.614441	793.900000
803.650146	803.100000
803.685791	786.800000
803.721497	788.300000
803.757202	774.700000
803.792847	786.400000
803.828552	777.500000
803.864258	779.800000
803.899902	777.900000
803.935608	754.700000
803.971313	762.900000
804.006958	762.900000
804.042664	758.600000
804.078308	771.700000
804.113953	760.100000
804.149658	764.800000
804.185364	754.600000
804.221008	759.600000
804.256714	750.700000
804.292297	748.600000
804.328003	745.700000
804.363708	737.200000
804.399292	737.200000
804.434998	739.700000
804.470703	727.900000
804.506287	742.700000
804.541992	731.500000
804.577637	735.800000
804.613281	724.700000
804.648926	720.200000
804.684570	723.300000
804.720215	718.100000
804.755920	720.500000
804.791565	712.100000
804.827209	721.400000
804.862854	711.300000
804.898437	703.800000
804.934143	706.400000
804.969788	704.600000
805.005371	704.400000
805.041077	707.700000
805.076721	711.100000
805.112305	694.800000
805.147949	694.700000
805.183655	693.200000
805.219238	695.000000
805.254883	692.600000
805.290466	701.200000
805.326111	692.000000
805.361755	680.500000
805.397400	688.500000
805.432983	687.300000
805.468628	684.200000
805.504211	690.500000
805.539856	687.100000
805.575500	697.800000
805.611084	685.100000
805.646729	666.600000
805.682373	672.400000
805.717957	685.800000
805.753601	685.100000
805.789246	669.400000
805.824768	683.800000
805.860413	684.000000
805.895996	672.100000
805.931641	670.000000
805.967224	679.100000
806.002869	670.100000
806.038452	683.300000
806.074036	679.700000
806.109619	667.800000
806.145264	661.600000
806.180847	659.400000
806.216431	655.400000
806.252014	661.200000
806.287659	657.300000
806.323181	667.300000
806.358826	661.500000
806.394409	640.200000
806.429993	642.900000
806.465576	659.000000
806.501160	640.800000
806.536743	635.200000
806.572327	647.700000
806.607910	639.800000
806.643494	640.300000
806.679077	635.300000
806.714661	634.700000
806.750244	632.900000
806.785828	627.900000
806.821350	626.200000
806.856934	632.400000
806.892517	625.600000
806.928101	618.200000
806.963684	620.700000
806.999268	627.500000
807.034790	609.100000
807.070374	612.400000
807.105896	606.200000
807.141479	602.500000
807.177063	610.600000
807.212585	600.400000
807.248169	601.100000
807.283752	607.300000
807.319275	596.800000
807.354858	596.100000
807.390381	592.200000
807.425903	593.200000
807.461487	586.900000
807.497070	579.900000
807.532593	581.800000
807.568115	579.400000
807.603699	574.400000
807.639221	571.200000
807.674744	573.400000
807.710266	577.800000
807.745850	581.800000
807.781372	571.600000
807.816895	565.200000
807.852417	569.000000
807.888000	565.400000
807.923523	560.600000
807.959045	567.600000
807.994629	556.500000
808.030090	551.300000
808.065613	558.900000
808.101135	560.700000
808.136658	556.700000
808.172241	554.300000
808.207764	549.600000
808.243225	548.700000
808.278809	543.300000
808.314270	552.200000
808.349792	537.900000
808.385315	534.300000
808.420837	539.800000
808.456360	546.500000
808.491882	546.100000
808.527344	542.700000
808.562866	551.700000
808.598389	539.600000
808.633850	534.200000
808.669434	528.300000
808.704895	534.800000
808.740417	541.900000
808.775940	533.500000
808.811462	528.100000
808.846924	516.000000
808.882385	516.500000
808.917847	513.500000
808.953369	516.500000
808.988892	512.600000
809.024353	522.800000
809.059875	515.000000
809.095398	511.400000
809.130798	506.400000
809.166321	504.100000
809.201843	504.800000
809.237305	505.100000
809.272766	509.500000
809.308228	498.300000
809.343750	495.400000
809.379211	497.300000
809.414734	497.300000
809.450134	503.500000
809.485657	483.500000
809.521118	494.200000
809.556580	491.900000
809.592102	489.400000
809.627502	484.700000
809.663025	485.200000
809.698486	479.400000
809.733887	476.000000
809.769409	481.000000
809.804871	465.900000
809.840271	468.300000
809.875793	474.300000
809.911194	476.000000
809.946655	469.800000
809.982178	464.000000
810.017639	466.300000
810.053040	466.300000
810.088501	461.800000
810.123901	459.900000
810.159424	457.800000
810.194885	451.500000
810.230286	457.500000
810.265747	449.800000
810.301208	446.500000
810.336609	449.300000
810.372070	440.800000
810.407532	445.900000
810.442932	447.300000
810.478394	448.200000
810.513794	443.000000
810.549255	440.300000
810.584717	436.600000
810.620117	428.800000
810.655518	438.000000
810.690979	435.200000
810.726379	435.100000
810.761841	419.900000
810.797302	422.000000
810.832642	420.900000
810.868103	430.500000
810.903564	421.600000
810.938904	426.100000
810.974365	414.500000
811.009827	415.900000
811.045166	410.500000
811.080627	402.000000
811.115967	411.500000
811.151428	415.500000
811.186829	410.400000
811.222229	409.400000
811.257629	400.600000
811.293091	407.900000
811.328430	415.400000
811.363892	407.400000
811.399292	410.600000
811.434631	404.600000
811.470093	410.000000
811.505493	398.700000
811.540833	401.900000
811.576294	403.800000
811.611694	399.300000
811.647034	395.000000
811.682434	398.100000
811.717773	396.700000
811.753235	402.900000
811.788635	396.600000
811.823975	393.200000
811.859375	402.700000
811.894775	387.700000
811.930115	392.000000
811.965515	389.500000
812.000916	396.800000
812.036255	386.200000
812.071655	392.300000
812.106995	380.900000
812.142395	385.100000
812.177795	391.000000
812.213196	386.700000
812.248474	387.500000
812.283875	377.600000
812.319214	379.700000
812.354614	381.800000
812.390015	378.300000
812.425293	376.100000
812.460693	376.800000
812.496094	370.300000
812.531433	363.800000
812.566772	367.300000
812.602173	368.400000
812.637451	369.900000
812.672852	363.000000
812.708191	368.200000
812.743530	360.400000
812.778931	354.100000
812.814270	355.800000
812.849609	365.100000
812.884949	358.100000
812.920227	352.500000
812.955627	368.100000
812.990967	358.300000
813.026306	352.400000
813.061646	341.900000
813.096985	340.700000
813.132324	339.700000
813.167664	343.300000
813.203003	346.800000
813.238281	334.500000
813.273682	335.000000
813.308960	328.500000
813.344299	333.700000
813.379639	342.400000
813.414978	334.600000
813.450256	331.000000
813.485596	336.700000
813.520874	327.100000
813.556213	331.900000
813.591614	336.000000
813.626831	328.000000
813.662170	330.700000
813.697510	340.400000
813.732788	324.400000
813.768127	329.000000
813.803467	329.900000
813.838745	322.600000
813.874084	327.000000
813.909363	324.900000
813.944641	327.400000
813.979980	316.200000
814.015320	320.300000
814.050598	316.800000
814.085876	320.900000
814.121155	316.200000
814.156494	314.600000
814.191772	316.300000
814.227051	312.400000
814.262390	314.900000
814.297668	311.400000
814.332947	314.200000
814.368225	306.300000
814.403564	310.800000
814.438782	303.900000
814.474121	309.500000
814.509338	304.600000
814.544617	313.100000
814.579956	300.600000
814.615173	312.200000
814.650513	308.400000
814.685791	301.000000
814.721008	301.800000
814.756348	303.600000
814.791626	297.700000
814.826843	299.400000
814.862122	299.300000
814.897400	293.900000
814.932678	296.500000
814.967957	297.100000
815.003235	293.600000
815.038452	288.800000
815.073730	288.600000
815.108948	297.900000
815.144226	295.600000
815.179504	300.900000
815.214722	285.400000
815.250000	282.500000
815.285278	290.700000
815.320496	285.100000
815.355774	285.600000
815.391052	288.500000
815.426270	285.900000
815.461487	284.300000
815.496765	279.300000
815.531982	273.900000
815.567261	280.800000
815.602539	288.300000
815.637695	283.700000
815.672974	285.500000
815.708191	283.700000
815.743408	284.300000
815.778687	275.400000
815.813904	285.700000
815.849121	270.100000
815.884399	270.100000
815.919556	270.400000
815.954834	271.800000
815.990051	274.000000
816.025269	278.100000
816.060486	268.900000
816.095703	268.200000
816.130920	270.000000
816.166199	266.300000
816.201416	266.500000
816.236572	274.600000
816.271851	263.000000
816.307007	270.700000
816.342224	258.200000
816.377441	264.400000
816.412659	256.000000
816.447876	266.700000
816.483093	259.700000
816.518250	262.000000
816.553467	259.000000
816.588745	263.400000
816.623901	255.500000
816.659119	250.200000
816.694275	255.800000
816.729492	253.700000
816.764709	289.000000
816.799927	250.100000
816.835083	254.000000
816.870300	246.900000
816.905457	250.000000
816.940674	253.500000
816.975830	248.700000
817.010986	245.100000
817.046204	246.600000
817.081421	241.700000
817.116577	242.900000
817.151733	252.000000
817.186951	251.900000
817.222107	247.600000
817.257324	250.700000
817.292419	248.300000
817.327637	240.400000
817.362854	245.200000
817.398010	238.900000
817.433167	242.200000
817.468323	240.000000
817.503479	240.000000
817.538635	250.500000
817.573853	243.600000
817.608948	241.300000
817.644165	237.800000
817.679321	233.900000
817.714478	233.900000
817.749634	238.100000
817.784790	247.700000
817.819946	244.200000
817.855103	226.400000
817.890198	234.500000
817.925415	227.300000
817.960571	236.600000
817.995667	235.000000
818.030823	235.900000
818.066040	229.500000
818.101135	233.500000
818.136292	232.300000
818.171448	225.700000
818.206543	231.300000
818.241699	234.300000
818.276855	228.800000
818.311951	230.600000
818.347107	226.000000
818.382263	232.500000
818.417358	234.800000
818.452515	237.400000
818.487610	235.000000
818.522766	225.600000
818.557922	236.000000
818.593018	230.300000
818.628113	229.200000
818.663269	224.100000
818.698364	227.600000
818.733521	222.700000
818.768677	229.100000
818.803711	219.500000
818.838867	220.300000
818.874023	224.400000
818.909058	220.400000
818.944214	219.400000
818.979370	225.900000
819.014404	223.800000
819.049561	218.600000
819.084595	223.300000
819.119751	215.100000
819.154846	222.000000
819.189941	218.300000
819.225037	214.500000
819.260193	209.400000
819.295227	212.500000
819.330322	208.600000
819.365479	208.100000
819.400513	240.100000
819.435608	205.500000
819.470764	205.100000
819.505798	206.500000
819.540894	210.800000
819.575989	207.100000
819.611084	216.000000
819.646179	215.900000
819.681213	212.600000
819.716309	208.700000
819.751404	209.800000
819.786438	214.700000
819.821533	206.500000
819.856628	209.000000
819.891663	212.800000
819.926758	218.900000
819.961853	215.200000
819.996887	205.700000
820.031982	210.500000
820.067017	206.100000
820.102112	235.000000
820.137207	205.100000
820.172302	222.500000
820.207275	201.900000
820.242371	204.900000
820.277405	201.900000
820.312500	206.200000
820.347534	207.000000
820.382568	210.800000
820.417664	204.800000
820.452759	204.200000
820.487732	201.800000
820.522827	202.300000
820.557861	201.600000
820.592896	201.900000
820.627930	202.800000
820.662964	202.000000
820.698059	206.400000
820.733093	201.200000
820.768127	205.500000
820.803162	203.000000
820.838196	200.900000
820.873230	202.400000
820.908264	202.700000
820.943298	199.100000
820.978333	207.700000
821.013367	202.000000
821.048401	205.700000
821.083435	207.300000
821.118469	193.500000
821.153503	206.500000
821.188477	202.100000
821.223511	193.200000
821.258484	199.600000
821.293579	200.900000
821.328613	194.500000
821.363647	197.300000
821.398621	194.200000
821.433655	195.500000
821.468628	211.100000
821.503662	197.600000
821.538696	200.400000
821.573669	193.900000
821.608704	201.900000
821.643677	195.500000
821.678650	200.800000
821.713684	205.300000
821.748718	196.300000
821.783691	197.800000
821.818726	198.700000
821.853638	198.400000
821.888672	195.700000
821.923706	196.700000
821.958618	193.800000
821.993652	194.200000
822.028687	202.500000
822.063599	202.300000
822.098633	199.200000
822.133667	192.600000
822.168579	195.200000
822.203613	198.900000
822.238586	193.700000
822.273560	200.200000
822.308533	193.400000
822.343567	193.400000
822.378479	195.300000
822.413452	195.100000
822.448425	190.900000
822.483398	200.400000
822.518372	200.200000
822.553345	194.300000
822.588318	202.400000
822.623291	193.800000
822.658203	193.400000
822.693237	194.800000
822.728210	189.100000
822.763123	196.100000
822.798096	189.100000
822.833069	193.700000
822.867981	193.200000
822.902954	196.300000
822.937927	197.700000
822.972900	204.900000
823.007874	185.900000
823.042725	197.900000
823.077698	205.200000
823.112671	188.600000
823.147583	190.700000
823.182556	195.100000
823.217529	196.600000
823.252441	190.500000
823.287415	205.200000
823.322388	195.700000
823.357239	193.200000
823.392212	199.800000
823.427185	196.200000
823.462097	189.000000
823.497009	196.200000
823.531982	190.300000
823.566895	193.100000
823.601807	189.400000
823.636719	191.100000
823.671631	196.900000
823.706604	189.400000
823.741455	195.800000
823.776428	185.300000
823.811340	197.100000
823.846252	197.400000
823.881165	200.400000
823.916138	192.600000
823.950989	201.400000
823.985901	189.500000
824.020813	193.200000
824.055725	190.800000
824.090637	187.000000
824.125610	194.500000
824.160461	193.600000
824.195374	194.300000
824.230225	197.800000
824.265198	185.800000
824.300110	188.200000
824.334961	204.100000
824.369873	183.300000
824.404785	195.900000
824.439636	197.000000
824.474548	184.000000
824.509460	181.900000
824.544312	198.800000
824.579224	193.800000
824.614075	193.900000
824.648987	191.800000
824.683899	191.800000
824.718811	189.600000
824.753662	199.600000
824.788574	196.400000
824.823364	192.800000
824.858276	188.400000
824.893188	196.900000
824.928040	197.700000
824.962952	193.800000
824.997803	195.600000
825.032654	193.100000
825.067566	195.100000
825.102417	189.900000
825.137268	190.900000
825.172119	191.700000
825.206970	187.200000
825.241882	189.400000
825.276733	187.000000
825.311646	188.700000
825.346436	184.100000
825.381348	186.000000
825.416138	191.000000
825.450989	187.200000
825.485901	181.600000
825.520691	182.800000
825.555542	183.900000
825.590454	189.800000
825.625244	182.800000
825.660095	198.600000
825.695007	194.300000
825.729797	188.900000
825.764648	187.200000
825.799438	188.800000
825.834290	191.300000
825.869202	183.800000
825.903992	192.400000
825.938843	186.500000
825.973694	185.100000
826.008484	202.200000
826.043335	185.800000
826.078186	181.400000
826.112976	197.500000
826.147827	195.300000
826.182678	200.400000
826.217468	183.400000
826.252319	196.300000
826.287109	185.500000
826.321899	197.100000
826.356750	189.100000
826.391541	185.600000
826.426392	193.800000
826.461182	190.900000
826.495972	184.800000
826.530823	181.200000
826.565613	189.100000
826.600403	184.500000
826.635254	192.500000
826.670044	181.900000
826.704834	182.300000
826.739685	184.500000
826.774475	189.900000
826.809265	189.500000
826.844055	185.500000
826.878906	195.000000
826.913635	190.300000
826.948425	192.600000
826.983215	190.800000
827.018005	193.400000
827.052856	187.300000
827.087585	192.500000
827.122375	181.500000
827.157227	190.100000
827.191956	201.600000
827.226746	186.400000
827.261536	191.800000
827.296265	182.600000
827.331116	186.800000
827.365906	193.600000
827.400635	185.800000
827.435425	181.300000
827.470215	195.900000
827.504944	187.100000
827.539734	193.300000
827.574463	189.500000
827.609253	196.600000
827.644043	190.400000
827.678772	194.900000
827.713562	187.000000
827.748352	187.400000
827.783081	185.900000
827.817871	191.400000
827.852600	185.500000
827.887329	190.100000
827.922119	178.800000
827.956848	193.900000
827.991638	201.900000
828.026367	191.100000
828.061157	190.700000
828.095886	189.500000
828.130615	204.000000
828.165344	181.200000
828.200073	189.000000
828.234863	187.000000
828.269592	188.300000
828.304321	192.600000
828.339111	189.300000
828.373779	184.400000
828.408569	192.800000
828.443298	194.600000
828.477966	186.200000
828.512756	189.900000
828.547424	183.300000
828.582214	186.900000
828.616943	187.800000
828.651672	187.400000
828.686340	193.300000
828.721130	186.500000
828.755798	187.600000
828.790527	188.900000
828.825256	191.200000
828.859924	188.200000
828.894714	194.400000
828.929443	197.100000
828.964111	185.500000
828.998840	191.800000
829.033569	186.000000
829.068237	186.700000
829.102966	187.400000
829.137634	190.900000
829.172363	189.500000
829.207092	191.000000
829.241821	185.700000
829.276489	181.300000
829.311157	189.500000
829.345825	187.700000
829.380554	192.700000
829.415283	184.900000
829.449951	183.500000
829.484619	197.300000
829.519348	196.200000
829.554016	190.800000
829.588745	188.200000
829.623413	182.600000
829.658081	199.300000
829.692749	183.000000
829.727417	194.400000
829.762146	191.200000
829.796814	185.200000
829.831482	187.600000
829.866150	191.200000
829.900879	185.400000
829.935486	191.900000
829.970154	186.100000
830.004883	200.200000
830.039490	190.200000
830.074219	187.500000
830.108887	187.700000
830.143494	187.100000
830.178223	183.200000
830.212891	186.200000
830.247498	188.000000
830.282166	196.700000
830.316772	193.100000
830.351501	186.300000
830.386169	188.600000
830.420776	186.100000
830.455444	188.000000
830.490112	186.100000
830.524719	180.200000
830.559387	191.300000
830.594055	191.300000
830.628662	188.000000
830.663330	187.500000
830.697998	197.200000
830.732605	187.500000
830.767273	189.700000
830.801941	189.500000
830.836487	198.300000
830.871155	189.400000
830.905762	191.300000
830.940430	181.500000
830.975098	185.100000
831.009644	189.000000
831.044312	196.700000
831.078979	191.800000
831.113525	180.400000
831.148193	188.500000
831.182861	188.400000
831.217407	193.000000
831.252075	205.700000
831.286621	186.100000
831.321289	184.000000
831.355896	188.300000
831.390564	196.500000
831.425110	190.100000
831.459778	194.500000
831.494324	203.000000
831.528931	191.700000
831.563599	193.100000
831.598145	182.000000
831.632751	188.300000
831.667419	186.700000
831.701965	191.500000
831.736572	191.100000
831.771179	182.800000
831.805786	186.300000
831.840393	195.400000
831.874939	180.900000
831.909546	193.200000
831.944153	180.700000
831.978760	187.800000
832.013306	183.500000
832.047913	195.800000
832.082458	196.100000
832.117065	185.100000
832.151672	197.000000
832.186218	189.600000
832.220825	191.200000
832.255432	180.800000
832.289978	185.200000
832.324585	189.900000
832.359192	191.400000
832.393677	187.500000
832.428284	190.100000
832.462830	188.100000
832.497437	188.100000
832.531982	192.200000
832.566589	187.700000
832.601135	190.800000
832.635681	181.200000
832.670227	189.600000
832.704773	195.100000
832.739380	191.200000
832.773926	189.400000
832.808472	185.300000
832.843079	190.200000
832.877563	192.100000
832.912170	186.300000
832.946716	182.000000
832.981201	196.100000
833.015808	192.100000
833.050293	189.000000
833.084839	185.200000
833.119446	187.100000
833.153992	192.500000
833.188477	189.100000
833.223022	185.300000
833.257568	190.300000
833.292114	196.200000
833.326660	200.700000
833.361145	187.200000
833.395691	180.700000
833.430237	187.900000
833.464783	191.800000
833.499329	184.100000
833.533875	183.300000
833.568359	191.700000
833.602905	195.000000
833.637390	193.300000
833.671875	185.600000
833.706421	187.100000
833.740906	184.900000
833.775452	178.100000
833.809998	186.300000
833.844482	194.700000
833.879028	188.100000
833.913513	186.100000
833.947998	190.800000
833.982544	185.200000
834.017090	186.600000
834.051514	177.400000
834.086060	191.300000
834.120544	188.500000
834.155029	190.600000
834.189575	186.600000
834.223999	192.600000
834.258545	189.600000
834.293030	189.300000
834.327515	189.000000
834.362000	185.600000
834.396545	191.500000
834.430969	188.400000
834.465454	191.700000
834.500000	181.700000
834.534424	192.200000
834.568970	180.900000
834.603455	181.500000
834.637878	184.700000
834.672363	189.200000
834.706909	190.700000
834.741333	189.700000
834.775818	183.200000
834.810242	183.900000
834.844727	189.600000
834.879211	186.800000
834.913635	189.300000
834.948181	189.500000
834.982666	189.100000
835.017090	188.000000
835.051575	191.500000
835.086060	185.900000
835.120483	191.500000
835.154907	192.500000
835.189331	187.600000
835.223816	190.900000
835.258301	183.600000
835.292786	184.300000
835.327209	193.100000
835.361694	185.500000
835.396057	185.400000
835.430542	191.300000
835.465027	188.900000
835.499390	182.600000
835.533875	207.400000
835.568359	186.300000
835.602722	180.000000
835.637207	189.300000
835.671692	182.800000
835.706055	205.200000
835.740540	189.600000
835.774902	191.300000
835.809387	188.800000
835.843811	182.300000
835.878235	196.000000
835.912659	181.000000
835.947083	185.500000
835.981506	188.000000
836.015930	180.500000
836.050354	192.900000
836.084778	196.000000
836.119202	193.600000
836.153625	202.100000
836.187988	185.200000
836.222473	185.500000
836.256897	188.700000
836.291260	188.700000
836.325684	190.300000
836.360046	186.000000
836.394470	188.500000
836.428894	195.700000
836.463318	185.300000
836.497681	192.700000
836.532104	196.000000
836.566467	189.300000
836.600891	187.800000
836.635315	194.700000
836.669678	192.000000
836.704102	193.400000
836.738525	190.100000
836.772888	181.500000
836.807251	185.200000
836.841675	190.900000
836.876038	183.300000
836.910461	185.500000
836.944763	191.500000
836.979187	185.600000
837.013611	194.400000
837.047974	183.200000
837.082336	200.800000
837.116699	192.800000
837.151062	189.100000
837.185486	182.500000
837.219849	186.700000
837.254211	192.900000
837.288574	188.400000
837.322937	185.600000
837.357300	177.100000
837.391663	200.800000
837.426086	193.800000
837.460388	189.500000
837.494751	194.400000
837.529114	186.300000
837.563477	194.300000
837.597839	190.900000
837.632141	188.100000
837.666565	185.800000
837.700928	191.100000
837.735229	192.800000
837.769592	190.100000
837.803955	194.400000
837.838257	186.800000
837.872620	184.800000
837.906982	195.900000
837.941284	189.600000
837.975647	188.700000
838.010010	195.700000
838.044312	186.300000
838.078674	186.600000
838.112976	190.200000
838.147339	193.800000
838.181702	188.900000
838.216003	198.400000
838.250366	190.700000
838.284668	193.400000
838.318970	182.100000
838.353333	188.600000
838.387634	187.300000
838.421936	189.600000
838.456299	191.100000
838.490601	195.500000
838.524902	193.200000
838.559265	193.400000
838.593567	193.000000
838.627869	183.000000
838.662170	193.100000
838.696472	182.300000
838.730774	186.500000
838.765137	193.000000
838.799377	175.300000
838.833740	189.800000
838.868042	196.100000
838.902283	179.800000
838.936646	195.200000
838.970947	190.500000
839.005188	193.500000
839.039551	180.900000
839.073792	197.400000
839.108093	186.300000
839.142395	198.300000
839.176697	182.600000
839.210937	189.900000
839.245300	200.000000
839.279541	182.900000
839.313843	187.000000
839.348145	192.200000
839.382385	194.100000
839.416687	194.600000
839.450989	192.800000
839.485229	188.700000
839.519531	183.400000
839.553833	195.200000
839.588013	188.800000
839.622314	189.900000
839.656555	192.300000
839.690857	188.500000
839.725159	182.700000
839.759460	188.100000
839.793640	186.100000
839.827942	187.900000
839.862183	184.200000
839.896423	190.200000
839.930725	198.700000
839.964966	197.500000
839.999207	197.600000
840.033508	196.000000
840.067688	186.900000
840.101990	198.700000
840.136230	188.300000
840.170471	196.800000
840.204712	185.900000
840.238953	185.300000
840.273193	190.600000
840.307434	192.300000
840.341736	185.900000
840.375916	182.800000
840.410217	186.100000
840.444397	197.600000
840.478638	191.500000
840.512878	195.200000
840.547119	191.100000
840.581360	191.100000
840.615601	199.300000
840.649780	197.800000
840.684021	188.900000
840.718262	196.500000
840.752441	196.200000
840.786682	189.400000
840.820862	191.500000
840.855103	195.900000
840.889343	189.800000
840.923584	194.800000
840.957764	190.300000
840.992004	190.900000
841.026184	203.600000
841.060425	186.500000
841.094666	186.400000
841.128845	191.700000
841.163025	190.500000
841.197266	193.600000
841.231445	191.500000
841.265686	188.600000
841.299866	185.700000
841.334045	196.200000
841.368286	189.400000
841.402405	197.600000
841.436646	194.700000
841.470825	187.400000
841.505005	188.700000
841.539185	186.800000
841.573425	187.600000
841.607544	188.600000
841.641785	189.400000
841.675964	185.500000
841.710144	191.100000
841.744324	187.100000
841.778503	188.700000
841.812683	187.000000
841.846863	198.900000
841.881042	196.000000
841.915222	187.500000
841.949402	205.400000
841.983521	181.700000
842.017700	190.400000
842.051880	190.300000
842.086060	191.200000
842.120239	189.500000
842.154419	187.000000
842.188538	190.100000
842.222717	186.700000
842.256897	199.600000
842.291016	188.000000
842.325195	192.400000
842.359375	201.900000
842.393494	196.400000
842.427673	192.100000
842.461853	191.600000
842.495911	198.000000
842.530090	190.800000
842.564209	189.500000
842.598389	191.500000
842.632568	190.900000
842.666626	194.400000
842.700806	186.100000
842.734985	188.300000
842.769043	193.000000
842.803223	187.800000
842.837402	188.000000
842.871460	186.400000
842.905640	198.800000
842.939697	185.100000
842.973877	193.100000
843.007996	194.700000
843.042175	199.400000
843.076233	188.600000
843.110413	191.500000
843.144470	199.400000
843.178589	195.100000
843.212769	188.200000
843.246826	195.700000
843.280945	189.700000
843.315125	189.100000
843.349182	187.400000
843.383301	196.700000
843.417419	203.000000
843.451538	190.100000
843.485657	190.200000
843.519714	189.300000
843.553833	192.400000
843.587952	188.000000
843.622070	187.500000
843.656128	193.400000
843.690247	189.200000
843.724304	187.700000
843.758423	191.400000
843.792542	188.300000
843.826599	189.600000
843.860718	188.400000
843.894836	184.500000
843.928894	189.700000
843.963013	193.000000
843.997070	184.000000
844.031128	184.700000
844.065247	196.300000
844.099304	195.000000
844.133362	191.700000
844.167480	192.800000
844.201599	196.800000
844.235596	191.900000
844.269714	191.400000
844.303711	192.100000
844.337830	181.800000
844.371948	193.000000
844.405945	190.200000
844.440063	185.200000
844.474121	203.200000
844.508118	188.400000
844.542236	188.400000
844.576294	188.800000
844.610352	183.200000
844.644409	189.100000
844.678406	180.900000
844.712524	195.900000
844.746582	196.100000
844.780640	190.100000
844.814636	190.800000
844.848755	201.300000
844.882751	189.600000
844.916809	195.400000
844.950867	190.500000
844.984863	199.500000
845.018921	190.800000
845.052979	188.700000
845.086975	191.100000
845.121033	184.900000
845.155090	187.000000
845.189087	196.200000
845.223145	189.200000
845.257141	190.900000
845.291199	193.200000
845.325256	196.200000
845.359253	190.400000
845.393250	200.900000
845.427307	190.500000
845.461304	192.400000
845.495361	191.200000
845.529358	201.000000
845.563354	188.600000
845.597412	186.500000
845.631409	198.700000
845.665405	195.700000
845.699463	194.300000
845.733459	188.400000
845.767456	197.200000
845.801453	189.600000
845.835449	197.100000
845.869446	194.500000
845.903503	195.100000
845.937439	186.900000
845.971497	196.600000
846.005493	182.800000
846.039429	194.200000
846.073486	199.300000
846.107483	188.700000
846.141418	190.100000
846.175476	189.700000
846.209473	197.100000
846.243408	187.200000
846.277405	190.700000
846.311401	185.600000
846.345337	190.200000
846.379395	196.200000
846.413330	186.200000
846.447327	199.900000
846.481323	185.500000
846.515259	187.300000
846.549255	190.700000
846.583252	192.100000
846.617187	186.100000
846.651184	192.800000
846.685120	187.400000
846.719055	197.900000
846.753052	195.300000
846.786987	194.800000
846.820984	185.300000
846.854980	196.900000
846.888916	185.700000
846.922852	193.400000
846.956848	197.400000
846.990723	186.100000
847.024719	192.700000
847.058716	189.700000
847.092590	197.900000
847.126587	191.700000
847.160522	189.100000
847.194458	194.500000
847.228455	187.700000
847.262390	185.500000
847.296265	188.400000
847.330261	197.000000
847.364136	188.300000
847.398132	187.400000
847.432068	192.200000
847.466003	189.700000
847.499939	190.700000
847.533875	193.400000
847.567749	189.500000
847.601746	187.700000
847.635681	194.600000
847.669556	183.400000
847.703491	195.900000
847.737427	205.300000
847.771301	184.400000
847.805237	193.000000
847.839233	191.400000
847.873108	190.100000
847.907043	188.700000
847.940918	196.300000
847.974854	193.500000
848.008789	194.800000
848.042664	190.400000
848.076538	193.400000
848.110474	192.000000
848.144348	191.400000
848.178284	185.100000
848.212219	191.400000
848.246094	188.100000
848.279968	191.600000
848.313904	194.500000
848.347778	191.500000
848.381653	190.400000
848.415588	187.800000
848.449463	189.400000
848.483337	193.300000
848.517212	196.600000
848.551086	191.800000
848.585022	187.100000
848.618835	199.200000
848.652771	188.000000
848.686646	187.200000
848.720520	199.500000
848.754395	190.800000
848.788330	195.600000
848.822144	195.300000
848.856018	188.700000
848.889954	200.400000
848.923767	186.000000
848.957642	187.700000
848.991577	194.500000
849.025391	187.500000
849.059265	188.900000
849.093079	186.600000
849.126953	186.200000
849.160828	196.200000
849.194641	192.000000
849.228577	187.800000
849.262451	189.400000
849.296265	188.900000
849.330139	186.700000
849.364014	191.900000
849.397827	193.000000
849.431702	190.100000
849.465515	194.700000
849.499329	182.000000
849.533203	184.500000
849.567078	180.600000
849.600891	193.800000
849.634766	190.300000
849.668518	194.200000
849.702393	191.600000
849.736267	182.800000
849.770020	201.100000
849.803894	195.100000
849.837769	190.500000
849.871521	190.900000
849.905396	196.900000
849.939270	186.600000
849.973022	190.000000
850.006897	195.000000
850.040710	194.200000
850.074524	194.200000
850.108337	189.800000
850.142151	194.300000
850.175964	198.200000
850.209778	191.800000
850.243530	179.400000
850.277405	195.500000
850.311218	191.900000
850.344971	188.300000
850.378845	200.000000
850.412659	189.100000
850.446411	191.600000
850.480225	191.300000
850.514038	196.800000
850.547791	195.000000
850.581665	190.900000
850.615417	187.400000
850.649231	191.700000
850.683044	190.200000
850.716858	190.200000
850.750610	191.900000
850.784424	194.200000
850.818176	187.700000
850.851929	190.400000
850.885742	187.000000
850.919495	188.800000
850.953308	198.200000
850.987122	198.000000
851.020874	185.100000
851.054626	184.600000
851.088440	194.600000
851.122192	194.300000
851.156006	190.900000
851.189697	189.500000
851.223511	186.000000
851.257263	194.500000
851.291077	193.800000
851.324829	190.200000
851.358582	187.700000
851.392334	188.600000
851.426086	190.500000
851.459900	197.400000
851.493591	191.300000
851.527344	191.200000
851.561157	190.200000
851.594849	192.900000
851.628662	193.400000
851.662415	198.700000
851.696106	193.200000
851.729858	195.600000
851.763611	185.500000
851.797363	192.700000
851.831116	186.800000
851.864868	193.700000
851.898560	195.700000
851.932312	189.900000
851.966064	192.500000
851.999817	190.800000
852.033569	190.700000
852.067261	196.300000
852.101013	187.300000
852.134766	192.100000
852.168457	181.200000
852.202209	197.100000
852.235901	186.500000
852.269592	194.700000
852.303345	199.900000
852.337036	195.200000
852.370789	190.600000
852.404541	195.300000
852.438171	185.900000
852.471924	190.100000
852.505676	185.100000
852.539307	193.200000
852.573059	186.800000
852.606812	188.900000
852.640442	188.700000
852.674194	196.700000
852.707886	201.600000
852.741577	199.000000
852.775269	186.000000
852.809021	192.000000
852.842651	192.700000
852.876404	195.600000
852.910034	191.500000
852.943787	196.100000
852.977478	193.100000
853.011108	187.700000
853.044861	187.300000
853.078552	197.800000
853.112183	192.800000
853.145874	194.000000
853.179626	182.000000
853.213257	192.200000
853.246948	188.400000
853.280640	198.600000
853.314270	191.400000
853.347961	198.500000
853.381653	194.000000
853.415283	195.100000
853.448975	188.600000
853.482605	191.600000
853.516296	190.800000
853.549988	185.800000
853.583618	191.900000
853.617310	193.300000
853.651001	193.600000
853.684631	186.700000
853.718323	188.800000
853.751953	198.800000
853.785583	183.200000
853.819275	197.000000
853.852966	192.300000
853.886536	181.900000
853.920227	185.900000
853.953918	195.700000
853.987488	189.900000
854.021179	194.800000
854.054749	199.400000
854.088440	193.500000
854.122131	186.200000
854.155701	194.300000
854.189331	188.100000
854.223022	193.500000
854.256592	193.000000
854.290283	188.100000
854.323914	194.000000
854.357483	193.400000
854.391174	193.800000
854.424744	201.000000
854.458374	192.700000
854.492065	201.900000
854.525696	192.100000
854.559265	197.900000
854.592896	202.600000
854.626465	192.200000
854.660095	191.100000
854.693787	193.000000
854.727356	190.200000
854.760986	194.800000
854.794617	192.000000
854.828186	189.500000
854.861816	195.000000
854.895447	192.000000
854.929016	192.000000
854.962585	193.700000
854.996155	198.300000
855.029785	192.400000
855.063416	193.300000
855.097046	196.000000
855.130615	185.500000
855.164185	197.100000
855.197754	191.100000
855.231384	195.300000
855.264954	189.000000
855.298523	196.100000
855.332153	192.700000
855.365723	198.000000
855.399292	188.300000
855.432922	190.000000
855.466492	194.400000
855.500061	186.400000
855.533630	187.100000
855.567200	194.400000
855.600769	196.000000
855.634338	196.400000
855.667969	194.300000
855.701477	187.100000
855.735046	188.900000
855.768616	182.800000
855.802185	193.500000
855.835754	206.000000
855.869324	183.100000
855.902893	191.200000
855.936401	198.000000
855.969971	193.000000
856.003540	184.700000
856.037109	195.300000
856.070618	191.300000
856.104187	185.300000
856.137695	189.600000
856.171265	182.400000
856.204834	191.700000
856.238403	196.800000
856.271912	188.800000
856.305481	193.500000
856.338989	184.200000
856.372559	194.500000
856.406128	192.600000
856.439636	197.100000
856.473145	189.100000
856.506653	197.200000
856.540222	190.700000
856.573792	199.300000
856.607300	194.000000
856.640808	186.000000
856.674377	193.100000
856.707825	220.400000
856.741394	195.100000
856.774902	187.900000
856.808472	182.400000
856.841980	194.500000
856.875488	199.600000
856.908936	183.800000
856.942505	189.200000
856.976013	191.600000
857.009521	187.800000
857.043030	191.500000
857.076477	189.900000
857.110046	195.800000
857.143555	193.300000
857.177063	197.100000
857.210571	189.700000
857.244080	185.400000
857.277527	195.100000
857.311035	190.000000
857.344543	195.800000
857.378052	190.000000
857.411499	197.500000
857.445068	200.000000
857.478516	192.100000
857.512024	184.700000
857.545532	190.100000
857.578979	192.800000
857.612427	191.500000
857.645874	187.900000
857.679382	192.100000
857.712891	194.100000
857.746399	191.500000
857.779846	196.900000
857.813354	197.200000
857.846741	191.300000
857.880249	186.500000
857.913757	192.400000
857.947266	194.300000
857.980652	194.200000
858.014160	188.300000
858.047546	189.400000
858.081055	190.300000
858.114563	199.900000
858.147949	184.400000
858.181458	193.400000
858.214844	189.800000
858.248352	184.100000
858.281799	196.900000
858.315308	203.100000
858.348694	194.500000
858.382141	199.700000
858.415588	194.500000
858.449036	196.700000
858.482483	193.600000
858.515930	187.600000
858.549377	191.600000
858.582825	198.300000
858.616211	193.500000
858.649658	193.800000
858.683105	186.100000
858.716553	188.700000
858.750000	186.700000
858.783386	190.400000
858.816833	183.100000
858.850281	193.200000
858.883728	194.700000
858.917114	189.400000
858.950562	201.300000
858.983948	200.600000
859.017395	195.300000
859.050781	190.900000
859.084167	188.700000
859.117615	186.500000
859.151062	194.100000
859.184448	189.000000
859.217834	191.200000
859.251282	190.000000
859.284668	187.400000
859.318054	182.600000
859.351440	188.700000
859.384888	200.600000
859.418274	183.100000
859.451721	182.600000
859.485046	194.100000
859.518494	192.900000
859.551819	186.600000
859.585266	193.400000
859.618652	193.700000
859.652039	185.600000
859.685425	186.000000
859.718811	184.900000
859.752197	179.100000
859.785583	198.800000
859.819031	197.800000
859.852356	193.900000
859.885742	188.100000
859.919067	191.000000
859.952454	187.700000
859.985901	196.300000
860.019287	188.700000
860.052612	0.000000
860.085999	0.000000
860.119324	0.000000
860.152710	0.000000
860.186096	0.000000
860.219421	0.000000
860.252808	0.000000
860.286133	0.000000
860.319519	0.000000
860.352905	0.000000
860.386292	0.000000
860.419617	0.000000
860.452942	0.000000
860.486267	0.000000
860.519653	0.000000
860.553040	0.000000
860.586365	0.000000
860.619690	0.000000
860.653076	0.000000
860.686340	0.000000
860.719727	0.000000
860.753113	0.000000
860.786377	0.000000
860.819763	0.000000
860.853027	0.000000
860.886414	0.000000
860.919739	0.000000
860.953125	0.000000
860.986389	0.000000
861.019714	0.000000
861.053040	0.000000
861.086365	0.000000
861.119690	0.000000
861.153076	0.000000
861.186340	0.000000
861.219666	0.000000
861.252930	0.000000
861.286316	0.000000
861.319641	0.000000
861.352905	0.000000
861.386230	0.000000
861.419495	0.000000
861.452820	0.000000
861.486145	0.000000
861.519470	0.000000
861.552734	0.000000
861.586060	0.000000
861.619324	0.000000
861.652649	0.000000
861.685974	0.000000
861.719238	0.000000
861.752563	0.000000
861.785828	0.000000
861.819092	0.000000
861.852417	0.000000
861.885742	0.000000
861.918945	0.000000
861.952271	0.000000
861.985535	0.000000
862.018799	0.000000
862.052124	0.000000
862.085449	0.000000
862.118652	0.000000
862.151978	0.000000
862.185181	0.000000
862.218506	0.000000
862.251770	0.000000
862.285034	0.000000
862.318298	0.000000
862.351562	0.000000
862.384827	0.000000
862.418091	0.000000
862.451355	0.000000
862.484619	0.000000
862.517883	0.000000
862.551086	0.000000
862.584351	0.000000
862.617676	0.000000
862.650940	0.000000
862.684143	0.000000
862.717407	0.000000
862.750610	0.000000
862.783875	0.000000
862.817139	0.000000
862.850342	0.000000
862.883606	0.000000
862.916870	0.000000
862.950073	0.000000
862.983337	0.000000
863.016602	0.000000
863.049805	0.000000
863.083069	0.000000
863.116211	0.000000
863.149475	0.000000
863.182739	0.000000
863.216003	0.000000
863.249146	0.000000
863.282410	0.000000
863.315613	0.000000
863.348816	0.000000
863.382080	0.000000
863.415222	0.000000
863.448486	0.000000
863.481689	0.000000
863.514893	0.000000
863.548157	0.000000
863.581360	0.000000
863.614502	0.000000
863.647766	0.000000
863.680908	0.000000
863.714172	0.000000
863.747375	0.000000
863.780579	0.000000
863.813721	0.000000
863.846985	0.000000
863.880127	0.000000
863.913330	0.000000
863.946533	0.000000
863.979675	0.000000
864.012939	0.000000
