Model Number: SPM-001-M   
Serial Number: 10090201
Firmware Version: 004.17.6
Exposure Time: 500000.000000us
Data Taken on: 20-03-2021 09:22:07.659
Wavelength	Amplitude
733.770752	0.000000
733.808716	0.000000
733.846619	0.000000
733.884583	0.000000
733.922546	0.000000
733.960449	0.000000
733.998413	0.000000
734.036377	0.000000
734.074219	0.000000
734.112183	0.000000
734.150085	0.000000
734.188049	0.000000
734.226013	0.000000
734.263916	0.000000
734.301819	0.000000
734.339783	0.000000
734.377686	0.000000
734.415588	0.000000
734.453552	0.000000
734.491455	0.000000
734.529419	0.000000
734.567322	0.000000
734.605225	0.000000
734.643127	0.000000
734.681091	0.000000
734.718994	0.000000
734.756897	0.000000
734.794800	0.000000
734.832703	0.000000
734.870667	0.000000
734.908508	0.000000
734.946472	0.000000
734.984375	0.000000
735.022278	0.000000
735.060181	0.000000
735.098083	0.000000
735.135986	0.000000
735.173889	0.000000
735.211792	0.000000
735.249695	0.000000
735.287598	0.000000
735.325439	0.000000
735.363403	0.000000
735.401306	0.000000
735.439148	0.000000
735.477051	0.000000
735.515015	0.000000
735.552856	0.000000
735.590759	0.000000
735.628662	0.000000
735.666504	0.000000
735.704407	0.000000
735.742310	0.000000
735.780212	0.000000
735.818115	0.000000
735.856018	0.000000
735.893860	0.000000
735.931763	0.000000
735.969604	0.000000
736.007507	0.000000
736.045410	0.000000
736.083252	0.000000
736.121094	0.000000
736.158997	0.000000
736.196838	0.000000
736.234741	0.000000
736.272644	0.000000
736.310486	0.000000
736.348389	0.000000
736.386230	0.000000
736.424072	0.000000
736.461975	0.000000
736.499878	0.000000
736.537720	0.000000
736.575562	0.000000
736.613403	0.000000
736.651306	0.000000
736.689148	0.000000
736.726990	0.000000
736.764893	0.000000
736.802734	0.000000
736.840576	0.000000
736.878418	0.000000
736.916321	0.000000
736.954102	0.000000
736.992004	0.000000
737.029846	0.000000
737.067688	0.000000
737.105530	0.000000
737.143372	0.000000
737.181213	0.000000
737.219116	0.000000
737.256897	0.000000
737.294739	0.000000
737.332642	0.000000
737.370422	0.000000
737.408325	0.000000
737.446167	0.000000
737.483948	0.000000
737.521790	0.000000
737.559692	0.000000
737.597473	0.000000
737.635315	0.000000
737.673157	0.000000
737.710999	0.000000
737.748840	0.000000
737.786621	0.000000
737.824463	0.000000
737.862305	0.000000
737.900085	0.000000
737.937927	0.000000
737.975769	0.000000
738.013550	0.000000
738.051392	0.000000
738.089233	0.000000
738.127014	0.000000
738.164856	0.000000
738.202698	0.000000
738.240479	0.000000
738.278320	0.000000
738.316162	0.000000
738.353943	0.000000
738.391785	0.000000
738.429565	0.000000
738.467407	0.000000
738.505188	0.000000
738.542969	0.000000
738.580811	0.000000
738.618652	0.000000
738.656372	0.000000
738.694214	0.000000
738.732056	0.000000
738.769836	0.000000
738.807617	0.000000
738.845459	0.000000
738.883240	0.000000
738.921021	0.000000
738.958862	0.000000
738.996582	0.000000
739.034424	0.000000
739.072205	0.000000
739.109985	0.000000
739.147827	0.000000
739.185547	0.000000
739.223389	0.000000
739.261169	0.000000
739.298889	0.000000
739.336731	0.000000
739.374512	0.000000
739.412292	0.000000
739.450073	0.000000
739.487854	0.000000
739.525635	0.000000
739.563416	0.000000
739.601135	0.000000
739.638977	0.000000
739.676758	0.000000
739.714478	0.000000
739.752258	0.000000
739.790100	0.000000
739.827820	0.000000
739.865601	0.000000
739.903381	0.000000
739.941101	0.000000
739.978882	193.400000
740.016724	187.500000
740.054443	195.300000
740.092224	186.700000
740.130005	186.700000
740.167725	187.100000
740.205505	186.600000
740.243225	196.300000
740.281006	192.400000
740.318787	182.100000
740.356506	195.300000
740.394287	194.200000
740.432068	186.100000
740.469727	183.400000
740.507507	193.200000
740.545288	189.000000
740.583008	190.800000
740.620789	192.000000
740.658569	182.000000
740.696228	189.800000
740.734009	195.200000
740.771790	177.800000
740.809509	194.400000
740.847229	185.500000
740.884949	186.800000
740.922729	183.100000
740.960449	187.700000
740.998169	183.900000
741.035950	186.200000
741.073669	192.500000
741.111389	189.500000
741.149170	198.900000
741.186890	199.700000
741.224609	195.100000
741.262329	191.000000
741.300110	199.700000
741.337769	184.500000
741.375549	183.900000
741.413208	190.400000
741.450989	184.900000
741.488708	185.900000
741.526367	187.700000
741.564148	193.400000
741.601868	194.300000
741.639526	188.600000
741.677307	191.700000
741.715027	191.600000
741.752686	185.800000
741.790466	197.400000
741.828186	192.900000
741.865845	184.700000
741.903564	180.800000
741.941345	189.500000
741.979004	185.100000
742.016724	192.100000
742.054382	191.600000
742.092102	195.400000
742.129822	183.200000
742.167480	187.300000
742.205200	189.900000
742.242920	191.700000
742.280640	194.700000
742.318359	184.900000
742.356079	187.700000
742.393738	193.700000
742.431396	188.100000
742.469116	193.400000
742.506775	179.700000
742.544495	191.800000
742.582214	194.100000
742.619873	190.000000
742.657593	197.000000
742.695251	193.400000
742.732971	188.800000
742.770630	191.000000
742.808289	189.400000
742.846008	189.400000
742.883728	191.500000
742.921326	190.900000
742.959045	187.500000
742.996765	189.200000
743.034424	189.500000
743.072083	187.300000
743.109802	189.600000
743.147400	183.900000
743.185120	191.800000
743.222839	190.100000
743.260437	194.800000
743.298157	190.800000
743.335754	181.400000
743.373474	188.600000
743.411133	182.800000
743.448792	190.200000
743.486450	188.500000
743.524170	181.900000
743.561768	189.300000
743.599487	196.600000
743.637146	200.100000
743.674744	188.700000
743.712463	186.400000
743.750122	190.600000
743.787720	193.300000
743.825439	186.900000
743.863037	187.400000
743.900696	190.300000
743.938416	212.800000
743.976013	189.000000
744.013672	197.900000
744.051331	194.500000
744.088928	198.400000
744.126587	195.200000
744.164307	190.000000
744.201904	186.800000
744.239563	192.900000
744.277222	192.700000
744.314819	189.700000
744.352478	197.800000
744.390137	191.800000
744.427734	192.200000
744.465393	187.600000
744.502991	185.500000
744.540649	191.900000
744.578308	190.700000
744.615906	184.300000
744.653564	179.000000
744.691223	193.300000
744.728821	182.500000
744.766418	189.400000
744.804077	193.500000
744.841675	187.200000
744.879333	183.000000
744.916992	189.100000
744.954529	187.200000
744.992187	195.100000
745.029785	188.600000
745.067444	186.100000
745.105042	191.000000
745.142639	191.900000
745.180298	198.800000
745.217896	188.700000
745.255493	187.600000
745.293152	193.800000
745.330750	194.600000
745.368347	198.300000
745.405945	192.300000
745.443604	190.300000
745.481140	193.900000
745.518799	188.300000
745.556396	193.600000
745.593994	195.000000
745.631592	189.300000
745.669189	185.000000
745.706787	191.300000
745.744385	186.200000
745.781982	192.300000
745.819580	187.500000
745.857178	189.600000
745.894775	190.100000
745.932373	191.200000
745.969971	191.100000
746.007568	180.200000
746.045166	200.000000
746.082764	194.000000
746.120300	192.200000
746.157898	193.200000
746.195557	189.600000
746.233093	185.000000
746.270691	194.000000
746.308228	191.000000
746.345825	195.100000
746.383423	193.600000
746.420959	185.700000
746.458557	188.300000
746.496155	187.300000
746.533691	190.300000
746.571289	185.100000
746.608887	190.700000
746.646423	189.700000
746.684021	190.900000
746.721619	187.900000
746.759155	191.200000
746.796753	182.500000
746.834351	183.900000
746.871826	185.900000
746.909424	197.200000
746.946960	191.600000
746.984558	189.600000
747.022156	189.000000
747.059631	197.300000
747.097229	191.800000
747.134827	187.600000
747.172363	197.500000
747.209900	192.900000
747.247498	185.000000
747.285034	197.700000
747.322571	196.500000
747.360168	188.500000
747.397644	182.800000
747.435242	193.800000
747.472778	196.500000
747.510315	188.400000
747.547913	187.000000
747.585388	196.600000
747.622925	189.500000
747.660522	181.700000
747.697998	185.800000
747.735596	189.200000
747.773132	186.600000
747.810669	190.600000
747.848206	193.300000
747.885742	185.000000
747.923279	184.100000
747.960815	193.600000
747.998352	189.700000
748.035889	195.900000
748.073425	195.200000
748.110901	187.600000
748.148437	186.800000
748.185974	190.900000
748.223511	201.300000
748.261047	192.200000
748.298584	191.000000
748.336060	189.000000
748.373596	192.600000
748.411133	209.400000
748.448608	185.900000
748.486145	195.200000
748.523682	197.500000
748.561218	196.200000
748.598755	192.100000
748.636292	194.400000
748.673706	187.800000
748.711243	197.700000
748.748718	191.800000
748.786255	189.000000
748.823792	190.100000
748.861267	185.800000
748.898804	191.700000
748.936340	191.900000
748.973816	188.800000
749.011292	195.900000
749.048828	191.800000
749.086304	192.500000
749.123840	200.800000
749.161316	185.200000
749.198792	199.900000
749.236328	195.700000
749.273743	191.200000
749.311279	188.500000
749.348816	193.000000
749.386230	189.500000
749.423767	178.400000
749.461304	191.700000
749.498718	191.100000
749.536255	196.500000
749.573730	202.800000
749.611206	194.500000
749.648682	189.200000
749.686218	189.100000
749.723633	194.400000
749.761169	188.700000
749.798645	185.600000
749.836060	189.000000
749.873596	187.800000
749.911011	190.500000
749.948547	195.900000
749.986023	190.300000
750.023437	188.800000
750.060913	183.900000
750.098450	184.600000
750.135864	188.400000
750.173340	191.000000
750.210815	192.800000
750.248291	184.100000
750.285767	190.700000
750.323242	196.300000
750.360657	192.500000
750.398132	186.900000
750.435608	193.500000
750.473022	185.500000
750.510498	186.000000
750.547974	186.000000
750.585449	188.400000
750.622925	179.400000
750.660339	199.700000
750.697815	189.700000
750.735291	189.800000
750.772644	190.100000
750.810120	191.300000
750.847595	191.800000
750.885010	185.400000
750.922485	198.100000
750.959961	188.600000
750.997375	196.600000
751.034851	194.000000
751.072266	194.200000
751.109680	183.100000
751.147156	193.500000
751.184570	192.500000
751.221985	191.100000
751.259460	180.900000
751.296875	190.400000
751.334290	190.000000
751.371765	192.400000
751.409180	192.000000
751.446594	195.300000
751.484070	192.900000
751.521423	191.800000
751.558899	193.000000
751.596375	198.200000
751.633728	197.100000
751.671204	203.800000
751.708618	186.000000
751.746033	191.800000
751.783447	185.100000
751.820801	185.900000
751.858276	194.000000
751.895691	191.100000
751.933105	187.800000
751.970520	185.000000
752.007935	191.100000
752.045349	194.500000
752.082764	189.500000
752.120178	188.200000
752.157532	187.000000
752.195007	189.000000
752.232422	192.600000
752.269775	193.500000
752.307190	192.700000
752.344543	186.200000
752.382019	189.200000
752.419434	189.000000
752.456787	192.000000
752.494202	195.000000
752.531616	191.900000
752.568970	194.700000
752.606384	192.200000
752.643799	191.700000
752.681152	199.500000
752.718567	193.200000
752.755981	183.300000
752.793335	193.300000
752.830750	182.200000
752.868164	196.400000
752.905518	185.500000
752.942932	195.200000
752.980225	185.800000
753.017639	196.300000
753.055054	189.500000
753.092407	192.200000
753.129822	194.800000
753.167175	200.600000
753.204529	189.200000
753.241943	187.400000
753.279358	184.000000
753.316650	194.300000
753.354065	192.300000
753.391479	195.900000
753.428772	199.300000
753.466187	194.300000
753.503479	183.000000
753.540894	189.800000
753.578308	185.800000
753.615601	185.700000
753.653015	191.000000
753.690369	189.000000
753.727722	185.200000
753.765076	185.400000
753.802490	185.300000
753.839783	182.100000
753.877136	186.800000
753.914551	205.600000
753.951843	185.300000
753.989258	193.100000
754.026611	190.400000
754.063904	194.300000
754.101257	186.300000
754.138611	182.900000
754.175964	191.600000
754.213318	203.600000
754.250610	184.400000
754.288025	187.700000
754.325378	183.400000
754.362671	197.000000
754.400024	187.400000
754.437378	200.700000
754.474670	200.100000
754.512085	187.900000
754.549438	191.200000
754.586731	188.000000
754.624084	189.100000
754.661438	184.800000
754.698730	196.700000
754.736084	188.200000
754.773376	189.100000
754.810730	193.700000
754.848083	188.900000
754.885315	195.000000
754.922668	182.600000
754.960022	182.700000
754.997314	194.700000
755.034668	191.200000
755.072021	192.300000
755.109253	187.700000
755.146606	199.000000
755.183960	188.300000
755.221252	201.100000
755.258545	197.300000
755.295898	196.500000
755.333191	198.000000
755.370544	195.300000
755.407776	190.900000
755.445129	193.500000
755.482422	196.500000
755.519714	190.000000
755.557068	184.900000
755.594360	184.400000
755.631653	196.200000
755.668945	201.700000
755.706299	193.500000
755.743530	203.700000
755.780884	199.900000
755.818176	198.700000
755.855408	197.000000
755.892761	195.800000
755.930054	193.400000
755.967346	193.800000
756.004639	197.900000
756.041870	192.200000
756.079224	198.800000
756.116516	189.400000
756.153748	196.700000
756.191040	201.900000
756.228394	196.100000
756.265625	188.900000
756.302917	194.100000
756.340210	190.000000
756.377441	200.100000
756.414795	200.000000
756.452087	195.100000
756.489319	187.700000
756.526611	198.500000
756.563843	194.800000
756.601135	205.100000
756.638428	203.300000
756.675659	194.500000
756.712952	199.800000
756.750244	197.600000
756.787476	196.700000
756.824768	201.700000
756.862061	193.200000
756.899292	240.500000
756.936584	200.200000
756.973816	205.900000
757.011047	207.900000
757.048340	197.400000
757.085632	195.900000
757.122864	212.400000
757.160156	194.500000
757.197327	198.800000
757.234619	200.900000
757.271912	196.800000
757.309082	201.300000
757.346375	193.900000
757.383667	204.500000
757.420837	199.300000
757.458130	198.900000
757.495422	196.900000
757.532593	199.600000
757.569885	192.400000
757.607117	195.200000
757.644348	201.200000
757.681580	210.600000
757.718811	187.800000
757.756042	199.900000
757.793335	197.500000
757.830505	201.900000
757.867798	195.600000
757.905029	196.900000
757.942200	201.100000
757.979492	196.800000
758.016724	199.500000
758.053894	197.300000
758.091187	219.100000
758.128418	201.200000
758.165588	200.200000
758.202820	212.300000
758.240112	202.300000
758.277283	211.500000
758.314514	202.300000
758.351685	198.900000
758.388916	210.300000
758.426147	208.200000
758.463379	211.600000
758.500610	205.400000
758.537842	202.000000
758.575012	210.400000
758.612244	198.800000
758.649475	217.000000
758.686646	196.200000
758.723877	210.600000
758.761108	211.500000
758.798279	202.800000
758.835510	205.600000
758.872742	211.200000
758.909851	206.900000
758.947083	208.600000
758.984253	207.000000
759.021484	210.900000
759.058716	211.700000
759.095886	210.500000
759.133057	204.500000
759.170288	209.400000
759.207458	203.300000
759.244690	217.900000
759.281860	216.700000
759.319031	206.600000
759.356262	205.200000
759.393433	206.400000
759.430603	205.500000
759.467773	208.400000
759.505005	214.800000
759.542175	213.000000
759.579346	206.900000
759.616516	208.700000
759.653687	211.700000
759.690918	205.900000
759.728027	210.200000
759.765259	211.000000
759.802429	212.600000
759.839539	212.000000
759.876770	217.400000
759.913940	219.700000
759.951111	211.900000
759.988281	209.600000
760.025452	209.000000
760.062561	205.300000
760.099792	219.100000
760.136963	212.400000
760.174072	209.200000
760.211243	204.200000
760.248413	207.500000
760.285583	206.400000
760.322754	222.000000
760.359863	216.600000
760.397034	218.700000
760.434204	212.200000
760.471375	212.200000
760.508545	210.100000
760.545715	211.500000
760.582825	207.200000
760.619995	217.900000
760.657166	207.100000
760.694275	219.400000
760.731445	214.700000
760.768555	215.300000
760.805664	216.100000
760.842834	215.000000
760.879944	216.600000
760.917114	217.100000
760.954285	213.800000
760.991394	209.200000
761.028564	219.600000
761.065674	218.900000
761.102783	211.600000
761.139954	220.600000
761.177124	221.300000
761.214172	222.800000
761.251343	214.400000
761.288452	217.300000
761.325562	219.600000
761.362732	214.800000
761.399841	215.200000
761.436951	219.300000
761.474121	214.000000
761.511169	219.800000
761.548340	223.900000
761.585449	222.500000
761.622559	222.100000
761.659668	221.200000
761.696838	227.800000
761.733887	222.600000
761.771057	220.600000
761.808167	221.700000
761.845276	226.300000
761.882385	234.100000
761.919434	223.500000
761.956604	242.500000
761.993713	220.900000
762.030762	231.900000
762.067871	225.400000
762.105042	222.100000
762.142090	233.200000
762.179199	226.200000
762.216309	232.300000
762.253418	240.800000
762.290527	236.400000
762.327637	233.800000
762.364685	222.200000
762.401794	231.300000
762.438904	231.700000
762.475952	224.800000
762.513062	225.100000
762.550110	224.600000
762.587219	240.800000
762.624329	240.700000
762.661377	234.600000
762.698486	234.100000
762.735596	233.400000
762.772644	228.300000
762.809753	224.000000
762.846863	233.200000
762.883911	237.100000
762.921021	235.600000
762.958069	234.900000
762.995117	241.500000
763.032227	243.000000
763.069336	235.900000
763.106323	232.400000
763.143433	231.200000
763.180481	238.100000
763.217590	239.500000
763.254639	237.300000
763.291687	236.500000
763.328735	244.900000
763.365845	237.300000
763.402893	237.700000
763.439941	241.100000
763.477051	246.200000
763.514038	245.600000
763.551147	238.900000
763.588196	242.300000
763.625244	240.600000
763.662292	248.700000
763.699402	251.800000
763.736389	245.800000
763.773499	256.400000
763.810486	249.900000
763.847534	246.900000
763.884644	250.700000
763.921631	245.500000
763.958679	257.300000
763.995728	247.700000
764.032776	256.300000
764.069824	242.400000
764.106873	252.200000
764.143860	257.400000
764.180969	251.100000
764.218018	257.400000
764.255005	250.400000
764.292053	253.000000
764.329102	262.600000
764.366089	262.100000
764.403137	261.700000
764.440125	249.400000
764.477173	255.800000
764.514221	256.800000
764.551208	255.400000
764.588257	251.700000
764.625305	262.000000
764.662292	266.600000
764.699341	271.900000
764.736389	261.500000
764.773376	278.500000
764.810425	265.400000
764.847473	273.300000
764.884399	267.900000
764.921448	276.300000
764.958435	273.500000
764.995483	263.500000
765.032532	280.000000
765.069458	266.500000
765.106506	264.900000
765.143555	263.800000
765.180481	268.900000
765.217529	277.500000
765.254578	265.500000
765.291504	273.500000
765.328552	269.400000
765.365540	267.400000
765.402527	283.700000
765.439575	269.700000
765.476501	264.100000
765.513550	264.900000
765.550537	270.500000
765.587463	277.400000
765.624512	266.900000
765.661499	261.800000
765.698486	279.400000
765.735474	268.200000
765.772461	270.400000
765.809448	280.600000
765.846436	277.200000
765.883423	281.700000
765.920410	276.500000
765.957397	272.500000
765.994385	278.500000
766.031311	286.900000
766.068359	279.000000
766.105286	279.300000
766.142273	285.600000
766.179260	280.400000
766.216187	274.500000
766.253174	271.100000
766.290161	281.400000
766.327148	284.200000
766.364136	284.300000
766.401123	300.900000
766.438049	278.500000
766.475037	292.600000
766.512024	287.200000
766.548950	301.800000
766.585937	297.900000
766.622864	292.400000
766.659790	291.200000
766.696777	280.900000
766.733704	297.500000
766.770691	286.900000
766.807678	301.300000
766.844604	297.500000
766.881531	296.800000
766.918518	301.700000
766.955444	304.800000
766.992432	296.600000
767.029358	304.100000
767.066284	302.200000
767.103271	299.800000
767.140198	330.600000
767.177124	315.800000
767.214050	308.500000
767.251038	309.000000
767.287964	305.100000
767.324890	300.900000
767.361816	307.700000
767.398743	314.300000
767.435730	308.600000
767.472595	312.600000
767.509583	316.800000
767.546509	305.600000
767.583374	314.300000
767.620361	304.300000
767.657288	311.500000
767.694214	311.500000
767.731140	310.900000
767.768066	314.200000
767.804993	318.600000
767.841919	310.600000
767.878845	315.700000
767.915710	324.600000
767.952698	321.600000
767.989563	320.600000
768.026489	324.000000
768.063416	316.300000
768.100281	317.600000
768.137207	330.800000
768.174133	329.000000
768.211060	330.100000
768.247986	328.300000
768.284912	328.000000
768.321777	327.500000
768.358704	326.400000
768.395630	333.500000
768.432495	323.800000
768.469421	333.800000
768.506348	337.900000
768.543152	344.700000
768.580078	339.400000
768.616943	342.700000
768.653870	344.400000
768.690796	342.500000
768.727661	342.400000
768.764587	343.200000
768.801453	338.200000
768.838318	349.900000
768.875244	348.200000
768.912109	353.500000
768.948975	346.200000
768.985901	348.100000
769.022766	348.700000
769.059631	354.700000
769.096558	350.200000
769.133362	351.300000
769.170288	354.400000
769.207214	353.100000
769.244019	359.800000
769.280945	357.700000
769.317810	366.800000
769.354675	360.900000
769.391541	370.900000
769.428406	365.800000
769.465271	378.800000
769.502136	367.000000
769.539062	371.000000
769.575867	370.700000
769.612732	373.400000
769.649597	377.900000
769.686462	382.600000
769.723328	376.900000
769.760193	374.100000
769.797058	375.900000
769.833923	388.300000
769.870728	381.700000
769.907593	387.000000
769.944519	385.900000
769.981323	388.300000
770.018188	389.700000
770.055054	386.400000
770.091858	384.600000
770.128723	397.500000
770.165588	403.600000
770.202393	388.000000
770.239258	401.100000
770.276062	399.200000
770.312927	398.200000
770.349792	403.600000
770.386597	404.500000
770.423462	412.200000
770.460327	418.000000
770.497131	403.300000
770.533997	396.300000
770.570862	415.900000
770.607605	415.800000
770.644470	412.300000
770.681335	411.900000
770.718140	411.900000
770.754944	404.800000
770.791809	407.100000
770.828613	407.700000
770.865479	410.800000
770.902222	421.900000
770.939087	415.500000
770.975952	404.400000
771.012695	409.800000
771.049561	428.800000
771.086365	415.100000
771.123169	410.500000
771.159973	414.500000
771.196838	418.800000
771.233582	419.300000
771.270447	419.900000
771.307251	422.000000
771.344055	418.400000
771.380859	421.700000
771.417664	418.700000
771.454468	423.600000
771.491272	425.900000
771.528076	425.500000
771.564880	423.400000
771.601685	434.300000
771.638428	423.800000
771.675293	431.200000
771.712097	421.200000
771.748840	436.400000
771.785645	429.000000
771.822449	430.800000
771.859253	434.600000
771.896057	432.900000
771.932861	444.900000
771.969604	434.000000
772.006409	427.000000
772.043213	443.700000
772.079956	441.300000
772.116760	433.100000
772.153503	438.000000
772.190308	449.700000
772.227112	441.300000
772.263855	434.000000
772.300659	442.700000
772.337463	451.200000
772.374207	441.300000
772.411011	438.500000
772.447754	443.700000
772.484497	458.500000
772.521301	452.500000
772.558105	452.200000
772.594849	453.400000
772.631592	458.700000
772.668396	459.300000
772.705139	462.200000
772.741882	458.100000
772.778625	474.100000
772.815430	477.100000
772.852173	469.200000
772.888916	480.900000
772.925720	477.000000
772.962463	486.100000
772.999207	482.100000
773.035950	488.200000
773.072754	490.100000
773.109436	485.200000
773.146240	483.800000
773.182922	482.400000
773.219727	493.300000
773.256470	488.500000
773.293152	480.300000
773.329956	489.800000
773.366699	493.700000
773.403381	485.000000
773.440186	494.400000
773.476929	500.000000
773.513611	494.700000
773.550354	496.700000
773.587158	495.900000
773.623840	491.000000
773.660583	498.600000
773.697327	517.900000
773.734009	505.700000
773.770813	506.200000
773.807495	505.400000
773.844238	502.700000
773.880981	520.600000
773.917664	518.300000
773.954407	525.700000
773.991150	519.300000
774.027832	526.100000
774.064575	514.100000
774.101318	526.900000
774.138000	531.100000
774.174744	529.400000
774.211487	533.200000
774.248108	523.100000
774.284851	520.700000
774.321594	532.000000
774.358276	536.700000
774.395020	546.800000
774.431702	545.400000
774.468384	537.700000
774.505127	534.400000
774.541809	548.600000
774.578491	555.400000
774.615234	557.200000
774.651917	549.900000
774.688599	557.300000
774.725342	563.700000
774.762024	560.400000
774.798706	562.100000
774.835449	565.600000
774.872070	574.900000
774.908813	571.100000
774.945496	571.300000
774.982178	571.100000
775.018860	575.100000
775.055542	579.100000
775.092224	583.800000
775.128967	591.400000
775.165588	589.100000
775.202271	580.900000
775.239014	590.000000
775.275635	592.100000
775.312317	591.300000
775.349060	597.500000
775.385681	599.300000
775.422363	590.600000
775.459045	599.200000
775.495667	598.000000
775.532410	609.900000
775.569092	609.000000
775.605713	611.200000
775.642395	610.200000
775.679016	611.500000
775.715698	611.600000
775.752380	618.100000
775.789001	615.100000
775.825684	614.300000
775.862366	620.000000
775.898987	629.700000
775.935669	618.000000
775.972351	641.200000
776.008972	638.800000
776.045654	637.300000
776.082336	632.400000
776.118958	632.500000
776.155640	633.600000
776.192322	644.400000
776.228882	649.700000
776.265564	649.700000
776.302185	643.800000
776.338867	650.100000
776.375488	634.000000
776.412109	649.600000
776.448792	655.900000
776.485413	664.200000
776.522034	650.800000
776.558716	648.500000
776.595337	642.400000
776.631958	652.800000
776.668579	654.300000
776.705261	664.200000
776.741882	658.700000
776.778503	660.100000
776.815186	652.000000
776.851746	662.400000
776.888367	661.800000
776.924988	673.200000
776.961609	664.400000
776.998291	665.100000
777.034851	655.500000
777.071472	667.200000
777.108154	663.500000
777.144714	677.100000
777.181335	675.900000
777.218018	666.200000
777.254578	673.100000
777.291199	670.900000
777.327759	677.900000
777.364380	683.400000
777.401062	687.900000
777.437622	699.300000
777.474243	680.800000
777.510864	690.400000
777.547424	687.600000
777.584045	689.100000
777.620667	690.900000
777.657227	691.500000
777.693848	694.100000
777.730469	711.100000
777.767029	700.300000
777.803650	703.900000
777.840271	698.500000
777.876831	698.800000
777.913452	704.200000
777.950012	686.300000
777.986633	693.700000
778.023193	687.000000
778.059753	690.300000
778.096375	693.900000
778.132996	705.200000
778.169556	696.300000
778.206116	697.600000
778.242737	692.600000
778.279297	704.800000
778.315857	700.400000
778.352478	705.400000
778.389038	716.600000
778.425598	715.000000
778.462219	726.400000
778.498718	726.200000
778.535339	734.400000
778.571838	733.700000
778.608459	738.100000
778.645020	727.100000
778.681580	740.400000
778.718140	741.600000
778.754761	734.600000
778.791260	743.500000
778.827881	752.500000
778.864441	750.000000
778.900940	756.400000
778.937561	756.600000
778.974121	759.500000
779.010620	742.700000
779.047241	748.700000
779.083801	757.000000
779.120300	756.800000
779.156860	761.800000
779.193359	762.500000
779.229980	761.900000
779.266541	771.300000
779.303040	770.700000
779.339600	766.000000
779.376160	763.200000
779.412659	766.500000
779.449219	763.200000
779.485779	771.100000
779.522278	767.300000
779.558838	777.800000
779.595398	777.100000
779.631897	778.700000
779.668457	770.100000
779.705017	787.600000
779.741516	777.000000
779.778076	770.000000
779.814575	778.400000
779.851074	790.600000
779.887634	784.900000
779.924133	800.400000
779.960693	782.300000
779.997253	788.500000
780.033691	797.200000
780.070251	806.900000
780.106812	818.400000
780.143250	814.300000
780.179810	812.500000
780.216370	813.400000
780.252808	819.500000
780.289368	834.100000
780.325867	833.800000
780.362366	833.000000
780.398865	844.200000
780.435364	831.600000
780.471863	841.900000
780.508423	844.800000
780.544861	850.000000
780.581421	854.200000
780.617920	850.500000
780.654419	840.900000
780.690918	848.600000
780.727417	858.100000
780.763916	854.500000
780.800415	862.500000
780.836914	854.100000
780.873352	861.300000
780.909912	848.300000
780.946411	857.300000
780.982849	863.600000
781.019348	882.700000
781.055786	877.400000
781.092346	873.100000
781.128845	882.700000
781.165283	886.000000
781.201782	899.900000
781.238281	899.200000
781.274719	908.200000
781.311218	901.600000
781.347717	918.800000
781.384155	907.300000
781.420654	909.500000
781.457092	919.700000
781.493591	919.000000
781.530090	912.200000
781.566528	913.700000
781.602966	915.200000
781.639465	913.200000
781.675903	915.900000
781.712402	920.900000
781.748901	932.400000
781.785278	919.400000
781.821777	929.400000
781.858276	921.300000
781.894714	938.700000
781.931152	929.700000
781.967651	938.200000
782.004089	932.200000
782.040527	941.200000
782.076965	933.900000
782.113403	936.800000
782.149902	942.900000
782.186340	935.000000
782.222778	950.600000
782.259277	933.300000
782.295654	929.100000
782.332092	940.800000
782.368591	937.700000
782.404968	929.900000
782.441467	937.300000
782.477905	935.800000
782.514282	928.600000
782.550781	946.200000
782.587219	947.700000
782.623596	951.200000
782.660095	946.100000
782.696472	952.700000
782.732910	948.700000
782.769348	949.900000
782.805786	955.500000
782.842224	919.300000
782.878662	841.900000
782.915039	717.400000
782.951477	560.700000
782.987915	419.800000
783.024292	347.500000
783.060730	342.300000
783.097168	348.900000
783.133545	346.400000
783.169983	321.100000
783.206421	281.700000
783.242798	259.800000
783.279236	261.700000
783.315613	295.400000
783.352051	334.800000
783.388489	346.700000
783.424866	339.800000
783.461304	331.400000
783.497681	346.600000
783.534058	422.900000
783.570496	556.800000
783.606934	696.300000
783.643250	816.400000
783.679687	898.500000
783.716125	907.000000
783.752441	932.800000
783.788879	957.100000
783.825317	962.900000
783.861633	967.500000
783.898071	972.300000
783.934448	993.700000
783.970825	1008.800000
784.007263	1013.900000
784.043579	1014.300000
784.080017	1020.700000
784.116394	1017.200000
784.152710	1021.100000
784.189148	1033.800000
784.225525	1035.400000
784.261902	1021.400000
784.298279	1015.800000
784.334656	1018.100000
784.371033	1010.800000
784.407410	1013.100000
784.443787	1006.500000
784.480164	990.300000
784.516541	970.600000
784.552856	974.600000
784.589233	970.200000
784.625610	969.200000
784.661987	1002.300000
784.698364	993.300000
784.734741	984.200000
784.771057	982.300000
784.807434	986.300000
784.843811	1006.600000
784.880127	1005.100000
784.916504	1037.400000
784.952881	1045.900000
784.989197	1037.900000
785.025574	1041.500000
785.061951	1046.600000
785.098267	1074.400000
785.134644	1070.500000
785.170959	1073.400000
785.207275	1079.700000
785.243652	1073.200000
785.279968	1059.600000
785.316345	1056.900000
785.352722	1059.000000
785.388977	1056.100000
785.425354	1038.400000
785.461731	1019.200000
785.498047	1006.200000
785.534363	998.300000
785.570679	996.000000
785.606995	1003.200000
785.643372	1009.800000
785.679687	1005.700000
785.716003	994.700000
785.752380	992.700000
785.788635	998.200000
785.825012	1019.600000
785.861328	1037.100000
785.897644	1031.100000
785.933960	1041.800000
785.970337	1056.000000
786.006592	1068.900000
786.042908	1080.500000
786.079285	1097.300000
786.115540	1113.600000
786.151855	1116.100000
786.188171	1110.300000
786.224487	1107.500000
786.260803	1103.900000
786.297119	1120.400000
786.333435	1118.200000
786.369751	1116.600000
786.406006	1111.800000
786.442322	1090.100000
786.478638	1072.000000
786.514954	1091.100000
786.551270	1093.000000
786.587585	1104.100000
786.623840	1089.000000
786.660156	1081.000000
786.696472	1069.900000
786.732727	1061.300000
786.769043	1066.400000
786.805298	1065.000000
786.841614	1077.800000
786.877930	1084.100000
786.914124	1074.900000
786.950439	1089.900000
786.986755	1091.700000
787.023010	1113.600000
787.059326	1128.700000
787.095642	1135.900000
787.131836	1158.400000
787.168152	1136.500000
787.204468	1143.700000
787.240723	1158.400000
787.276978	1179.500000
787.313293	1182.800000
787.349548	1180.200000
787.385803	1178.900000
787.422058	1172.300000
787.458313	1170.400000
787.494629	1167.100000
787.530823	1170.600000
787.567139	1162.500000
787.603455	1155.300000
787.639648	1132.800000
787.675903	1134.800000
787.712219	1134.400000
787.748413	1130.300000
787.784729	1147.900000
787.820984	1132.700000
787.857178	1128.100000
787.893494	1119.600000
787.929749	1117.100000
787.965942	1127.200000
788.002258	1144.700000
788.038452	1163.800000
788.074707	1151.100000
788.110962	1158.100000
788.147217	1153.300000
788.183472	1162.300000
788.219727	1175.000000
788.255920	1195.100000
788.292175	1202.300000
788.328430	1200.500000
788.364624	1178.900000
788.400879	1163.000000
788.437134	1170.200000
788.473328	1176.900000
788.509583	1174.400000
788.545837	1172.600000
788.582031	1166.900000
788.618286	1155.000000
788.654480	1147.800000
788.690735	1161.700000
788.726990	1184.600000
788.763184	1182.100000
788.799377	1194.500000
788.835632	1177.000000
788.871826	1195.000000
788.908081	1190.200000
788.944336	1180.200000
788.980469	1207.200000
789.016724	1197.800000
789.052979	1199.000000
789.089111	1174.400000
789.125366	1179.400000
789.161621	1163.500000
789.197754	1175.400000
789.234009	1176.200000
789.270142	1161.600000
789.306396	1155.800000
789.342590	1148.300000
789.378784	1116.800000
789.414978	1121.100000
789.451233	1141.900000
789.487366	1141.700000
789.523621	1150.200000
789.559814	1139.400000
789.595947	1129.100000
789.632202	1137.400000
789.668335	1144.900000
789.704529	1166.700000
789.740784	1192.700000
789.776917	1200.700000
789.813110	1187.000000
789.849304	1192.500000
789.885498	1194.900000
789.921692	1212.500000
789.957886	1222.300000
789.994019	1224.200000
790.030212	1215.700000
790.066406	1217.700000
790.102539	1210.000000
790.138733	1214.100000
790.174927	1212.200000
790.211060	1231.600000
790.247253	1220.800000
790.283386	1210.000000
790.319580	1194.500000
790.355774	1169.700000
790.391907	1174.400000
790.428101	1193.800000
790.464294	1196.500000
790.500427	1205.100000
790.536621	1185.700000
790.572754	1161.500000
790.608887	1162.500000
790.645081	1168.500000
790.681274	1186.500000
790.717346	1198.500000
790.753540	1185.700000
790.789734	1158.000000
790.825867	1126.500000
790.862000	1112.500000
790.898132	1083.400000
790.934265	1067.300000
790.970459	1092.500000
791.006592	1131.800000
791.042725	1198.400000
791.078918	1231.500000
791.114990	1250.500000
791.151184	1268.700000
791.187317	1301.200000
791.223389	1297.200000
791.259583	1285.800000
791.295715	1288.900000
791.331848	1290.300000
791.367981	1303.700000
791.404114	1310.800000
791.440247	1319.200000
791.476379	1316.400000
791.512451	1293.200000
791.548584	1289.900000
791.584778	1276.200000
791.620850	1301.500000
791.656982	1312.100000
791.693115	1307.100000
791.729187	1308.900000
791.765381	1292.300000
791.801514	1296.700000
791.837585	1304.300000
791.873718	1313.800000
791.909851	1331.800000
791.945923	1346.200000
791.982056	1306.700000
792.018188	1302.000000
792.054260	1306.500000
792.090393	1314.500000
792.126465	1307.800000
792.162598	1323.500000
792.198669	1304.000000
792.234741	1299.900000
792.270874	1292.800000
792.307007	1269.700000
792.343079	1275.600000
792.379150	1294.000000
792.415283	1285.100000
792.451355	1288.600000
792.487488	1266.600000
792.523560	1257.800000
792.559631	1258.600000
792.595764	1251.300000
792.631836	1258.200000
792.667908	1274.300000
792.703979	1256.800000
792.740051	1252.500000
792.776184	1257.700000
792.812256	1255.800000
792.848328	1267.200000
792.884399	1278.200000
792.920471	1277.300000
792.956543	1271.900000
792.992615	1267.200000
793.028748	1266.500000
793.064758	1269.900000
793.100830	1293.100000
793.136963	1314.200000
793.172974	1308.100000
793.209045	1302.300000
793.245178	1317.100000
793.281189	1294.000000
793.317261	1304.200000
793.353271	1316.400000
793.389404	1329.900000
793.425476	1331.500000
793.461487	1308.200000
793.497559	1299.200000
793.533630	1296.900000
793.569641	1296.100000
793.605713	1303.000000
793.641785	1309.700000
793.677795	1320.400000
793.713867	1310.000000
793.749878	1303.800000
793.785950	1317.000000
793.822021	1325.200000
793.858032	1311.300000
793.894104	1325.600000
793.930176	1316.700000
793.966187	1316.400000
794.002258	1302.000000
794.038269	1299.700000
794.074280	1301.300000
794.110352	1328.400000
794.146423	1304.900000
794.182373	1305.600000
794.218445	1305.900000
794.254517	1285.700000
794.290466	1273.300000
794.326538	1273.500000
794.362549	1282.100000
794.398560	1289.400000
794.434631	1287.700000
794.470581	1262.900000
794.506653	1252.500000
794.542664	1251.400000
794.578674	1251.000000
794.614685	1251.500000
794.650757	1252.100000
794.686707	1246.400000
794.722778	1236.300000
794.758789	1235.500000
794.794739	1248.800000
794.830811	1276.800000
794.866821	1302.300000
794.902771	1300.500000
794.938843	1291.700000
794.974792	1290.200000
795.010803	1284.500000
795.046814	1292.300000
795.082825	1277.900000
795.118835	1296.500000
795.154846	1276.500000
795.190796	1279.900000
795.226807	1246.900000
795.262817	1255.300000
795.298767	1253.300000
795.334778	1258.000000
795.370850	1254.600000
795.406799	1260.800000
795.442810	1234.800000
795.478821	1229.200000
795.514709	1227.400000
795.550720	1248.300000
795.586670	1231.100000
795.622681	1241.200000
795.658691	1241.000000
795.694641	1235.900000
795.730652	1219.900000
795.766663	1220.900000
795.802551	1232.500000
795.838562	1250.700000
795.874573	1237.900000
795.910522	1234.000000
795.946472	1221.900000
795.982483	1218.100000
796.018433	1222.000000
796.054382	1233.900000
796.090393	1230.400000
796.126282	1226.200000
796.162292	1212.900000
796.198242	1195.300000
796.234192	1200.900000
796.270203	1195.500000
796.306091	1199.400000
796.342041	1222.400000
796.378052	1208.600000
796.413940	1208.100000
796.449951	1206.800000
796.485901	1203.800000
796.521790	1211.800000
796.557800	1228.700000
796.593689	1239.500000
796.629639	1222.600000
796.665649	1216.800000
796.701599	1208.900000
796.737488	1203.600000
796.773437	1207.000000
796.809387	1215.300000
796.845337	1214.500000
796.881287	1204.600000
796.917175	1182.200000
796.953125	1175.500000
796.989075	1186.200000
797.024963	1188.900000
797.060913	1191.500000
797.096863	1191.900000
797.132751	1182.600000
797.168701	1162.100000
797.204590	1161.700000
797.240540	1163.400000
797.276489	1178.800000
797.312439	1196.400000
797.348328	1185.700000
797.384277	1173.800000
797.420166	1155.900000
797.456055	1151.400000
797.492004	1146.200000
797.527893	1162.800000
797.563843	1169.900000
797.599731	1164.700000
797.635620	1147.400000
797.671570	1152.800000
797.707520	1149.400000
797.743347	1153.200000
797.779297	1169.000000
797.815125	1165.800000
797.851074	1158.100000
797.887024	1142.100000
797.922913	1123.000000
797.958801	1130.800000
797.994690	1132.500000
798.030579	1145.500000
798.066467	1147.300000
798.102356	1132.600000
798.138245	1123.200000
798.174133	1118.000000
798.210083	1122.100000
798.245911	1136.700000
798.281799	1147.100000
798.317749	1140.500000
798.353577	1127.900000
798.389465	1122.800000
798.425293	1117.700000
798.461243	1113.700000
798.497131	1120.100000
798.532959	1125.800000
798.568848	1138.200000
798.604736	1125.000000
798.640564	1098.300000
798.676453	1095.000000
798.712402	1099.500000
798.748230	1107.800000
798.784119	1110.600000
798.820007	1114.400000
798.855835	1112.100000
798.891724	1096.800000
798.927551	1090.800000
798.963379	1095.800000
798.999268	1096.400000
799.035095	1097.200000
799.070984	1084.900000
799.106873	1068.500000
799.142700	1079.500000
799.178528	1063.300000
799.214417	1062.800000
799.250244	1087.000000
799.286133	1079.900000
799.321960	1072.900000
799.357788	1062.600000
799.393677	1061.300000
799.429504	1056.700000
799.465332	1067.000000
799.501221	1077.400000
799.537048	1077.100000
799.572876	1065.100000
799.608704	1065.300000
799.644531	1070.700000
799.680359	1076.400000
799.716248	1091.200000
799.752014	1099.800000
799.787903	1085.700000
799.823730	1076.400000
799.859558	1068.700000
799.895386	1069.500000
799.931213	1068.500000
799.967041	1065.300000
800.002869	1068.100000
800.038696	1083.700000
800.074463	1056.100000
800.110352	1053.100000
800.146179	1041.600000
800.181946	1052.200000
800.217773	1056.800000
800.253540	1056.700000
800.289429	1048.300000
800.325256	1043.800000
800.361023	1026.400000
800.396851	1028.300000
800.432678	1036.100000
800.468445	1038.300000
800.504272	1031.800000
800.540100	1014.300000
800.575867	1008.800000
800.611694	1015.800000
800.647461	1008.300000
800.683289	1013.000000
800.719116	1017.000000
800.754883	1017.300000
800.790649	997.200000
800.826477	985.500000
800.862244	1004.700000
800.898071	989.900000
800.933838	991.700000
800.969604	994.900000
801.005432	992.500000
801.041199	988.200000
801.076965	973.100000
801.112793	962.600000
801.148560	952.000000
801.184326	963.100000
801.220154	963.100000
801.255859	952.800000
801.291687	948.700000
801.327454	940.900000
801.363281	937.400000
801.398987	936.500000
801.434814	937.200000
801.470520	951.300000
801.506287	934.000000
801.542114	925.500000
801.577820	920.100000
801.613647	920.000000
801.649414	921.200000
801.685120	924.000000
801.720886	928.000000
801.756714	920.100000
801.792419	906.800000
801.828186	899.700000
801.863892	908.600000
801.899719	899.200000
801.935486	893.800000
801.971252	905.800000
802.006958	897.400000
802.042725	881.900000
802.078430	889.400000
802.114197	880.500000
802.149963	896.900000
802.185669	887.500000
802.221436	878.000000
802.257202	881.000000
802.292908	877.400000
802.328674	881.900000
802.364441	885.000000
802.400146	881.700000
802.435913	874.700000
802.471558	873.400000
802.507324	865.500000
802.543091	858.300000
802.578796	869.700000
802.614502	874.400000
802.650269	879.800000
802.685974	860.800000
802.721741	864.500000
802.757446	863.600000
802.793152	861.300000
802.828918	871.400000
802.864624	867.400000
802.900330	863.800000
802.936035	859.100000
802.971802	853.700000
803.007446	846.800000
803.043213	843.600000
803.078857	850.500000
803.114624	835.800000
803.150330	843.100000
803.185974	831.400000
803.221741	832.800000
803.257446	833.500000
803.293152	838.100000
803.328857	828.500000
803.364563	827.300000
803.400208	818.500000
803.435974	826.600000
803.471680	816.900000
803.507324	811.200000
803.543030	819.300000
803.578735	822.400000
803.614441	813.400000
803.650146	824.700000
803.685791	806.700000
803.721497	804.200000
803.757202	794.900000
803.792847	804.700000
803.828552	797.600000
803.864258	801.600000
803.899902	797.900000
803.935608	777.400000
803.971313	780.800000
804.006958	783.200000
804.042664	780.200000
804.078308	791.400000
804.113953	779.700000
804.149658	786.900000
804.185364	771.600000
804.221008	779.400000
804.256714	765.100000
804.292297	768.200000
804.328003	766.200000
804.363708	755.800000
804.399292	756.200000
804.434998	754.500000
804.470703	743.700000
804.506287	756.800000
804.541992	751.900000
804.577637	755.000000
804.613281	740.800000
804.648926	735.800000
804.684570	742.300000
804.720215	734.600000
804.755920	735.400000
804.791565	730.500000
804.827209	737.400000
804.862854	727.200000
804.898437	723.000000
804.934143	724.000000
804.969788	722.000000
805.005371	722.400000
805.041077	724.700000
805.076721	723.400000
805.112305	715.900000
805.147949	712.900000
805.183655	707.500000
805.219238	709.800000
805.254883	709.900000
805.290466	717.700000
805.326111	710.700000
805.361755	697.600000
805.397400	703.600000
805.432983	705.800000
805.468628	701.400000
805.504211	705.200000
805.539856	704.300000
805.575500	712.300000
805.611084	700.500000
805.646729	686.500000
805.682373	693.500000
805.717957	701.900000
805.753601	703.400000
805.789246	688.500000
805.824768	697.700000
805.860413	697.500000
805.895996	684.100000
805.931641	681.700000
805.967224	692.200000
806.002869	686.700000
806.038452	697.800000
806.074036	692.800000
806.109619	681.000000
806.145264	675.600000
806.180847	676.300000
806.216431	669.200000
806.252014	674.700000
806.287659	678.100000
806.323181	684.100000
806.358826	677.700000
806.394409	657.500000
806.429993	658.900000
806.465576	672.100000
806.501160	654.600000
806.536743	651.900000
806.572327	659.600000
806.607910	654.200000
806.643494	653.300000
806.679077	645.400000
806.714661	649.100000
806.750244	649.500000
806.785828	642.300000
806.821350	641.700000
806.856934	648.100000
806.892517	638.600000
806.928101	631.100000
806.963684	632.200000
806.999268	642.200000
807.034790	618.800000
807.070374	629.100000
807.105896	616.600000
807.141479	614.600000
807.177063	622.900000
807.212585	615.100000
807.248169	613.900000
807.283752	623.700000
807.319275	613.400000
807.354858	610.700000
807.390381	607.600000
807.425903	610.200000
807.461487	600.100000
807.497070	594.800000
807.532593	594.100000
807.568115	592.100000
807.603699	587.900000
807.639221	583.700000
807.674744	587.200000
807.710266	590.100000
807.745850	594.800000
807.781372	584.900000
807.816895	578.400000
807.852417	581.400000
807.888000	577.000000
807.923523	573.800000
807.959045	579.600000
807.994629	567.700000
808.030090	567.700000
808.065613	572.200000
808.101135	574.500000
808.136658	570.200000
808.172241	565.800000
808.207764	563.400000
808.243225	562.600000
808.278809	554.800000
808.314270	563.000000
808.349792	551.100000
808.385315	547.300000
808.420837	552.700000
808.456360	561.200000
808.491882	556.700000
808.527344	550.300000
808.562866	560.100000
808.598389	551.700000
808.633850	543.100000
808.669434	540.600000
808.704895	548.400000
808.740417	553.300000
808.775940	544.500000
808.811462	536.700000
808.846924	530.700000
808.882385	528.800000
808.917847	528.600000
808.953369	527.300000
808.988892	523.900000
809.024353	534.700000
809.059875	526.700000
809.095398	523.300000
809.130798	518.300000
809.166321	518.600000
809.201843	515.600000
809.237305	519.200000
809.272766	519.800000
809.308228	510.100000
809.343750	508.300000
809.379211	511.500000
809.414734	509.900000
809.450134	518.200000
809.485657	496.800000
809.521118	504.300000
809.556580	499.500000
809.592102	501.600000
809.627502	494.300000
809.663025	495.200000
809.698486	489.700000
809.733887	485.300000
809.769409	489.700000
809.804871	479.300000
809.840271	479.700000
809.875793	482.500000
809.911194	487.000000
809.946655	478.200000
809.982178	474.400000
810.017639	474.000000
810.053040	475.200000
810.088501	470.900000
810.123901	469.900000
810.159424	468.300000
810.194885	462.100000
810.230286	468.400000
810.265747	458.000000
810.301208	454.700000
810.336609	461.300000
810.372070	450.900000
810.407532	454.300000
810.442932	453.300000
810.478394	459.100000
810.513794	452.100000
810.549255	446.600000
810.584717	445.200000
810.620117	441.100000
810.655518	448.100000
810.690979	445.400000
810.726379	444.100000
810.761841	430.200000
810.797302	429.000000
810.832642	429.200000
810.868103	438.800000
810.903564	429.800000
810.938904	434.300000
810.974365	421.400000
811.009827	427.600000
811.045166	419.700000
811.080627	413.100000
811.115967	416.900000
811.151428	427.000000
811.186829	416.300000
811.222229	419.800000
811.257629	408.600000
811.293091	415.200000
811.328430	422.900000
811.363892	416.500000
811.399292	416.800000
811.434631	411.800000
811.470093	416.900000
811.505493	407.600000
811.540833	408.600000
811.576294	412.100000
811.611694	407.500000
811.647034	402.400000
811.682434	406.000000
811.717773	408.900000
811.753235	408.400000
811.788635	402.700000
811.823975	402.600000
811.859375	410.000000
811.894775	395.600000
811.930115	398.400000
811.965515	397.700000
812.000916	400.000000
812.036255	393.300000
812.071655	398.900000
812.106995	387.300000
812.142395	393.100000
812.177795	398.100000
812.213196	395.000000
812.248474	394.000000
812.283875	386.900000
812.319214	386.900000
812.354614	388.600000
812.390015	383.700000
812.425293	385.500000
812.460693	382.500000
812.496094	381.100000
812.531433	373.900000
812.566772	373.000000
812.602173	374.500000
812.637451	377.500000
812.672852	371.600000
812.708191	376.600000
812.743530	368.000000
812.778931	360.400000
812.814270	364.100000
812.849609	370.600000
812.884949	365.900000
812.920227	358.900000
812.955627	376.500000
812.990967	365.500000
813.026306	359.300000
813.061646	350.400000
813.096985	345.900000
813.132324	344.300000
813.167664	349.900000
813.203003	352.500000
813.238281	341.100000
813.273682	342.000000
813.308960	335.400000
813.344299	339.900000
813.379639	346.900000
813.414978	339.000000
813.450256	340.900000
813.485596	342.500000
813.520874	333.100000
813.556213	335.200000
813.591614	339.300000
813.626831	332.700000
813.662170	336.200000
813.697510	344.700000
813.732788	329.700000
813.768127	333.400000
813.803467	333.100000
813.838745	328.200000
813.874084	333.900000
813.909363	330.400000
813.944641	329.900000
813.979980	319.500000
814.015320	326.300000
814.050598	322.000000
814.085876	325.400000
814.121155	321.300000
814.156494	321.200000
814.191772	319.500000
814.227051	316.000000
814.262390	319.000000
814.297668	317.500000
814.332947	318.800000
814.368225	311.200000
814.403564	316.000000
814.438782	311.400000
814.474121	313.600000
814.509338	309.300000
814.544617	318.300000
814.579956	307.700000
814.615173	320.200000
814.650513	313.000000
814.685791	306.000000
814.721008	309.300000
814.756348	307.200000
814.791626	303.300000
814.826843	304.000000
814.862122	302.900000
814.897400	301.900000
814.932678	303.300000
814.967957	302.400000
815.003235	300.800000
815.038452	294.800000
815.073730	291.200000
815.108948	301.800000
815.144226	300.700000
815.179504	306.000000
815.214722	288.700000
815.250000	289.800000
815.285278	295.100000
815.320496	288.600000
815.355774	291.000000
815.391052	292.900000
815.426270	288.000000
815.461487	289.600000
815.496765	282.700000
815.531982	279.700000
815.567261	284.300000
815.602539	292.800000
815.637695	286.100000
815.672974	287.200000
815.708191	288.300000
815.743408	289.500000
815.778687	281.200000
815.813904	290.400000
815.849121	271.300000
815.884399	273.400000
815.919556	272.600000
815.954834	274.000000
815.990051	277.800000
816.025269	280.500000
816.060486	271.100000
816.095703	272.900000
816.130920	272.800000
816.166199	269.400000
816.201416	272.600000
816.236572	278.100000
816.271851	266.500000
816.307007	273.500000
816.342224	263.700000
816.377441	265.800000
816.412659	259.100000
816.447876	268.900000
816.483093	263.000000
816.518250	264.200000
816.553467	261.900000
816.588745	265.900000
816.623901	258.800000
816.659119	252.800000
816.694275	258.500000
816.729492	254.400000
816.764709	292.300000
816.799927	252.700000
816.835083	256.400000
816.870300	248.500000
816.905457	254.200000
816.940674	256.800000
816.975830	251.700000
817.010986	246.700000
817.046204	249.700000
817.081421	245.100000
817.116577	246.100000
817.151733	253.500000
817.186951	254.200000
817.222107	250.800000
817.257324	254.800000
817.292419	249.400000
817.327637	242.300000
817.362854	246.200000
817.398010	240.700000
817.433167	243.100000
817.468323	242.400000
817.503479	242.800000
817.538635	253.400000
817.573853	245.500000
817.608948	244.400000
817.644165	238.400000
817.679321	237.800000
817.714478	237.500000
817.749634	241.400000
817.784790	251.200000
817.819946	246.200000
817.855103	226.700000
817.890198	238.300000
817.925415	228.900000
817.960571	238.300000
817.995667	235.400000
818.030823	238.000000
818.066040	231.700000
818.101135	236.000000
818.136292	233.800000
818.171448	229.800000
818.206543	234.200000
818.241699	236.700000
818.276855	231.100000
818.311951	232.900000
818.347107	228.400000
818.382263	233.500000
818.417358	237.700000
818.452515	237.700000
818.487610	237.100000
818.522766	228.000000
818.557922	238.200000
818.593018	232.200000
818.628113	230.700000
818.663269	224.300000
818.698364	228.700000
818.733521	224.900000
818.768677	231.500000
818.803711	220.200000
818.838867	224.000000
818.874023	225.400000
818.909058	221.900000
818.944214	220.400000
818.979370	228.200000
819.014404	223.600000
819.049561	219.100000
819.084595	224.900000
819.119751	217.100000
819.154846	224.100000
819.189941	221.200000
819.225037	214.800000
819.260193	211.700000
819.295227	213.600000
819.330322	208.800000
819.365479	207.100000
819.400513	242.700000
819.435608	208.000000
819.470764	205.800000
819.505798	208.400000
819.540894	211.400000
819.575989	208.700000
819.611084	219.100000
819.646179	218.700000
819.681213	214.700000
819.716309	211.200000
819.751404	210.800000
819.786438	214.200000
819.821533	206.300000
819.856628	210.600000
819.891663	214.500000
819.926758	220.500000
819.961853	216.200000
819.996887	207.600000
820.031982	214.200000
820.067017	208.900000
820.102112	237.100000
820.137207	206.400000
820.172302	222.300000
820.207275	205.800000
820.242371	205.700000
820.277405	204.100000
820.312500	208.500000
820.347534	209.900000
820.382568	213.400000
820.417664	204.200000
820.452759	204.200000
820.487732	202.700000
820.522827	204.200000
820.557861	201.400000
820.592896	201.900000
820.627930	204.700000
820.662964	201.900000
820.698059	206.700000
820.733093	202.600000
820.768127	207.700000
820.803162	203.000000
820.838196	200.900000
820.873230	203.800000
820.908264	205.400000
820.943298	199.000000
820.978333	208.400000
821.013367	202.800000
821.048401	208.000000
821.083435	208.700000
821.118469	194.400000
821.153503	207.500000
821.188477	203.800000
821.223511	194.300000
821.258484	200.200000
821.293579	201.500000
821.328613	194.700000
821.363647	200.500000
821.398621	194.900000
821.433655	195.800000
821.468628	212.500000
821.503662	199.100000
821.538696	202.900000
821.573669	193.600000
821.608704	202.100000
821.643677	196.000000
821.678650	202.800000
821.713684	208.400000
821.748718	196.100000
821.783691	198.100000
821.818726	199.700000
821.853638	200.000000
821.888672	197.200000
821.923706	197.300000
821.958618	194.000000
821.993652	195.900000
822.028687	202.400000
822.063599	204.500000
822.098633	199.800000
822.133667	194.200000
822.168579	196.200000
822.203613	199.400000
822.238586	192.800000
822.273560	201.500000
822.308533	193.800000
822.343567	194.500000
822.378479	194.700000
822.413452	194.700000
822.448425	190.800000
822.483398	201.000000
822.518372	199.700000
822.553345	193.500000
822.588318	202.400000
822.623291	195.000000
822.658203	193.800000
822.693237	194.900000
822.728210	190.500000
822.763123	196.200000
822.798096	189.500000
822.833069	194.900000
822.867981	194.900000
822.902954	195.500000
822.937927	195.100000
822.972900	203.800000
823.007874	185.500000
823.042725	198.000000
823.077698	205.800000
823.112671	189.000000
823.147583	191.800000
823.182556	197.300000
823.217529	197.800000
823.252441	191.300000
823.287415	206.300000
823.322388	197.000000
823.357239	194.000000
823.392212	201.300000
823.427185	196.400000
823.462097	190.500000
823.497009	197.100000
823.531982	191.200000
823.566895	193.000000
823.601807	188.300000
823.636719	190.400000
823.671631	197.000000
823.706604	192.600000
823.741455	195.500000
823.776428	186.500000
823.811340	197.200000
823.846252	199.700000
823.881165	200.100000
823.916138	196.500000
823.950989	202.300000
823.985901	190.700000
824.020813	193.400000
824.055725	190.700000
824.090637	186.700000
824.125610	195.900000
824.160461	192.900000
824.195374	193.900000
824.230225	197.400000
824.265198	185.700000
824.300110	190.200000
824.334961	202.600000
824.369873	182.300000
824.404785	194.700000
824.439636	198.000000
824.474548	184.200000
824.509460	181.500000
824.544312	197.200000
824.579224	194.500000
824.614075	193.100000
824.648987	190.000000
824.683899	191.700000
824.718811	188.600000
824.753662	199.700000
824.788574	195.300000
824.823364	193.800000
824.858276	189.100000
824.893188	197.400000
824.928040	198.300000
824.962952	194.200000
824.997803	195.100000
825.032654	193.400000
825.067566	194.800000
825.102417	188.800000
825.137268	189.200000
825.172119	192.300000
825.206970	187.600000
825.241882	188.400000
825.276733	188.700000
825.311646	189.000000
825.346436	186.000000
825.381348	186.700000
825.416138	192.000000
825.450989	187.100000
825.485901	183.100000
825.520691	183.600000
825.555542	185.100000
825.590454	189.800000
825.625244	183.000000
825.660095	196.400000
825.695007	195.300000
825.729797	189.000000
825.764648	187.300000
825.799438	189.500000
825.834290	190.300000
825.869202	184.500000
825.903992	191.800000
825.938843	185.800000
825.973694	185.300000
826.008484	202.100000
826.043335	185.600000
826.078186	180.900000
826.112976	198.900000
826.147827	195.700000
826.182678	199.800000
826.217468	182.500000
826.252319	194.400000
826.287109	185.600000
826.321899	196.700000
826.356750	187.900000
826.391541	185.800000
826.426392	195.400000
826.461182	189.100000
826.495972	183.400000
826.530823	180.700000
826.565613	189.100000
826.600403	183.300000
826.635254	192.800000
826.670044	181.200000
826.704834	182.000000
826.739685	184.500000
826.774475	190.500000
826.809265	188.600000
826.844055	185.800000
826.878906	194.100000
826.913635	190.800000
826.948425	192.000000
826.983215	190.600000
827.018005	194.100000
827.052856	188.800000
827.087585	191.100000
827.122375	181.500000
827.157227	188.800000
827.191956	202.400000
827.226746	185.900000
827.261536	194.200000
827.296265	182.200000
827.331116	187.000000
827.365906	193.200000
827.400635	186.800000
827.435425	181.100000
827.470215	197.100000
827.504944	188.000000
827.539734	193.800000
827.574463	189.400000
827.609253	196.800000
827.644043	189.400000
827.678772	195.300000
827.713562	187.200000
827.748352	188.200000
827.783081	186.200000
827.817871	190.400000
827.852600	185.200000
827.887329	191.500000
827.922119	178.900000
827.956848	192.200000
827.991638	203.600000
828.026367	190.300000
828.061157	189.500000
828.095886	188.500000
828.130615	203.200000
828.165344	179.500000
828.200073	190.100000
828.234863	187.700000
828.269592	188.900000
828.304321	195.300000
828.339111	189.300000
828.373779	186.300000
828.408569	194.100000
828.443298	193.000000
828.477966	186.000000
828.512756	189.700000
828.547424	183.800000
828.582214	187.800000
828.616943	187.500000
828.651672	188.000000
828.686340	193.900000
828.721130	186.700000
828.755798	188.500000
828.790527	190.500000
828.825256	191.000000
828.859924	189.100000
828.894714	195.600000
828.929443	196.900000
828.964111	185.500000
828.998840	192.900000
829.033569	187.200000
829.068237	188.100000
829.102966	188.000000
829.137634	191.000000
829.172363	190.400000
829.207092	190.400000
829.241821	185.600000
829.276489	181.400000
829.311157	190.500000
829.345825	187.700000
829.380554	194.800000
829.415283	184.800000
829.449951	183.600000
829.484619	197.000000
829.519348	196.200000
829.554016	189.100000
829.588745	188.300000
829.623413	182.700000
829.658081	199.800000
829.692749	182.000000
829.727417	194.600000
829.762146	190.600000
829.796814	185.300000
829.831482	186.700000
829.866150	192.000000
829.900879	186.000000
829.935486	193.300000
829.970154	187.000000
830.004883	199.700000
830.039490	189.600000
830.074219	187.500000
830.108887	188.700000
830.143494	189.100000
830.178223	184.500000
830.212891	187.100000
830.247498	188.400000
830.282166	196.900000
830.316772	194.700000
830.351501	186.900000
830.386169	188.900000
830.420776	187.000000
830.455444	189.100000
830.490112	187.100000
830.524719	179.700000
830.559387	191.700000
830.594055	192.400000
830.628662	188.800000
830.663330	189.000000
830.697998	198.200000
830.732605	188.200000
830.767273	191.700000
830.801941	189.000000
830.836487	198.400000
830.871155	192.400000
830.905762	190.300000
830.940430	182.200000
830.975098	185.500000
831.009644	190.200000
831.044312	197.400000
831.078979	190.800000
831.113525	181.000000
831.148193	189.100000
831.182861	187.200000
831.217407	192.400000
831.252075	205.200000
831.286621	186.500000
831.321289	184.000000
831.355896	189.200000
831.390564	196.600000
831.425110	188.900000
831.459778	194.800000
831.494324	203.000000
831.528931	192.600000
831.563599	193.700000
831.598145	183.200000
831.632751	188.700000
831.667419	187.300000
831.701965	191.600000
831.736572	193.000000
831.771179	183.100000
831.805786	185.000000
831.840393	196.900000
831.874939	180.500000
831.909546	193.500000
831.944153	182.100000
831.978760	187.900000
832.013306	184.500000
832.047913	196.600000
832.082458	196.200000
832.117065	185.900000
832.151672	197.900000
832.186218	188.800000
832.220825	191.400000
832.255432	182.100000
832.289978	185.300000
832.324585	191.700000
832.359192	191.100000
832.393677	187.600000
832.428284	189.500000
832.462830	188.200000
832.497437	188.000000
832.531982	194.200000
832.566589	188.500000
832.601135	189.800000
832.635681	181.800000
832.670227	189.100000
832.704773	196.700000
832.739380	190.100000
832.773926	190.100000
832.808472	185.800000
832.843079	189.800000
832.877563	192.600000
832.912170	187.300000
832.946716	182.000000
832.981201	194.100000
833.015808	191.900000
833.050293	189.600000
833.084839	184.500000
833.119446	187.000000
833.153992	192.800000
833.188477	188.800000
833.223022	185.900000
833.257568	191.700000
833.292114	196.100000
833.326660	200.000000
833.361145	185.500000
833.395691	182.600000
833.430237	187.500000
833.464783	191.600000
833.499329	184.900000
833.533875	184.500000
833.568359	192.300000
833.602905	196.800000
833.637390	193.400000
833.671875	186.000000
833.706421	187.000000
833.740906	186.900000
833.775452	178.500000
833.809998	186.400000
833.844482	196.100000
833.879028	188.700000
833.913513	185.300000
833.947998	190.200000
833.982544	184.600000
834.017090	186.400000
834.051514	176.700000
834.086060	192.100000
834.120544	187.900000
834.155029	192.100000
834.189575	186.600000
834.223999	192.200000
834.258545	190.300000
834.293030	190.400000
834.327515	188.800000
834.362000	186.200000
834.396545	191.800000
834.430969	187.800000
834.465454	192.400000
834.500000	182.200000
834.534424	191.800000
834.568970	180.200000
834.603455	181.100000
834.637878	184.700000
834.672363	189.700000
834.706909	189.500000
834.741333	190.200000
834.775818	181.500000
834.810242	185.000000
834.844727	189.100000
834.879211	186.400000
834.913635	189.300000
834.948181	189.200000
834.982666	189.300000
835.017090	186.500000
835.051575	192.300000
835.086060	186.100000
835.120483	191.300000
835.154907	192.500000
835.189331	186.600000
835.223816	192.100000
835.258301	182.500000
835.292786	183.800000
835.327209	193.300000
835.361694	184.200000
835.396057	185.300000
835.430542	192.200000
835.465027	189.600000
835.499390	184.400000
835.533875	207.400000
835.568359	186.100000
835.602722	181.400000
835.637207	190.100000
835.671692	183.300000
835.706055	206.400000
835.740540	191.000000
835.774902	191.400000
835.809387	189.200000
835.843811	183.400000
835.878235	197.100000
835.912659	182.500000
835.947083	185.400000
835.981506	189.200000
836.015930	181.500000
836.050354	194.500000
836.084778	197.400000
836.119202	193.200000
836.153625	202.200000
836.187988	185.400000
836.222473	184.800000
836.256897	190.800000
836.291260	189.600000
836.325684	191.100000
836.360046	186.400000
836.394470	189.400000
836.428894	195.000000
836.463318	186.300000
836.497681	192.200000
836.532104	195.700000
836.566467	190.700000
836.600891	186.300000
836.635315	193.500000
836.669678	192.200000
836.704102	193.200000
836.738525	190.600000
836.772888	180.700000
836.807251	185.800000
836.841675	191.700000
836.876038	183.500000
836.910461	186.100000
836.944763	192.400000
836.979187	186.400000
837.013611	193.900000
837.047974	182.000000
837.082336	201.100000
837.116699	192.600000
837.151062	188.200000
837.185486	182.100000
837.219849	187.000000
837.254211	192.800000
837.288574	187.400000
837.322937	184.700000
837.357300	176.900000
837.391663	202.100000
837.426086	192.000000
837.460388	189.300000
837.494751	194.900000
837.529114	187.100000
837.563477	195.600000
837.597839	191.100000
837.632141	189.100000
837.666565	186.800000
837.700928	191.400000
837.735229	193.800000
837.769592	191.100000
837.803955	195.200000
837.838257	188.200000
837.872620	185.900000
837.906982	197.100000
837.941284	189.400000
837.975647	189.700000
838.010010	196.500000
838.044312	186.900000
838.078674	187.500000
838.112976	190.200000
838.147339	192.700000
838.181702	189.700000
838.216003	199.000000
838.250366	190.800000
838.284668	193.000000
838.318970	181.600000
838.353333	188.300000
838.387634	189.100000
838.421936	189.800000
838.456299	191.100000
838.490601	197.200000
838.524902	192.800000
838.559265	194.800000
838.593567	194.100000
838.627869	183.700000
838.662170	191.400000
838.696472	182.300000
838.730774	185.400000
838.765137	193.500000
838.799377	175.300000
838.833740	189.000000
838.868042	196.200000
838.902283	180.800000
838.936646	195.200000
838.970947	190.600000
839.005188	195.300000
839.039551	182.100000
839.073792	197.300000
839.108093	185.300000
839.142395	198.600000
839.176697	182.600000
839.210937	189.900000
839.245300	200.700000
839.279541	182.500000
839.313843	188.500000
839.348145	192.900000
839.382385	194.500000
839.416687	193.700000
839.450989	192.200000
839.485229	189.200000
839.519531	183.900000
839.553833	194.600000
839.588013	188.600000
839.622314	191.700000
839.656555	191.800000
839.690857	189.800000
839.725159	183.100000
839.759460	187.700000
839.793640	186.100000
839.827942	188.000000
839.862183	185.600000
839.896423	190.500000
839.930725	198.800000
839.964966	198.000000
839.999207	197.300000
840.033508	195.600000
840.067688	187.200000
840.101990	198.100000
840.136230	188.100000
840.170471	198.600000
840.204712	185.600000
840.238953	185.300000
840.273193	190.300000
840.307434	193.700000
840.341736	185.500000
840.375916	182.400000
840.410217	185.900000
840.444397	195.800000
840.478638	192.200000
840.512878	194.100000
840.547119	191.100000
840.581360	190.600000
840.615601	200.000000
840.649780	197.600000
840.684021	190.200000
840.718262	198.400000
840.752441	194.200000
840.786682	189.600000
840.820862	190.900000
840.855103	197.000000
840.889343	188.900000
840.923584	194.300000
840.957764	191.800000
840.992004	191.100000
841.026184	203.500000
841.060425	188.200000
841.094666	187.400000
841.128845	193.300000
841.163025	190.900000
841.197266	192.500000
841.231445	190.600000
841.265686	190.400000
841.299866	184.400000
841.334045	199.200000
841.368286	189.100000
841.402405	197.700000
841.436646	193.800000
841.470825	187.200000
841.505005	188.100000
841.539185	185.500000
841.573425	186.700000
841.607544	191.400000
841.641785	190.900000
841.675964	185.800000
841.710144	192.000000
841.744324	188.100000
841.778503	189.500000
841.812683	186.900000
841.846863	198.200000
841.881042	198.100000
841.915222	187.900000
841.949402	205.300000
841.983521	181.200000
842.017700	187.800000
842.051880	191.400000
842.086060	192.100000
842.120239	190.200000
842.154419	189.000000
842.188538	191.100000
842.222717	186.500000
842.256897	199.500000
842.291016	189.100000
842.325195	192.000000
842.359375	201.500000
842.393494	195.400000
842.427673	189.900000
842.461853	193.400000
842.495911	197.800000
842.530090	191.300000
842.564209	189.100000
842.598389	192.600000
842.632568	190.700000
842.666626	195.200000
842.700806	187.400000
842.734985	188.100000
842.769043	193.600000
842.803223	187.500000
842.837402	188.200000
842.871460	187.300000
842.905640	198.800000
842.939697	186.000000
842.973877	191.800000
843.007996	195.800000
843.042175	200.600000
843.076233	187.300000
843.110413	191.300000
843.144470	198.500000
843.178589	194.100000
843.212769	187.000000
843.246826	195.100000
843.280945	188.100000
843.315125	188.800000
843.349182	185.600000
843.383301	195.500000
843.417419	203.900000
843.451538	190.700000
843.485657	188.300000
843.519714	190.100000
843.553833	192.200000
843.587952	188.500000
843.622070	186.600000
843.656128	193.600000
843.690247	188.500000
843.724304	188.500000
843.758423	192.300000
843.792542	187.700000
843.826599	190.000000
843.860718	187.800000
843.894836	184.100000
843.928894	190.300000
843.963013	192.000000
843.997070	185.800000
844.031128	185.100000
844.065247	194.800000
844.099304	194.600000
844.133362	191.200000
844.167480	193.600000
844.201599	197.900000
844.235596	192.000000
844.269714	192.200000
844.303711	192.500000
844.337830	182.100000
844.371948	193.300000
844.405945	189.700000
844.440063	186.300000
844.474121	202.900000
844.508118	190.500000
844.542236	189.500000
844.576294	190.700000
844.610352	184.600000
844.644409	188.300000
844.678406	183.100000
844.712524	195.500000
844.746582	196.100000
844.780640	190.500000
844.814636	190.700000
844.848755	201.400000
844.882751	188.600000
844.916809	196.700000
844.950867	192.800000
844.984863	200.000000
845.018921	190.400000
845.052979	189.000000
845.086975	191.100000
845.121033	185.000000
845.155090	186.400000
845.189087	197.800000
845.223145	190.300000
845.257141	191.000000
845.291199	194.500000
845.325256	197.900000
845.359253	192.300000
845.393250	201.000000
845.427307	190.000000
845.461304	191.400000
845.495361	192.900000
845.529358	201.000000
845.563354	189.400000
845.597412	186.300000
845.631409	198.500000
845.665405	196.800000
845.699463	195.900000
845.733459	187.200000
845.767456	198.200000
845.801453	189.000000
845.835449	196.800000
845.869446	193.400000
845.903503	195.200000
845.937439	186.600000
845.971497	196.800000
846.005493	184.500000
846.039429	195.100000
846.073486	199.800000
846.107483	189.700000
846.141418	191.600000
846.175476	189.600000
846.209473	196.500000
846.243408	187.100000
846.277405	190.700000
846.311401	187.100000
846.345337	191.000000
846.379395	196.800000
846.413330	186.900000
846.447327	200.900000
846.481323	185.700000
846.515259	187.700000
846.549255	192.200000
846.583252	192.900000
846.617187	186.300000
846.651184	191.900000
846.685120	189.100000
846.719055	199.400000
846.753052	195.500000
846.786987	195.300000
846.820984	184.400000
846.854980	197.700000
846.888916	185.500000
846.922852	193.600000
846.956848	199.600000
846.990723	188.100000
847.024719	193.100000
847.058716	190.500000
847.092590	198.400000
847.126587	190.400000
847.160522	188.000000
847.194458	195.200000
847.228455	187.100000
847.262390	184.500000
847.296265	190.600000
847.330261	196.200000
847.364136	189.700000
847.398132	187.400000
847.432068	191.400000
847.466003	189.200000
847.499939	191.100000
847.533875	192.900000
847.567749	189.800000
847.601746	188.100000
847.635681	195.000000
847.669556	182.600000
847.703491	196.800000
847.737427	205.200000
847.771301	186.800000
847.805237	191.800000
847.839233	191.200000
847.873108	190.200000
847.907043	187.500000
847.940918	197.900000
847.974854	193.100000
848.008789	194.400000
848.042664	190.900000
848.076538	194.800000
848.110474	191.000000
848.144348	192.700000
848.178284	185.700000
848.212219	192.400000
848.246094	189.400000
848.279968	193.400000
848.313904	194.100000
848.347778	191.600000
848.381653	189.100000
848.415588	186.700000
848.449463	188.800000
848.483337	194.900000
848.517212	196.600000
848.551086	191.200000
848.585022	185.800000
848.618835	199.400000
848.652771	188.700000
848.686646	187.800000
848.720520	199.200000
848.754395	191.200000
848.788330	195.000000
848.822144	195.100000
848.856018	189.400000
848.889954	200.400000
848.923767	186.300000
848.957642	187.900000
848.991577	194.800000
849.025391	189.400000
849.059265	189.600000
849.093079	187.300000
849.126953	184.900000
849.160828	197.100000
849.194641	192.100000
849.228577	188.300000
849.262451	189.400000
849.296265	189.300000
849.330139	186.600000
849.364014	193.300000
849.397827	194.200000
849.431702	190.500000
849.465515	195.300000
849.499329	182.400000
849.533203	184.500000
849.567078	180.800000
849.600891	193.800000
849.634766	190.600000
849.668518	195.100000
849.702393	191.700000
849.736267	183.600000
849.770020	203.300000
849.803894	193.900000
849.837769	190.800000
849.871521	191.500000
849.905396	195.600000
849.939270	187.900000
849.973022	188.700000
850.006897	194.500000
850.040710	194.100000
850.074524	196.300000
850.108337	189.700000
850.142151	195.900000
850.175964	196.200000
850.209778	190.300000
850.243530	178.600000
850.277405	196.300000
850.311218	191.000000
850.344971	187.300000
850.378845	199.000000
850.412659	189.200000
850.446411	192.600000
850.480225	191.400000
850.514038	195.700000
850.547791	193.800000
850.581665	189.900000
850.615417	188.900000
850.649231	192.100000
850.683044	190.200000
850.716858	188.900000
850.750610	191.800000
850.784424	194.300000
850.818176	187.500000
850.851929	189.500000
850.885742	188.200000
850.919495	189.400000
850.953308	197.800000
850.987122	198.100000
851.020874	186.600000
851.054626	182.800000
851.088440	193.800000
851.122192	195.200000
851.156006	192.100000
851.189697	190.000000
851.223511	185.800000
851.257263	195.400000
851.291077	194.300000
851.324829	190.600000
851.358582	188.300000
851.392334	189.200000
851.426086	190.300000
851.459900	197.600000
851.493591	192.200000
851.527344	192.100000
851.561157	190.900000
851.594849	193.900000
851.628662	193.900000
851.662415	198.800000
851.696106	194.500000
851.729858	195.600000
851.763611	185.500000
851.797363	192.100000
851.831116	187.100000
851.864868	194.500000
851.898560	195.200000
851.932312	189.700000
851.966064	193.500000
851.999817	190.300000
852.033569	191.500000
852.067261	195.800000
852.101013	187.100000
852.134766	191.200000
852.168457	181.800000
852.202209	195.400000
852.235901	186.600000
852.269592	194.500000
852.303345	199.200000
852.337036	195.600000
852.370789	190.400000
852.404541	194.300000
852.438171	186.900000
852.471924	190.800000
852.505676	184.700000
852.539307	193.700000
852.573059	187.200000
852.606812	189.300000
852.640442	189.100000
852.674194	196.500000
852.707886	201.300000
852.741577	198.500000
852.775269	187.200000
852.809021	192.300000
852.842651	194.400000
852.876404	196.800000
852.910034	192.400000
852.943787	195.700000
852.977478	193.200000
853.011108	187.200000
853.044861	188.600000
853.078552	197.500000
853.112183	193.000000
853.145874	194.500000
853.179626	181.300000
853.213257	192.000000
853.246948	188.800000
853.280640	198.500000
853.314270	191.300000
853.347961	198.100000
853.381653	194.000000
853.415283	195.400000
853.448975	188.400000
853.482605	192.700000
853.516296	191.500000
853.549988	186.100000
853.583618	192.900000
853.617310	193.100000
853.651001	193.400000
853.684631	185.900000
853.718323	188.400000
853.751953	198.600000
853.785583	181.400000
853.819275	195.600000
853.852966	193.600000
853.886536	182.800000
853.920227	186.300000
853.953918	195.800000
853.987488	191.100000
854.021179	195.400000
854.054749	199.600000
854.088440	194.900000
854.122131	187.300000
854.155701	195.300000
854.189331	188.300000
854.223022	197.000000
854.256592	194.200000
854.290283	186.900000
854.323914	194.800000
854.357483	194.900000
854.391174	192.300000
854.424744	199.800000
854.458374	192.900000
854.492065	201.100000
854.525696	191.300000
854.559265	197.600000
854.592896	202.600000
854.626465	192.100000
854.660095	192.300000
854.693787	192.200000
854.727356	191.500000
854.760986	196.200000
854.794617	193.400000
854.828186	189.800000
854.861816	195.900000
854.895447	192.300000
854.929016	193.300000
854.962585	193.400000
854.996155	199.700000
855.029785	193.700000
855.063416	195.000000
855.097046	195.200000
855.130615	185.200000
855.164185	200.100000
855.197754	191.900000
855.231384	194.900000
855.264954	189.600000
855.298523	195.600000
855.332153	191.700000
855.365723	200.200000
855.399292	187.000000
855.432922	189.900000
855.466492	193.800000
855.500061	187.600000
855.533630	188.100000
855.567200	195.300000
855.600769	195.000000
855.634338	197.000000
855.667969	193.600000
855.701477	187.300000
855.735046	188.500000
855.768616	184.700000
855.802185	193.100000
855.835754	206.200000
855.869324	183.000000
855.902893	190.500000
855.936401	198.200000
855.969971	193.800000
856.003540	185.300000
856.037109	195.400000
856.070618	189.900000
856.104187	186.700000
856.137695	187.900000
856.171265	182.400000
856.204834	188.800000
856.238403	197.700000
856.271912	188.200000
856.305481	193.600000
856.338989	185.400000
856.372559	194.600000
856.406128	193.100000
856.439636	196.500000
856.473145	189.900000
856.506653	198.300000
856.540222	191.700000
856.573792	197.600000
856.607300	194.200000
856.640808	186.500000
856.674377	193.000000
856.707825	220.000000
856.741394	197.200000
856.774902	188.200000
856.808472	183.100000
856.841980	195.700000
856.875488	199.800000
856.908936	185.000000
856.942505	190.500000
856.976013	189.700000
857.009521	187.000000
857.043030	192.100000
857.076477	191.700000
857.110046	197.000000
857.143555	193.700000
857.177063	197.700000
857.210571	189.300000
857.244080	185.100000
857.277527	194.100000
857.311035	191.100000
857.344543	196.100000
857.378052	189.900000
857.411499	197.000000
857.445068	201.000000
857.478516	192.200000
857.512024	185.100000
857.545532	190.800000
857.578979	193.500000
857.612427	191.900000
857.645874	187.100000
857.679382	194.100000
857.712891	195.700000
857.746399	192.000000
857.779846	196.400000
857.813354	197.100000
857.846741	190.700000
857.880249	186.700000
857.913757	192.200000
857.947266	194.000000
857.980652	194.500000
858.014160	188.900000
858.047546	189.300000
858.081055	190.600000
858.114563	200.100000
858.147949	186.200000
858.181458	194.500000
858.214844	190.400000
858.248352	183.200000
858.281799	198.000000
858.315308	205.300000
858.348694	196.500000
858.382141	200.800000
858.415588	194.500000
858.449036	196.700000
858.482483	194.400000
858.515930	188.700000
858.549377	191.900000
858.582825	199.100000
858.616211	194.800000
858.649658	194.100000
858.683105	186.800000
858.716553	188.400000
858.750000	186.600000
858.783386	189.800000
858.816833	182.900000
858.850281	194.000000
858.883728	194.500000
858.917114	191.400000
858.950562	200.300000
858.983948	201.900000
859.017395	194.900000
859.050781	188.900000
859.084167	188.100000
859.117615	185.600000
859.151062	194.400000
859.184448	187.800000
859.217834	188.200000
859.251282	190.200000
859.284668	185.900000
859.318054	183.000000
859.351440	188.400000
859.384888	199.900000
859.418274	183.300000
859.451721	182.200000
859.485046	194.000000
859.518494	193.400000
859.551819	188.200000
859.585266	192.600000
859.618652	194.500000
859.652039	185.400000
859.685425	186.100000
859.718811	185.400000
859.752197	180.300000
859.785583	200.100000
859.819031	198.400000
859.852356	194.300000
859.885742	187.700000
859.919067	191.300000
859.952454	188.800000
859.985901	197.200000
860.019287	189.700000
860.052612	0.000000
860.085999	0.000000
860.119324	0.000000
860.152710	0.000000
860.186096	0.000000
860.219421	0.000000
860.252808	0.000000
860.286133	0.000000
860.319519	0.000000
860.352905	0.000000
860.386292	0.000000
860.419617	0.000000
860.452942	0.000000
860.486267	0.000000
860.519653	0.000000
860.553040	0.000000
860.586365	0.000000
860.619690	0.000000
860.653076	0.000000
860.686340	0.000000
860.719727	0.000000
860.753113	0.000000
860.786377	0.000000
860.819763	0.000000
860.853027	0.000000
860.886414	0.000000
860.919739	0.000000
860.953125	0.000000
860.986389	0.000000
861.019714	0.000000
861.053040	0.000000
861.086365	0.000000
861.119690	0.000000
861.153076	0.000000
861.186340	0.000000
861.219666	0.000000
861.252930	0.000000
861.286316	0.000000
861.319641	0.000000
861.352905	0.000000
861.386230	0.000000
861.419495	0.000000
861.452820	0.000000
861.486145	0.000000
861.519470	0.000000
861.552734	0.000000
861.586060	0.000000
861.619324	0.000000
861.652649	0.000000
861.685974	0.000000
861.719238	0.000000
861.752563	0.000000
861.785828	0.000000
861.819092	0.000000
861.852417	0.000000
861.885742	0.000000
861.918945	0.000000
861.952271	0.000000
861.985535	0.000000
862.018799	0.000000
862.052124	0.000000
862.085449	0.000000
862.118652	0.000000
862.151978	0.000000
862.185181	0.000000
862.218506	0.000000
862.251770	0.000000
862.285034	0.000000
862.318298	0.000000
862.351562	0.000000
862.384827	0.000000
862.418091	0.000000
862.451355	0.000000
862.484619	0.000000
862.517883	0.000000
862.551086	0.000000
862.584351	0.000000
862.617676	0.000000
862.650940	0.000000
862.684143	0.000000
862.717407	0.000000
862.750610	0.000000
862.783875	0.000000
862.817139	0.000000
862.850342	0.000000
862.883606	0.000000
862.916870	0.000000
862.950073	0.000000
862.983337	0.000000
863.016602	0.000000
863.049805	0.000000
863.083069	0.000000
863.116211	0.000000
863.149475	0.000000
863.182739	0.000000
863.216003	0.000000
863.249146	0.000000
863.282410	0.000000
863.315613	0.000000
863.348816	0.000000
863.382080	0.000000
863.415222	0.000000
863.448486	0.000000
863.481689	0.000000
863.514893	0.000000
863.548157	0.000000
863.581360	0.000000
863.614502	0.000000
863.647766	0.000000
863.680908	0.000000
863.714172	0.000000
863.747375	0.000000
863.780579	0.000000
863.813721	0.000000
863.846985	0.000000
863.880127	0.000000
863.913330	0.000000
863.946533	0.000000
863.979675	0.000000
864.012939	0.000000
