Model Number: SPM-001-M   
Serial Number: 10090201
Firmware Version: 004.17.6
Exposure Time: 500000.000000us
Data Taken on: 20-03-2021 09:23:43.157
Wavelength	Amplitude
733.770752	0.000000
733.808716	0.000000
733.846619	0.000000
733.884583	0.000000
733.922546	0.000000
733.960449	0.000000
733.998413	0.000000
734.036377	0.000000
734.074219	0.000000
734.112183	0.000000
734.150085	0.000000
734.188049	0.000000
734.226013	0.000000
734.263916	0.000000
734.301819	0.000000
734.339783	0.000000
734.377686	0.000000
734.415588	0.000000
734.453552	0.000000
734.491455	0.000000
734.529419	0.000000
734.567322	0.000000
734.605225	0.000000
734.643127	0.000000
734.681091	0.000000
734.718994	0.000000
734.756897	0.000000
734.794800	0.000000
734.832703	0.000000
734.870667	0.000000
734.908508	0.000000
734.946472	0.000000
734.984375	0.000000
735.022278	0.000000
735.060181	0.000000
735.098083	0.000000
735.135986	0.000000
735.173889	0.000000
735.211792	0.000000
735.249695	0.000000
735.287598	0.000000
735.325439	0.000000
735.363403	0.000000
735.401306	0.000000
735.439148	0.000000
735.477051	0.000000
735.515015	0.000000
735.552856	0.000000
735.590759	0.000000
735.628662	0.000000
735.666504	0.000000
735.704407	0.000000
735.742310	0.000000
735.780212	0.000000
735.818115	0.000000
735.856018	0.000000
735.893860	0.000000
735.931763	0.000000
735.969604	0.000000
736.007507	0.000000
736.045410	0.000000
736.083252	0.000000
736.121094	0.000000
736.158997	0.000000
736.196838	0.000000
736.234741	0.000000
736.272644	0.000000
736.310486	0.000000
736.348389	0.000000
736.386230	0.000000
736.424072	0.000000
736.461975	0.000000
736.499878	0.000000
736.537720	0.000000
736.575562	0.000000
736.613403	0.000000
736.651306	0.000000
736.689148	0.000000
736.726990	0.000000
736.764893	0.000000
736.802734	0.000000
736.840576	0.000000
736.878418	0.000000
736.916321	0.000000
736.954102	0.000000
736.992004	0.000000
737.029846	0.000000
737.067688	0.000000
737.105530	0.000000
737.143372	0.000000
737.181213	0.000000
737.219116	0.000000
737.256897	0.000000
737.294739	0.000000
737.332642	0.000000
737.370422	0.000000
737.408325	0.000000
737.446167	0.000000
737.483948	0.000000
737.521790	0.000000
737.559692	0.000000
737.597473	0.000000
737.635315	0.000000
737.673157	0.000000
737.710999	0.000000
737.748840	0.000000
737.786621	0.000000
737.824463	0.000000
737.862305	0.000000
737.900085	0.000000
737.937927	0.000000
737.975769	0.000000
738.013550	0.000000
738.051392	0.000000
738.089233	0.000000
738.127014	0.000000
738.164856	0.000000
738.202698	0.000000
738.240479	0.000000
738.278320	0.000000
738.316162	0.000000
738.353943	0.000000
738.391785	0.000000
738.429565	0.000000
738.467407	0.000000
738.505188	0.000000
738.542969	0.000000
738.580811	0.000000
738.618652	0.000000
738.656372	0.000000
738.694214	0.000000
738.732056	0.000000
738.769836	0.000000
738.807617	0.000000
738.845459	0.000000
738.883240	0.000000
738.921021	0.000000
738.958862	0.000000
738.996582	0.000000
739.034424	0.000000
739.072205	0.000000
739.109985	0.000000
739.147827	0.000000
739.185547	0.000000
739.223389	0.000000
739.261169	0.000000
739.298889	0.000000
739.336731	0.000000
739.374512	0.000000
739.412292	0.000000
739.450073	0.000000
739.487854	0.000000
739.525635	0.000000
739.563416	0.000000
739.601135	0.000000
739.638977	0.000000
739.676758	0.000000
739.714478	0.000000
739.752258	0.000000
739.790100	0.000000
739.827820	0.000000
739.865601	0.000000
739.903381	0.000000
739.941101	0.000000
739.978882	192.900000
740.016724	187.500000
740.054443	194.100000
740.092224	186.400000
740.130005	187.000000
740.167725	188.200000
740.205505	185.900000
740.243225	195.300000
740.281006	191.000000
740.318787	182.700000
740.356506	194.700000
740.394287	195.000000
740.432068	185.600000
740.469727	184.100000
740.507507	191.800000
740.545288	189.300000
740.583008	190.200000
740.620789	190.100000
740.658569	181.500000
740.696228	191.200000
740.734009	194.200000
740.771790	178.400000
740.809509	193.600000
740.847229	186.700000
740.884949	185.800000
740.922729	183.200000
740.960449	187.000000
740.998169	184.500000
741.035950	184.700000
741.073669	190.900000
741.111389	189.000000
741.149170	198.600000
741.186890	197.800000
741.224609	194.200000
741.262329	190.100000
741.300110	199.200000
741.337769	182.900000
741.375549	184.100000
741.413208	190.300000
741.450989	185.000000
741.488708	186.900000
741.526367	188.100000
741.564148	191.000000
741.601868	194.800000
741.639526	188.800000
741.677307	190.600000
741.715027	191.500000
741.752686	186.600000
741.790466	196.400000
741.828186	193.100000
741.865845	184.400000
741.903564	182.600000
741.941345	189.100000
741.979004	186.500000
742.016724	192.100000
742.054382	189.400000
742.092102	195.000000
742.129822	182.600000
742.167480	186.800000
742.205200	186.600000
742.242920	191.500000
742.280640	193.200000
742.318359	186.800000
742.356079	187.500000
742.393738	194.100000
742.431396	188.500000
742.469116	192.600000
742.506775	178.600000
742.544495	192.500000
742.582214	193.600000
742.619873	189.200000
742.657593	196.300000
742.695251	194.800000
742.732971	187.100000
742.770630	193.100000
742.808289	189.100000
742.846008	189.800000
742.883728	191.800000
742.921326	190.400000
742.959045	187.200000
742.996765	190.800000
743.034424	188.200000
743.072083	187.300000
743.109802	189.400000
743.147400	184.300000
743.185120	189.600000
743.222839	190.900000
743.260437	193.800000
743.298157	192.500000
743.335754	181.000000
743.373474	187.800000
743.411133	181.300000
743.448792	191.800000
743.486450	188.700000
743.524170	182.600000
743.561768	190.400000
743.599487	195.800000
743.637146	200.200000
743.674744	189.200000
743.712463	186.400000
743.750122	190.400000
743.787720	191.500000
743.825439	186.000000
743.863037	186.800000
743.900696	188.300000
743.938416	213.800000
743.976013	189.200000
744.013672	197.900000
744.051331	195.000000
744.088928	198.800000
744.126587	194.900000
744.164307	191.300000
744.201904	186.600000
744.239563	194.100000
744.277222	190.500000
744.314819	189.700000
744.352478	196.300000
744.390137	191.100000
744.427734	190.700000
744.465393	188.100000
744.502991	185.900000
744.540649	193.300000
744.578308	190.200000
744.615906	183.600000
744.653564	179.300000
744.691223	194.400000
744.728821	182.200000
744.766418	190.200000
744.804077	190.100000
744.841675	188.000000
744.879333	182.700000
744.916992	189.100000
744.954529	186.100000
744.992187	195.100000
745.029785	188.900000
745.067444	186.300000
745.105042	190.200000
745.142639	192.200000
745.180298	198.700000
745.217896	188.700000
745.255493	187.700000
745.293152	194.300000
745.330750	193.600000
745.368347	198.900000
745.405945	192.400000
745.443604	191.000000
745.481140	191.400000
745.518799	188.500000
745.556396	192.600000
745.593994	195.000000
745.631592	188.700000
745.669189	185.200000
745.706787	191.500000
745.744385	186.400000
745.781982	192.300000
745.819580	187.000000
745.857178	189.300000
745.894775	190.500000
745.932373	190.300000
745.969971	189.800000
746.007568	180.400000
746.045166	198.100000
746.082764	194.100000
746.120300	191.400000
746.157898	193.700000
746.195557	189.300000
746.233093	185.700000
746.270691	194.000000
746.308228	192.500000
746.345825	193.400000
746.383423	194.200000
746.420959	184.400000
746.458557	187.400000
746.496155	187.400000
746.533691	190.800000
746.571289	184.600000
746.608887	191.200000
746.646423	190.700000
746.684021	191.800000
746.721619	185.700000
746.759155	191.400000
746.796753	182.800000
746.834351	183.500000
746.871826	183.800000
746.909424	197.100000
746.946960	190.300000
746.984558	189.000000
747.022156	187.100000
747.059631	196.700000
747.097229	190.100000
747.134827	188.700000
747.172363	196.500000
747.209900	192.700000
747.247498	184.500000
747.285034	197.700000
747.322571	194.700000
747.360168	189.000000
747.397644	182.900000
747.435242	193.400000
747.472778	195.700000
747.510315	188.100000
747.547913	186.700000
747.585388	196.500000
747.622925	189.600000
747.660522	182.000000
747.697998	187.200000
747.735596	190.600000
747.773132	186.600000
747.810669	189.800000
747.848206	193.800000
747.885742	184.900000
747.923279	184.100000
747.960815	190.900000
747.998352	191.300000
748.035889	194.600000
748.073425	194.500000
748.110901	187.100000
748.148437	185.000000
748.185974	190.100000
748.223511	200.500000
748.261047	191.700000
748.298584	192.900000
748.336060	188.300000
748.373596	193.600000
748.411133	208.700000
748.448608	188.000000
748.486145	192.300000
748.523682	197.900000
748.561218	195.700000
748.598755	191.000000
748.636292	191.800000
748.673706	187.700000
748.711243	196.000000
748.748718	191.600000
748.786255	190.000000
748.823792	189.500000
748.861267	183.800000
748.898804	192.800000
748.936340	191.200000
748.973816	188.000000
749.011292	194.600000
749.048828	191.800000
749.086304	192.500000
749.123840	202.000000
749.161316	183.300000
749.198792	199.400000
749.236328	194.200000
749.273743	190.500000
749.311279	187.400000
749.348816	193.100000
749.386230	189.500000
749.423767	179.200000
749.461304	191.700000
749.498718	192.100000
749.536255	198.400000
749.573730	202.900000
749.611206	196.500000
749.648682	190.000000
749.686218	189.300000
749.723633	194.200000
749.761169	188.400000
749.798645	185.300000
749.836060	189.600000
749.873596	187.000000
749.911011	191.600000
749.948547	197.800000
749.986023	191.800000
750.023437	190.100000
750.060913	184.100000
750.098450	184.300000
750.135864	188.600000
750.173340	190.000000
750.210815	193.000000
750.248291	183.800000
750.285767	191.000000
750.323242	196.200000
750.360657	194.200000
750.398132	184.900000
750.435608	194.500000
750.473022	185.100000
750.510498	186.600000
750.547974	185.400000
750.585449	188.300000
750.622925	179.100000
750.660339	200.500000
750.697815	189.000000
750.735291	190.000000
750.772644	190.800000
750.810120	191.500000
750.847595	192.500000
750.885010	186.400000
750.922485	198.200000
750.959961	189.700000
750.997375	195.800000
751.034851	194.400000
751.072266	193.600000
751.109680	184.500000
751.147156	195.300000
751.184570	193.500000
751.221985	191.700000
751.259460	180.800000
751.296875	190.400000
751.334290	190.600000
751.371765	193.000000
751.409180	194.000000
751.446594	195.800000
751.484070	192.000000
751.521423	192.000000
751.558899	191.900000
751.596375	198.400000
751.633728	197.000000
751.671204	203.100000
751.708618	185.900000
751.746033	191.300000
751.783447	184.500000
751.820801	186.900000
751.858276	192.700000
751.895691	190.000000
751.933105	187.700000
751.970520	186.800000
752.007935	187.900000
752.045349	196.400000
752.082764	188.300000
752.120178	188.500000
752.157532	185.400000
752.195007	188.300000
752.232422	190.700000
752.269775	195.200000
752.307190	192.200000
752.344543	186.400000
752.382019	188.800000
752.419434	187.800000
752.456787	190.900000
752.494202	194.300000
752.531616	190.500000
752.568970	195.100000
752.606384	191.200000
752.643799	192.000000
752.681152	197.900000
752.718567	193.400000
752.755981	180.400000
752.793335	193.100000
752.830750	179.700000
752.868164	195.600000
752.905518	185.000000
752.942932	193.300000
752.980225	183.700000
753.017639	194.800000
753.055054	187.600000
753.092407	193.200000
753.129822	195.000000
753.167175	200.400000
753.204529	189.700000
753.241943	187.700000
753.279358	183.300000
753.316650	195.300000
753.354065	192.900000
753.391479	195.700000
753.428772	199.400000
753.466187	193.200000
753.503479	183.900000
753.540894	189.500000
753.578308	184.200000
753.615601	183.800000
753.653015	191.200000
753.690369	188.300000
753.727722	186.400000
753.765076	183.200000
753.802490	186.000000
753.839783	180.800000
753.877136	188.100000
753.914551	202.500000
753.951843	185.400000
753.989258	192.800000
754.026611	191.700000
754.063904	193.000000
754.101257	185.400000
754.138611	181.600000
754.175964	189.700000
754.213318	200.400000
754.250610	183.900000
754.288025	186.800000
754.325378	184.600000
754.362671	194.900000
754.400024	188.600000
754.437378	196.800000
754.474670	199.900000
754.512085	185.000000
754.549438	191.300000
754.586731	186.800000
754.624084	189.800000
754.661438	183.300000
754.698730	199.000000
754.736084	187.800000
754.773376	189.700000
754.810730	192.000000
754.848083	188.500000
754.885315	193.800000
754.922668	183.800000
754.960022	184.500000
754.997314	195.800000
755.034668	191.100000
755.072021	191.000000
755.109253	188.500000
755.146606	198.500000
755.183960	187.200000
755.221252	198.600000
755.258545	196.100000
755.295898	195.800000
755.333191	197.900000
755.370544	194.500000
755.407776	190.900000
755.445129	191.300000
755.482422	193.900000
755.519714	188.000000
755.557068	185.400000
755.594360	182.100000
755.631653	195.800000
755.668945	199.800000
755.706299	194.600000
755.743530	203.200000
755.780884	200.900000
755.818176	197.100000
755.855408	197.400000
755.892761	192.700000
755.930054	193.200000
755.967346	194.200000
756.004639	197.000000
756.041870	191.900000
756.079224	197.700000
756.116516	188.600000
756.153748	198.600000
756.191040	201.200000
756.228394	195.500000
756.265625	190.200000
756.302917	195.600000
756.340210	189.800000
756.377441	200.600000
756.414795	200.300000
756.452087	194.400000
756.489319	187.400000
756.526611	197.600000
756.563843	195.100000
756.601135	206.300000
756.638428	202.100000
756.675659	194.600000
756.712952	198.700000
756.750244	197.700000
756.787476	195.500000
756.824768	202.900000
756.862061	193.100000
756.899292	241.300000
756.936584	199.900000
756.973816	207.200000
757.011047	208.400000
757.048340	197.000000
757.085632	195.400000
757.122864	211.500000
757.160156	194.800000
757.197327	198.100000
757.234619	202.000000
757.271912	196.600000
757.309082	202.700000
757.346375	193.900000
757.383667	204.200000
757.420837	198.200000
757.458130	198.000000
757.495422	196.300000
757.532593	199.900000
757.569885	190.900000
757.607117	194.800000
757.644348	199.600000
757.681580	213.000000
757.718811	185.600000
757.756042	200.500000
757.793335	195.700000
757.830505	203.300000
757.867798	195.100000
757.905029	197.100000
757.942200	200.600000
757.979492	196.100000
758.016724	197.600000
758.053894	197.900000
758.091187	217.200000
758.128418	200.100000
758.165588	198.800000
758.202820	211.400000
758.240112	200.700000
758.277283	212.300000
758.314514	199.700000
758.351685	199.200000
758.388916	210.600000
758.426147	209.100000
758.463379	210.000000
758.500610	206.200000
758.537842	200.800000
758.575012	209.400000
758.612244	197.300000
758.649475	215.400000
758.686646	195.800000
758.723877	210.200000
758.761108	210.600000
758.798279	202.400000
758.835510	206.200000
758.872742	211.600000
758.909851	206.700000
758.947083	208.600000
758.984253	205.700000
759.021484	209.600000
759.058716	209.900000
759.095886	209.100000
759.133057	203.900000
759.170288	209.600000
759.207458	201.300000
759.244690	218.000000
759.281860	216.700000
759.319031	205.600000
759.356262	206.200000
759.393433	204.300000
759.430603	206.500000
759.467773	206.700000
759.505005	212.300000
759.542175	212.200000
759.579346	206.900000
759.616516	208.800000
759.653687	210.800000
759.690918	204.600000
759.728027	208.800000
759.765259	208.200000
759.802429	212.600000
759.839539	209.700000
759.876770	218.400000
759.913940	219.400000
759.951111	211.200000
759.988281	207.800000
760.025452	208.600000
760.062561	204.500000
760.099792	219.900000
760.136963	211.300000
760.174072	208.800000
760.211243	203.600000
760.248413	206.700000
760.285583	204.500000
760.322754	221.900000
760.359863	216.900000
760.397034	217.500000
760.434204	209.400000
760.471375	212.700000
760.508545	208.900000
760.545715	210.600000
760.582825	205.400000
760.619995	217.900000
760.657166	203.400000
760.694275	220.300000
760.731445	214.300000
760.768555	216.500000
760.805664	216.000000
760.842834	215.100000
760.879944	216.400000
760.917114	216.200000
760.954285	214.800000
760.991394	208.400000
761.028564	220.500000
761.065674	217.400000
761.102783	210.800000
761.139954	219.500000
761.177124	221.300000
761.214172	222.800000
761.251343	215.500000
761.288452	216.300000
761.325562	220.400000
761.362732	213.400000
761.399841	216.300000
761.436951	219.200000
761.474121	215.000000
761.511169	216.300000
761.548340	222.200000
761.585449	221.100000
761.622559	223.800000
761.659668	218.200000
761.696838	228.500000
761.733887	222.100000
761.771057	220.000000
761.808167	220.600000
761.845276	226.100000
761.882385	232.200000
761.919434	222.800000
761.956604	241.100000
761.993713	220.200000
762.030762	228.300000
762.067871	223.200000
762.105042	221.900000
762.142090	231.600000
762.179199	227.300000
762.216309	231.700000
762.253418	238.800000
762.290527	235.400000
762.327637	233.100000
762.364685	222.700000
762.401794	232.300000
762.438904	232.000000
762.475952	225.900000
762.513062	223.800000
762.550110	224.800000
762.587219	241.500000
762.624329	238.800000
762.661377	233.800000
762.698486	232.200000
762.735596	233.200000
762.772644	227.800000
762.809753	224.300000
762.846863	232.500000
762.883911	236.800000
762.921021	236.300000
762.958069	231.200000
762.995117	241.800000
763.032227	241.500000
763.069336	235.100000
763.106323	229.700000
763.143433	230.800000
763.180481	236.700000
763.217590	238.100000
763.254639	235.200000
763.291687	235.900000
763.328735	244.000000
763.365845	238.900000
763.402893	236.500000
763.439941	241.000000
763.477051	243.800000
763.514038	245.200000
763.551147	237.000000
763.588196	241.500000
763.625244	239.700000
763.662292	249.200000
763.699402	250.800000
763.736389	245.500000
763.773499	253.800000
763.810486	248.400000
763.847534	246.000000
763.884644	248.900000
763.921631	243.600000
763.958679	257.200000
763.995728	245.500000
764.032776	258.800000
764.069824	240.500000
764.106873	250.900000
764.143860	256.400000
764.180969	249.500000
764.218018	255.700000
764.255005	249.800000
764.292053	251.400000
764.329102	264.200000
764.366089	259.700000
764.403137	259.800000
764.440125	251.000000
764.477173	256.000000
764.514221	257.500000
764.551208	254.400000
764.588257	250.200000
764.625305	260.100000
764.662292	265.500000
764.699341	269.800000
764.736389	259.600000
764.773376	276.800000
764.810425	265.300000
764.847473	270.900000
764.884399	267.000000
764.921448	274.600000
764.958435	273.500000
764.995483	261.200000
765.032532	278.000000
765.069458	264.700000
765.106506	266.200000
765.143555	262.900000
765.180481	271.300000
765.217529	276.800000
765.254578	262.900000
765.291504	270.000000
765.328552	267.300000
765.365540	267.100000
765.402527	283.300000
765.439575	265.900000
765.476501	263.700000
765.513550	262.900000
765.550537	270.200000
765.587463	276.500000
765.624512	268.600000
765.661499	261.000000
765.698486	277.900000
765.735474	266.700000
765.772461	271.200000
765.809448	277.800000
765.846436	276.700000
765.883423	278.800000
765.920410	275.300000
765.957397	272.400000
765.994385	276.100000
766.031311	283.900000
766.068359	278.100000
766.105286	278.100000
766.142273	285.900000
766.179260	277.900000
766.216187	273.900000
766.253174	272.000000
766.290161	281.300000
766.327148	281.500000
766.364136	283.700000
766.401123	299.600000
766.438049	275.400000
766.475037	289.700000
766.512024	287.100000
766.548950	300.300000
766.585937	297.100000
766.622864	289.500000
766.659790	290.600000
766.696777	279.200000
766.733704	295.700000
766.770691	286.600000
766.807678	300.200000
766.844604	294.700000
766.881531	294.600000
766.918518	300.000000
766.955444	301.100000
766.992432	295.300000
767.029358	298.000000
767.066284	302.400000
767.103271	299.600000
767.140198	326.300000
767.177124	313.800000
767.214050	305.200000
767.251038	306.700000
767.287964	302.100000
767.324890	298.500000
767.361816	307.500000
767.398743	313.100000
767.435730	305.000000
767.472595	309.800000
767.509583	317.700000
767.546509	302.700000
767.583374	311.500000
767.620361	303.600000
767.657288	310.200000
767.694214	313.100000
767.731140	311.400000
767.768066	311.600000
767.804993	317.500000
767.841919	307.900000
767.878845	316.300000
767.915710	324.100000
767.952698	318.500000
767.989563	318.500000
768.026489	323.000000
768.063416	314.100000
768.100281	316.200000
768.137207	329.600000
768.174133	327.400000
768.211060	325.600000
768.247986	325.800000
768.284912	323.400000
768.321777	327.400000
768.358704	324.400000
768.395630	328.300000
768.432495	323.300000
768.469421	329.500000
768.506348	336.700000
768.543152	341.300000
768.580078	338.800000
768.616943	339.500000
768.653870	343.200000
768.690796	341.300000
768.727661	340.500000
768.764587	342.900000
768.801453	336.700000
768.838318	347.400000
768.875244	348.400000
768.912109	353.700000
768.948975	345.000000
768.985901	349.000000
769.022766	345.600000
769.059631	354.400000
769.096558	348.200000
769.133362	349.000000
769.170288	351.400000
769.207214	351.000000
769.244019	358.200000
769.280945	355.900000
769.317810	365.500000
769.354675	358.700000
769.391541	371.000000
769.428406	361.800000
769.465271	376.000000
769.502136	364.800000
769.539062	367.900000
769.575867	367.000000
769.612732	372.300000
769.649597	379.500000
769.686462	382.300000
769.723328	373.900000
769.760193	373.100000
769.797058	375.500000
769.833923	385.800000
769.870728	381.100000
769.907593	384.000000
769.944519	382.300000
769.981323	385.600000
770.018188	385.700000
770.055054	384.400000
770.091858	381.300000
770.128723	398.700000
770.165588	401.100000
770.202393	385.200000
770.239258	402.100000
770.276062	397.200000
770.312927	393.600000
770.349792	402.300000
770.386597	400.900000
770.423462	410.700000
770.460327	418.300000
770.497131	404.000000
770.533997	395.600000
770.570862	410.200000
770.607605	412.600000
770.644470	407.300000
770.681335	411.500000
770.718140	411.900000
770.754944	404.700000
770.791809	406.300000
770.828613	405.500000
770.865479	408.700000
770.902222	419.700000
770.939087	410.400000
770.975952	403.000000
771.012695	408.900000
771.049561	425.900000
771.086365	411.200000
771.123169	408.900000
771.159973	411.900000
771.196838	414.500000
771.233582	417.100000
771.270447	417.400000
771.307251	419.000000
771.344055	417.200000
771.380859	420.400000
771.417664	415.000000
771.454468	421.200000
771.491272	421.700000
771.528076	422.500000
771.564880	421.000000
771.601685	427.500000
771.638428	419.900000
771.675293	429.200000
771.712097	417.700000
771.748840	434.600000
771.785645	425.800000
771.822449	429.600000
771.859253	434.400000
771.896057	429.800000
771.932861	442.000000
771.969604	431.900000
772.006409	426.100000
772.043213	438.400000
772.079956	437.900000
772.116760	427.400000
772.153503	436.400000
772.190308	447.800000
772.227112	439.700000
772.263855	432.400000
772.300659	440.700000
772.337463	450.500000
772.374207	438.200000
772.411011	434.800000
772.447754	439.300000
772.484497	457.200000
772.521301	450.000000
772.558105	450.100000
772.594849	451.800000
772.631592	458.000000
772.668396	453.000000
772.705139	458.800000
772.741882	457.900000
772.778625	470.400000
772.815430	473.000000
772.852173	468.400000
772.888916	474.800000
772.925720	479.000000
772.962463	482.900000
772.999207	477.900000
773.035950	483.500000
773.072754	483.200000
773.109436	478.800000
773.146240	480.600000
773.182922	480.000000
773.219727	492.000000
773.256470	488.300000
773.293152	478.800000
773.329956	486.100000
773.366699	492.000000
773.403381	480.200000
773.440186	490.300000
773.476929	497.600000
773.513611	491.600000
773.550354	490.200000
773.587158	493.400000
773.623840	486.800000
773.660583	500.300000
773.697327	513.900000
773.734009	501.200000
773.770813	502.100000
773.807495	498.200000
773.844238	499.700000
773.880981	519.700000
773.917664	515.900000
773.954407	525.400000
773.991150	515.100000
774.027832	522.200000
774.064575	515.000000
774.101318	523.200000
774.138000	531.600000
774.174744	525.900000
774.211487	527.800000
774.248108	516.400000
774.284851	518.800000
774.321594	527.900000
774.358276	533.100000
774.395020	544.000000
774.431702	541.700000
774.468384	530.200000
774.505127	532.300000
774.541809	540.100000
774.578491	549.500000
774.615234	553.300000
774.651917	548.000000
774.688599	553.000000
774.725342	559.800000
774.762024	555.100000
774.798706	562.800000
774.835449	561.600000
774.872070	573.800000
774.908813	569.500000
774.945496	566.900000
774.982178	567.100000
775.018860	573.200000
775.055542	575.800000
775.092224	578.500000
775.128967	587.000000
775.165588	584.800000
775.202271	574.900000
775.239014	588.200000
775.275635	585.800000
775.312317	589.600000
775.349060	590.400000
775.385681	595.000000
775.422363	584.600000
775.459045	595.500000
775.495667	596.600000
775.532410	602.600000
775.569092	603.500000
775.605713	607.300000
775.642395	604.800000
775.679016	605.500000
775.715698	607.200000
775.752380	612.800000
775.789001	611.500000
775.825684	613.100000
775.862366	617.500000
775.898987	624.400000
775.935669	612.100000
775.972351	639.900000
776.008972	634.500000
776.045654	636.900000
776.082336	628.700000
776.118958	630.200000
776.155640	629.400000
776.192322	642.500000
776.228882	645.500000
776.265564	643.200000
776.302185	642.000000
776.338867	648.700000
776.375488	632.800000
776.412109	643.700000
776.448792	651.000000
776.485413	659.500000
776.522034	646.900000
776.558716	646.000000
776.595337	644.900000
776.631958	651.400000
776.668579	651.700000
776.705261	659.800000
776.741882	653.200000
776.778503	653.800000
776.815186	651.400000
776.851746	656.700000
776.888367	656.500000
776.924988	666.900000
776.961609	659.000000
776.998291	659.000000
777.034851	650.800000
777.071472	660.700000
777.108154	657.300000
777.144714	673.500000
777.181335	669.900000
777.218018	663.200000
777.254578	671.300000
777.291199	664.800000
777.327759	672.200000
777.364380	677.900000
777.401062	683.000000
777.437622	694.000000
777.474243	678.200000
777.510864	684.400000
777.547424	679.100000
777.584045	684.700000
777.620667	688.100000
777.657227	691.000000
777.693848	690.600000
777.730469	708.100000
777.767029	697.700000
777.803650	701.200000
777.840271	690.500000
777.876831	696.400000
777.913452	705.400000
777.950012	686.300000
777.986633	688.800000
778.023193	683.200000
778.059753	685.500000
778.096375	689.200000
778.132996	704.000000
778.169556	692.500000
778.206116	694.200000
778.242737	690.400000
778.279297	700.300000
778.315857	694.500000
778.352478	700.500000
778.389038	708.100000
778.425598	710.700000
778.462219	722.900000
778.498718	720.700000
778.535339	728.300000
778.571838	728.500000
778.608459	736.000000
778.645020	725.400000
778.681580	738.300000
778.718140	736.900000
778.754761	731.700000
778.791260	739.800000
778.827881	748.000000
778.864441	745.300000
778.900940	753.100000
778.937561	750.000000
778.974121	752.500000
779.010620	738.400000
779.047241	744.000000
779.083801	755.300000
779.120300	755.100000
779.156860	757.400000
779.193359	754.800000
779.229980	756.800000
779.266541	763.000000
779.303040	770.800000
779.339600	762.900000
779.376160	755.700000
779.412659	764.800000
779.449219	757.400000
779.485779	765.900000
779.522278	764.400000
779.558838	771.700000
779.595398	771.900000
779.631897	773.800000
779.668457	766.000000
779.705017	780.000000
779.741516	768.300000
779.778076	760.800000
779.814575	771.100000
779.851074	784.600000
779.887634	783.600000
779.924133	790.700000
779.960693	777.600000
779.997253	787.400000
780.033691	792.200000
780.070251	797.300000
780.106812	812.900000
780.143250	813.600000
780.179810	810.800000
780.216370	809.500000
780.252808	816.300000
780.289368	827.800000
780.325867	828.200000
780.362366	826.000000
780.398865	839.800000
780.435364	826.700000
780.471863	840.000000
780.508423	837.800000
780.544861	847.300000
780.581421	849.400000
780.617920	840.700000
780.654419	839.200000
780.690918	844.500000
780.727417	851.200000
780.763916	849.200000
780.800415	857.600000
780.836914	846.800000
780.873352	851.400000
780.909912	843.200000
780.946411	855.600000
780.982849	863.400000
781.019348	881.600000
781.055786	871.000000
781.092346	868.100000
781.128845	877.100000
781.165283	883.100000
781.201782	890.000000
781.238281	895.700000
781.274719	904.800000
781.311218	900.800000
781.347717	914.300000
781.384155	895.100000
781.420654	901.800000
781.457092	916.000000
781.493591	912.800000
781.530090	906.900000
781.566528	906.300000
781.602966	912.900000
781.639465	910.300000
781.675903	910.600000
781.712402	917.900000
781.748901	925.300000
781.785278	917.100000
781.821777	923.900000
781.858276	918.100000
781.894714	940.200000
781.931152	929.500000
781.967651	935.600000
782.004089	928.900000
782.040527	936.100000
782.076965	932.000000
782.113403	939.700000
782.149902	939.600000
782.186340	934.400000
782.222778	947.300000
782.259277	934.600000
782.295654	929.600000
782.332092	939.200000
782.368591	933.900000
782.404968	929.700000
782.441467	934.100000
782.477905	932.300000
782.514282	922.100000
782.550781	945.300000
782.587219	936.900000
782.623596	944.500000
782.660095	946.200000
782.696472	950.000000
782.732910	949.700000
782.769348	953.900000
782.805786	965.200000
782.842224	960.700000
782.878662	935.700000
782.915039	901.800000
782.951477	815.100000
782.987915	678.000000
783.024292	536.500000
783.060730	408.600000
783.097168	335.500000
783.133545	332.300000
783.169983	343.900000
783.206421	335.700000
783.242798	315.600000
783.279236	277.000000
783.315613	260.000000
783.352051	269.800000
783.388489	301.300000
783.424866	333.000000
783.461304	355.900000
783.497681	353.100000
783.534058	331.200000
783.570496	348.900000
783.606934	442.700000
783.643250	585.000000
783.679687	739.100000
783.716125	838.300000
783.752441	903.600000
783.788879	941.300000
783.825317	953.600000
783.861633	963.300000
783.898071	968.200000
783.934448	985.000000
783.970825	1000.700000
784.007263	1006.200000
784.043579	1007.200000
784.080017	1010.200000
784.116394	1008.800000
784.152710	1012.800000
784.189148	1022.300000
784.225525	1025.000000
784.261902	1013.900000
784.298279	1005.900000
784.334656	1010.600000
784.371033	998.900000
784.407410	1006.900000
784.443787	996.000000
784.480164	984.600000
784.516541	966.600000
784.552856	970.000000
784.589233	960.400000
784.625610	963.200000
784.661987	998.100000
784.698364	989.800000
784.734741	976.900000
784.771057	984.100000
784.807434	984.500000
784.843811	1002.500000
784.880127	1005.700000
784.916504	1035.200000
784.952881	1042.900000
784.989197	1038.500000
785.025574	1035.200000
785.061951	1039.600000
785.098267	1072.900000
785.134644	1063.500000
785.170959	1066.400000
785.207275	1075.500000
785.243652	1066.100000
785.279968	1047.900000
785.316345	1053.400000
785.352722	1053.400000
785.388977	1054.500000
785.425354	1035.000000
785.461731	1013.700000
785.498047	1001.700000
785.534363	996.300000
785.570679	990.800000
785.606995	1001.500000
785.643372	1007.500000
785.679687	1002.100000
785.716003	989.900000
785.752380	988.600000
785.788635	992.500000
785.825012	1017.100000
785.861328	1035.600000
785.897644	1024.700000
785.933960	1041.400000
785.970337	1048.700000
786.006592	1065.000000
786.042908	1074.700000
786.079285	1093.000000
786.115540	1107.800000
786.151855	1107.700000
786.188171	1101.200000
786.224487	1105.000000
786.260803	1102.700000
786.297119	1109.100000
786.333435	1117.400000
786.369751	1106.500000
786.406006	1107.000000
786.442322	1083.800000
786.478638	1072.500000
786.514954	1085.700000
786.551270	1083.200000
786.587585	1102.200000
786.623840	1089.600000
786.660156	1075.100000
786.696472	1061.300000
786.732727	1056.400000
786.769043	1064.200000
786.805298	1061.100000
786.841614	1074.500000
786.877930	1077.400000
786.914124	1067.500000
786.950439	1083.100000
786.986755	1091.800000
787.023010	1113.100000
787.059326	1125.600000
787.095642	1129.600000
787.131836	1146.700000
787.168152	1137.500000
787.204468	1136.400000
787.240723	1156.700000
787.276978	1178.300000
787.313293	1179.700000
787.349548	1178.600000
787.385803	1180.400000
787.422058	1168.000000
787.458313	1165.000000
787.494629	1160.900000
787.530823	1168.500000
787.567139	1154.500000
787.603455	1145.500000
787.639648	1125.600000
787.675903	1132.000000
787.712219	1133.200000
787.748413	1131.800000
787.784729	1142.300000
787.820984	1130.300000
787.857178	1120.600000
787.893494	1116.700000
787.929749	1115.500000
787.965942	1119.600000
788.002258	1142.000000
788.038452	1154.800000
788.074707	1144.100000
788.110962	1154.300000
788.147217	1145.400000
788.183472	1155.800000
788.219727	1166.400000
788.255920	1189.900000
788.292175	1193.800000
788.328430	1193.700000
788.364624	1175.800000
788.400879	1165.700000
788.437134	1170.400000
788.473328	1172.200000
788.509583	1173.900000
788.545837	1166.300000
788.582031	1162.200000
788.618286	1145.900000
788.654480	1143.800000
788.690735	1158.100000
788.726990	1180.700000
788.763184	1183.000000
788.799377	1190.200000
788.835632	1175.000000
788.871826	1190.200000
788.908081	1188.100000
788.944336	1178.700000
788.980469	1202.500000
789.016724	1196.900000
789.052979	1192.000000
789.089111	1170.900000
789.125366	1172.800000
789.161621	1158.600000
789.197754	1177.900000
789.234009	1176.600000
789.270142	1162.400000
789.306396	1150.700000
789.342590	1144.900000
789.378784	1116.900000
789.414978	1115.600000
789.451233	1140.000000
789.487366	1140.000000
789.523621	1151.300000
789.559814	1144.100000
789.595947	1133.300000
789.632202	1133.500000
789.668335	1142.500000
789.704529	1162.800000
789.740784	1189.300000
789.776917	1195.400000
789.813110	1181.900000
789.849304	1192.000000
789.885498	1191.900000
789.921692	1210.000000
789.957886	1218.500000
789.994019	1218.000000
790.030212	1210.500000
790.066406	1209.900000
790.102539	1209.000000
790.138733	1217.300000
790.174927	1213.700000
790.211060	1235.800000
790.247253	1219.800000
790.283386	1210.100000
790.319580	1198.000000
790.355774	1172.100000
790.391907	1173.700000
790.428101	1194.300000
790.464294	1192.600000
790.500427	1200.900000
790.536621	1177.900000
790.572754	1158.600000
790.608887	1155.000000
790.645081	1168.700000
790.681274	1184.900000
790.717346	1189.900000
790.753540	1178.000000
790.789734	1153.200000
790.825867	1125.400000
790.862000	1100.800000
790.898132	1077.600000
790.934265	1050.500000
790.970459	1067.800000
791.006592	1113.200000
791.042725	1164.100000
791.078918	1202.700000
791.114990	1214.800000
791.151184	1237.600000
791.187317	1260.100000
791.223389	1264.000000
791.259583	1245.100000
791.295715	1258.200000
791.331848	1259.100000
791.367981	1266.000000
791.404114	1276.600000
791.440247	1280.600000
791.476379	1284.200000
791.512451	1263.800000
791.548584	1255.700000
791.584778	1248.200000
791.620850	1264.400000
791.656982	1271.800000
791.693115	1275.600000
791.729187	1270.500000
791.765381	1260.900000
791.801514	1263.500000
791.837585	1262.700000
791.873718	1276.100000
791.909851	1296.300000
791.945923	1305.800000
791.982056	1269.800000
792.018188	1269.700000
792.054260	1270.200000
792.090393	1274.800000
792.126465	1271.500000
792.162598	1280.900000
792.198669	1270.700000
792.234741	1270.500000
792.270874	1256.800000
792.307007	1235.200000
792.343079	1245.800000
792.379150	1263.100000
792.415283	1252.600000
792.451355	1255.500000
792.487488	1224.800000
792.523560	1223.300000
792.559631	1219.600000
792.595764	1217.400000
792.631836	1226.400000
792.667908	1239.900000
792.703979	1225.800000
792.740051	1219.300000
792.776184	1223.000000
792.812256	1221.600000
792.848328	1232.400000
792.884399	1240.100000
792.920471	1237.700000
792.956543	1235.600000
792.992615	1233.900000
793.028748	1228.200000
793.064758	1231.900000
793.100830	1255.100000
793.136963	1277.500000
793.172974	1274.200000
793.209045	1270.000000
793.245178	1279.400000
793.281189	1264.400000
793.317261	1275.500000
793.353271	1284.100000
793.389404	1296.200000
793.425476	1287.600000
793.461487	1272.900000
793.497559	1264.400000
793.533630	1261.800000
793.569641	1260.800000
793.605713	1268.000000
793.641785	1279.300000
793.677795	1288.900000
793.713867	1269.100000
793.749878	1277.300000
793.785950	1286.900000
793.822021	1292.300000
793.858032	1280.700000
793.894104	1292.500000
793.930176	1279.700000
793.966187	1281.500000
794.002258	1274.200000
794.038269	1270.000000
794.074280	1271.000000
794.110352	1300.400000
794.146423	1275.200000
794.182373	1271.500000
794.218445	1270.800000
794.254517	1248.500000
794.290466	1238.800000
794.326538	1241.300000
794.362549	1247.100000
794.398560	1249.500000
794.434631	1250.400000
794.470581	1226.600000
794.506653	1217.900000
794.542664	1222.600000
794.578674	1216.900000
794.614685	1220.100000
794.650757	1220.200000
794.686707	1214.700000
794.722778	1204.000000
794.758789	1207.600000
794.794739	1214.700000
794.830811	1248.300000
794.866821	1266.000000
794.902771	1264.600000
794.938843	1262.100000
794.974792	1255.900000
795.010803	1253.500000
795.046814	1258.300000
795.082825	1245.700000
795.118835	1267.100000
795.154846	1243.300000
795.190796	1243.800000
795.226807	1217.900000
795.262817	1224.900000
795.298767	1219.600000
795.334778	1227.600000
795.370850	1219.200000
795.406799	1224.100000
795.442810	1204.500000
795.478821	1198.400000
795.514709	1193.700000
795.550720	1214.100000
795.586670	1195.500000
795.622681	1209.000000
795.658691	1207.800000
795.694641	1203.400000
795.730652	1189.600000
795.766663	1195.700000
795.802551	1203.100000
795.838562	1220.000000
795.874573	1207.300000
795.910522	1206.500000
795.946472	1187.100000
795.982483	1189.200000
796.018433	1193.600000
796.054382	1201.400000
796.090393	1193.900000
796.126282	1195.100000
796.162292	1178.500000
796.198242	1168.600000
796.234192	1167.600000
796.270203	1158.800000
796.306091	1173.200000
796.342041	1189.100000
796.378052	1177.800000
796.413940	1175.600000
796.449951	1181.600000
796.485901	1178.400000
796.521790	1184.000000
796.557800	1203.100000
796.593689	1206.800000
796.629639	1194.500000
796.665649	1190.300000
796.701599	1174.700000
796.737488	1168.800000
796.773437	1179.200000
796.809387	1184.000000
796.845337	1186.400000
796.881287	1175.600000
796.917175	1156.300000
796.953125	1150.200000
796.989075	1159.000000
797.024963	1165.500000
797.060913	1164.000000
797.096863	1162.700000
797.132751	1156.700000
797.168701	1135.000000
797.204590	1136.200000
797.240540	1135.800000
797.276489	1145.500000
797.312439	1158.100000
797.348328	1159.500000
797.384277	1146.500000
797.420166	1130.500000
797.456055	1128.300000
797.492004	1122.700000
797.527893	1136.600000
797.563843	1148.000000
797.599731	1138.400000
797.635620	1123.900000
797.671570	1127.100000
797.707520	1118.600000
797.743347	1128.100000
797.779297	1144.400000
797.815125	1141.800000
797.851074	1132.000000
797.887024	1114.100000
797.922913	1095.600000
797.958801	1110.300000
797.994690	1106.000000
798.030579	1116.800000
798.066467	1124.000000
798.102356	1111.000000
798.138245	1098.400000
798.174133	1093.100000
798.210083	1098.900000
798.245911	1107.900000
798.281799	1118.400000
798.317749	1108.100000
798.353577	1104.100000
798.389465	1093.000000
798.425293	1087.700000
798.461243	1087.200000
798.497131	1100.000000
798.532959	1106.800000
798.568848	1115.500000
798.604736	1096.100000
798.640564	1077.700000
798.676453	1070.100000
798.712402	1072.900000
798.748230	1082.100000
798.784119	1087.100000
798.820007	1089.900000
798.855835	1085.900000
798.891724	1073.000000
798.927551	1068.200000
798.963379	1075.600000
798.999268	1077.800000
799.035095	1074.000000
799.070984	1061.000000
799.106873	1044.900000
799.142700	1052.500000
799.178528	1041.900000
799.214417	1044.600000
799.250244	1062.200000
799.286133	1056.000000
799.321960	1051.600000
799.357788	1041.800000
799.393677	1042.600000
799.429504	1036.600000
799.465332	1043.700000
799.501221	1052.000000
799.537048	1056.300000
799.572876	1042.800000
799.608704	1041.400000
799.644531	1051.600000
799.680359	1052.500000
799.716248	1063.300000
799.752014	1073.500000
799.787903	1064.600000
799.823730	1057.800000
799.859558	1046.300000
799.895386	1049.600000
799.931213	1048.600000
799.967041	1039.200000
800.002869	1042.500000
800.038696	1058.700000
800.074463	1032.600000
800.110352	1035.000000
800.146179	1020.600000
800.181946	1033.900000
800.217773	1031.600000
800.253540	1031.500000
800.289429	1026.800000
800.325256	1018.100000
800.361023	1005.600000
800.396851	1012.400000
800.432678	1011.600000
800.468445	1016.700000
800.504272	1010.300000
800.540100	992.700000
800.575867	988.000000
800.611694	992.800000
800.647461	985.400000
800.683289	995.800000
800.719116	997.900000
800.754883	995.000000
800.790649	975.200000
800.826477	969.800000
800.862244	985.200000
800.898071	975.000000
800.933838	971.200000
800.969604	975.500000
801.005432	972.600000
801.041199	969.800000
801.076965	957.200000
801.112793	945.800000
801.148560	936.400000
801.184326	939.300000
801.220154	941.800000
801.255859	937.700000
801.291687	931.500000
801.327454	926.400000
801.363281	917.500000
801.398987	914.500000
801.434814	915.500000
801.470520	928.900000
801.506287	912.100000
801.542114	904.200000
801.577820	904.100000
801.613647	904.100000
801.649414	906.500000
801.685120	903.900000
801.720886	909.500000
801.756714	900.900000
801.792419	884.600000
801.828186	880.100000
801.863892	889.000000
801.899719	884.600000
801.935486	881.200000
801.971252	887.900000
802.006958	880.800000
802.042725	871.200000
802.078430	872.900000
802.114197	863.100000
802.149963	882.200000
802.185669	869.000000
802.221436	864.400000
802.257202	865.100000
802.292908	859.300000
802.328674	866.400000
802.364441	869.000000
802.400146	864.900000
802.435913	863.000000
802.471558	856.300000
802.507324	853.700000
802.543091	842.000000
802.578796	856.200000
802.614502	858.000000
802.650269	862.800000
802.685974	848.300000
802.721741	852.400000
802.757446	851.100000
802.793152	842.800000
802.828918	853.600000
802.864624	849.700000
802.900330	849.600000
802.936035	844.700000
802.971802	836.100000
803.007446	835.100000
803.043213	824.600000
803.078857	831.800000
803.114624	821.200000
803.150330	828.900000
803.185974	816.300000
803.221741	817.600000
803.257446	823.800000
803.293152	824.000000
803.328857	814.400000
803.364563	812.100000
803.400208	804.200000
803.435974	814.200000
803.471680	806.000000
803.507324	797.300000
803.543030	808.200000
803.578735	808.000000
803.614441	799.300000
803.650146	808.900000
803.685791	795.400000
803.721497	792.300000
803.757202	781.000000
803.792847	790.000000
803.828552	784.300000
803.864258	780.700000
803.899902	784.600000
803.935608	761.600000
803.971313	772.000000
804.006958	768.000000
804.042664	763.400000
804.078308	769.400000
804.113953	767.800000
804.149658	771.700000
804.185364	760.600000
804.221008	763.800000
804.256714	749.200000
804.292297	753.300000
804.328003	748.800000
804.363708	743.200000
804.399292	744.900000
804.434998	743.400000
804.470703	734.400000
804.506287	744.500000
804.541992	740.900000
804.577637	741.500000
804.613281	731.900000
804.648926	725.500000
804.684570	727.200000
804.720215	719.800000
804.755920	722.200000
804.791565	718.300000
804.827209	725.600000
804.862854	718.900000
804.898437	710.000000
804.934143	709.300000
804.969788	714.300000
805.005371	711.200000
805.041077	714.900000
805.076721	714.300000
805.112305	700.600000
805.147949	700.700000
805.183655	697.300000
805.219238	697.900000
805.254883	696.800000
805.290466	709.300000
805.326111	698.800000
805.361755	688.100000
805.397400	691.600000
805.432983	695.100000
805.468628	691.300000
805.504211	699.400000
805.539856	691.500000
805.575500	702.000000
805.611084	689.100000
805.646729	678.300000
805.682373	676.500000
805.717957	691.900000
805.753601	691.000000
805.789246	677.200000
805.824768	686.100000
805.860413	689.900000
805.895996	673.800000
805.931641	676.900000
805.967224	682.300000
806.002869	676.100000
806.038452	688.900000
806.074036	683.800000
806.109619	669.200000
806.145264	669.000000
806.180847	664.500000
806.216431	663.200000
806.252014	666.900000
806.287659	666.800000
806.323181	677.100000
806.358826	667.900000
806.394409	647.900000
806.429993	650.200000
806.465576	665.000000
806.501160	647.000000
806.536743	639.600000
806.572327	653.600000
806.607910	648.700000
806.643494	645.300000
806.679077	637.100000
806.714661	641.600000
806.750244	640.000000
806.785828	635.000000
806.821350	630.800000
806.856934	638.000000
806.892517	632.900000
806.928101	624.600000
806.963684	625.500000
806.999268	635.200000
807.034790	613.300000
807.070374	617.900000
807.105896	612.100000
807.141479	612.300000
807.177063	616.000000
807.212585	607.900000
807.248169	608.600000
807.283752	610.400000
807.319275	604.300000
807.354858	601.600000
807.390381	600.500000
807.425903	597.200000
807.461487	594.800000
807.497070	587.300000
807.532593	589.700000
807.568115	585.200000
807.603699	580.600000
807.639221	575.100000
807.674744	579.700000
807.710266	582.600000
807.745850	587.500000
807.781372	576.800000
807.816895	572.700000
807.852417	576.800000
807.888000	569.900000
807.923523	565.700000
807.959045	573.800000
807.994629	560.800000
808.030090	562.700000
808.065613	565.900000
808.101135	564.600000
808.136658	561.200000
808.172241	562.300000
808.207764	555.900000
808.243225	550.600000
808.278809	548.000000
808.314270	558.800000
808.349792	541.300000
808.385315	541.500000
808.420837	545.500000
808.456360	551.300000
808.491882	548.100000
808.527344	546.100000
808.562866	551.400000
808.598389	544.500000
808.633850	538.500000
808.669434	532.200000
808.704895	542.400000
808.740417	549.100000
808.775940	538.300000
808.811462	535.300000
808.846924	526.400000
808.882385	520.800000
808.917847	523.200000
808.953369	523.100000
808.988892	518.500000
809.024353	525.100000
809.059875	523.200000
809.095398	515.100000
809.130798	512.700000
809.166321	509.800000
809.201843	508.800000
809.237305	511.600000
809.272766	521.100000
809.308228	502.300000
809.343750	502.300000
809.379211	503.000000
809.414734	505.300000
809.450134	510.400000
809.485657	493.000000
809.521118	500.100000
809.556580	493.800000
809.592102	493.400000
809.627502	493.000000
809.663025	490.400000
809.698486	486.200000
809.733887	482.600000
809.769409	485.200000
809.804871	470.800000
809.840271	475.600000
809.875793	478.200000
809.911194	482.200000
809.946655	471.000000
809.982178	468.000000
810.017639	473.500000
810.053040	469.700000
810.088501	465.900000
810.123901	465.200000
810.159424	462.600000
810.194885	459.100000
810.230286	460.600000
810.265747	453.400000
810.301208	454.000000
810.336609	455.200000
810.372070	445.400000
810.407532	450.300000
810.442932	451.300000
810.478394	453.200000
810.513794	449.300000
810.549255	444.900000
810.584717	443.600000
810.620117	435.100000
810.655518	440.500000
810.690979	438.500000
810.726379	437.700000
810.761841	426.700000
810.797302	426.300000
810.832642	423.700000
810.868103	438.200000
810.903564	424.600000
810.938904	429.300000
810.974365	417.900000
811.009827	422.300000
811.045166	417.400000
811.080627	411.600000
811.115967	413.200000
811.151428	423.400000
811.186829	412.300000
811.222229	415.100000
811.257629	408.000000
811.293091	413.600000
811.328430	422.100000
811.363892	413.900000
811.399292	415.200000
811.434631	408.900000
811.470093	412.100000
811.505493	404.700000
811.540833	404.100000
811.576294	409.700000
811.611694	402.100000
811.647034	398.500000
811.682434	400.400000
811.717773	401.500000
811.753235	408.000000
811.788635	398.100000
811.823975	399.100000
811.859375	408.500000
811.894775	392.600000
811.930115	394.100000
811.965515	391.700000
812.000916	398.300000
812.036255	390.900000
812.071655	399.300000
812.106995	389.900000
812.142395	389.300000
812.177795	395.400000
812.213196	393.000000
812.248474	390.600000
812.283875	383.600000
812.319214	386.600000
812.354614	385.600000
812.390015	379.800000
812.425293	382.100000
812.460693	380.700000
812.496094	376.000000
812.531433	372.800000
812.566772	369.500000
812.602173	373.700000
812.637451	373.100000
812.672852	368.200000
812.708191	374.100000
812.743530	365.500000
812.778931	356.200000
812.814270	361.200000
812.849609	368.200000
812.884949	363.400000
812.920227	356.900000
812.955627	372.000000
812.990967	362.600000
813.026306	358.600000
813.061646	346.100000
813.096985	345.700000
813.132324	340.900000
813.167664	346.500000
813.203003	351.000000
813.238281	339.500000
813.273682	338.600000
813.308960	335.400000
813.344299	336.300000
813.379639	346.200000
813.414978	336.800000
813.450256	336.800000
813.485596	339.800000
813.520874	330.900000
813.556213	335.700000
813.591614	339.200000
813.626831	327.100000
813.662170	334.300000
813.697510	344.400000
813.732788	327.700000
813.768127	332.900000
813.803467	331.100000
813.838745	327.000000
813.874084	330.500000
813.909363	329.200000
813.944641	331.200000
813.979980	317.800000
814.015320	322.800000
814.050598	318.800000
814.085876	323.600000
814.121155	320.900000
814.156494	319.300000
814.191772	320.100000
814.227051	315.100000
814.262390	314.500000
814.297668	315.000000
814.332947	316.400000
814.368225	308.700000
814.403564	312.700000
814.438782	308.600000
814.474121	311.600000
814.509338	307.200000
814.544617	315.100000
814.579956	305.100000
814.615173	317.300000
814.650513	311.100000
814.685791	303.400000
814.721008	307.400000
814.756348	307.300000
814.791626	299.200000
814.826843	302.400000
814.862122	301.600000
814.897400	298.900000
814.932678	301.300000
814.967957	301.400000
815.003235	297.500000
815.038452	293.100000
815.073730	290.200000
815.108948	300.000000
815.144226	299.400000
815.179504	304.400000
815.214722	286.200000
815.250000	287.100000
815.285278	293.000000
815.320496	288.400000
815.355774	289.100000
815.391052	291.900000
815.426270	287.900000
815.461487	285.900000
815.496765	280.100000
815.531982	278.200000
815.567261	281.200000
815.602539	291.200000
815.637695	283.900000
815.672974	287.100000
815.708191	286.200000
815.743408	287.900000
815.778687	280.500000
815.813904	288.100000
815.849121	268.600000
815.884399	272.000000
815.919556	272.700000
815.954834	274.000000
815.990051	275.900000
816.025269	280.000000
816.060486	271.200000
816.095703	269.900000
816.130920	272.000000
816.166199	268.800000
816.201416	273.400000
816.236572	275.400000
816.271851	266.800000
816.307007	273.400000
816.342224	262.800000
816.377441	266.200000
816.412659	259.200000
816.447876	267.700000
816.483093	263.500000
816.518250	262.800000
816.553467	260.800000
816.588745	264.900000
816.623901	256.600000
816.659119	252.000000
816.694275	258.100000
816.729492	252.000000
816.764709	290.900000
816.799927	251.500000
816.835083	256.200000
816.870300	248.100000
816.905457	253.800000
816.940674	253.100000
816.975830	251.600000
817.010986	246.100000
817.046204	249.400000
817.081421	246.200000
817.116577	245.200000
817.151733	253.400000
817.186951	254.600000
817.222107	248.600000
817.257324	252.900000
817.292419	250.000000
817.327637	240.900000
817.362854	244.400000
817.398010	240.500000
817.433167	242.400000
817.468323	240.000000
817.503479	243.000000
817.538635	250.100000
817.573853	245.700000
817.608948	242.700000
817.644165	238.200000
817.679321	236.500000
817.714478	236.400000
817.749634	241.000000
817.784790	251.500000
817.819946	245.000000
817.855103	227.100000
817.890198	237.100000
817.925415	229.800000
817.960571	237.200000
817.995667	236.900000
818.030823	235.800000
818.066040	233.200000
818.101135	235.400000
818.136292	235.200000
818.171448	225.900000
818.206543	232.700000
818.241699	234.600000
818.276855	231.900000
818.311951	230.300000
818.347107	226.600000
818.382263	232.800000
818.417358	238.200000
818.452515	237.200000
818.487610	237.500000
818.522766	225.700000
818.557922	238.900000
818.593018	230.900000
818.628113	232.100000
818.663269	223.700000
818.698364	229.200000
818.733521	222.800000
818.768677	229.700000
818.803711	220.700000
818.838867	223.400000
818.874023	225.100000
818.909058	221.500000
818.944214	218.900000
818.979370	227.000000
819.014404	222.600000
819.049561	219.300000
819.084595	224.800000
819.119751	216.300000
819.154846	222.800000
819.189941	219.200000
819.225037	214.700000
819.260193	210.800000
819.295227	214.400000
819.330322	208.200000
819.365479	208.900000
819.400513	241.300000
819.435608	207.300000
819.470764	205.000000
819.505798	208.800000
819.540894	211.300000
819.575989	209.700000
819.611084	217.300000
819.646179	218.300000
819.681213	211.900000
819.716309	211.100000
819.751404	210.400000
819.786438	215.600000
819.821533	205.200000
819.856628	212.600000
819.891663	213.200000
819.926758	220.600000
819.961853	214.800000
819.996887	207.200000
820.031982	212.700000
820.067017	207.900000
820.102112	234.800000
820.137207	206.500000
820.172302	221.600000
820.207275	204.500000
820.242371	205.100000
820.277405	203.900000
820.312500	206.700000
820.347534	209.100000
820.382568	210.600000
820.417664	205.500000
820.452759	203.900000
820.487732	201.800000
820.522827	202.400000
820.557861	201.600000
820.592896	202.200000
820.627930	203.100000
820.662964	199.900000
820.698059	207.200000
820.733093	202.500000
820.768127	207.800000
820.803162	202.300000
820.838196	200.200000
820.873230	203.200000
820.908264	204.300000
820.943298	199.000000
820.978333	208.400000
821.013367	201.900000
821.048401	207.700000
821.083435	207.400000
821.118469	193.800000
821.153503	206.600000
821.188477	202.900000
821.223511	195.000000
821.258484	200.400000
821.293579	201.300000
821.328613	192.800000
821.363647	198.900000
821.398621	194.700000
821.433655	196.100000
821.468628	211.600000
821.503662	198.200000
821.538696	201.800000
821.573669	194.200000
821.608704	202.500000
821.643677	196.600000
821.678650	203.500000
821.713684	207.200000
821.748718	196.200000
821.783691	197.600000
821.818726	198.200000
821.853638	200.500000
821.888672	194.700000
821.923706	197.500000
821.958618	194.200000
821.993652	196.300000
822.028687	201.200000
822.063599	203.300000
822.098633	198.500000
822.133667	194.500000
822.168579	195.000000
822.203613	198.800000
822.238586	192.900000
822.273560	200.300000
822.308533	192.400000
822.343567	194.200000
822.378479	194.300000
822.413452	194.200000
822.448425	190.900000
822.483398	201.000000
822.518372	200.100000
822.553345	192.600000
822.588318	203.800000
822.623291	194.000000
822.658203	193.300000
822.693237	194.600000
822.728210	191.900000
822.763123	196.700000
822.798096	190.000000
822.833069	194.700000
822.867981	194.800000
822.902954	195.200000
822.937927	198.100000
822.972900	203.800000
823.007874	186.400000
823.042725	197.600000
823.077698	206.300000
823.112671	190.100000
823.147583	192.600000
823.182556	195.400000
823.217529	199.300000
823.252441	192.500000
823.287415	207.400000
823.322388	196.300000
823.357239	195.600000
823.392212	199.700000
823.427185	198.300000
823.462097	189.800000
823.497009	198.300000
823.531982	191.200000
823.566895	194.400000
823.601807	187.800000
823.636719	192.200000
823.671631	196.800000
823.706604	191.900000
823.741455	195.400000
823.776428	186.900000
823.811340	197.000000
823.846252	200.000000
823.881165	199.500000
823.916138	194.300000
823.950989	200.500000
823.985901	190.900000
824.020813	193.100000
824.055725	190.600000
824.090637	185.600000
824.125610	194.000000
824.160461	192.900000
824.195374	194.500000
824.230225	197.700000
824.265198	185.700000
824.300110	189.300000
824.334961	203.200000
824.369873	183.600000
824.404785	194.300000
824.439636	197.800000
824.474548	183.600000
824.509460	183.200000
824.544312	198.000000
824.579224	194.600000
824.614075	194.800000
824.648987	191.600000
824.683899	191.400000
824.718811	189.400000
824.753662	197.600000
824.788574	195.800000
824.823364	192.900000
824.858276	189.100000
824.893188	198.700000
824.928040	197.100000
824.962952	194.500000
824.997803	195.700000
825.032654	193.600000
825.067566	196.800000
825.102417	189.500000
825.137268	191.700000
825.172119	191.700000
825.206970	189.300000
825.241882	188.800000
825.276733	188.800000
825.311646	189.600000
825.346436	187.700000
825.381348	186.200000
825.416138	192.200000
825.450989	185.900000
825.485901	182.600000
825.520691	182.300000
825.555542	185.900000
825.590454	189.800000
825.625244	183.300000
825.660095	196.900000
825.695007	194.800000
825.729797	189.000000
825.764648	187.000000
825.799438	188.800000
825.834290	191.200000
825.869202	182.500000
825.903992	192.900000
825.938843	185.200000
825.973694	185.600000
826.008484	202.300000
826.043335	185.900000
826.078186	181.700000
826.112976	195.600000
826.147827	194.200000
826.182678	198.300000
826.217468	181.600000
826.252319	195.400000
826.287109	184.500000
826.321899	197.200000
826.356750	187.700000
826.391541	185.100000
826.426392	194.400000
826.461182	187.800000
826.495972	185.000000
826.530823	181.400000
826.565613	191.300000
826.600403	183.900000
826.635254	193.900000
826.670044	181.800000
826.704834	182.200000
826.739685	184.100000
826.774475	191.700000
826.809265	189.200000
826.844055	187.100000
826.878906	194.900000
826.913635	191.500000
826.948425	191.900000
826.983215	192.100000
827.018005	193.400000
827.052856	188.200000
827.087585	191.500000
827.122375	182.300000
827.157227	188.600000
827.191956	203.200000
827.226746	185.200000
827.261536	193.700000
827.296265	181.700000
827.331116	188.500000
827.365906	192.700000
827.400635	185.700000
827.435425	180.300000
827.470215	196.600000
827.504944	187.100000
827.539734	194.800000
827.574463	187.300000
827.609253	196.300000
827.644043	188.900000
827.678772	195.600000
827.713562	186.000000
827.748352	188.600000
827.783081	185.000000
827.817871	190.400000
827.852600	184.500000
827.887329	190.200000
827.922119	181.100000
827.956848	193.100000
827.991638	202.300000
828.026367	189.600000
828.061157	190.100000
828.095886	189.200000
828.130615	203.600000
828.165344	180.400000
828.200073	190.400000
828.234863	187.900000
828.269592	188.400000
828.304321	193.400000
828.339111	189.800000
828.373779	185.800000
828.408569	196.100000
828.443298	194.500000
828.477966	186.800000
828.512756	190.000000
828.547424	184.400000
828.582214	187.500000
828.616943	187.600000
828.651672	187.200000
828.686340	193.600000
828.721130	184.500000
828.755798	188.600000
828.790527	188.500000
828.825256	191.600000
828.859924	188.700000
828.894714	196.800000
828.929443	196.500000
828.964111	186.100000
828.998840	191.300000
829.033569	188.300000
829.068237	185.700000
829.102966	187.300000
829.137634	190.100000
829.172363	191.500000
829.207092	189.000000
829.241821	186.200000
829.276489	180.200000
829.311157	189.700000
829.345825	187.900000
829.380554	194.200000
829.415283	183.300000
829.449951	183.200000
829.484619	198.300000
829.519348	196.600000
829.554016	188.900000
829.588745	189.300000
829.623413	182.700000
829.658081	200.100000
829.692749	183.400000
829.727417	194.300000
829.762146	191.700000
829.796814	185.600000
829.831482	187.300000
829.866150	190.800000
829.900879	186.100000
829.935486	191.600000
829.970154	186.800000
830.004883	199.000000
830.039490	189.200000
830.074219	186.800000
830.108887	190.400000
830.143494	188.200000
830.178223	184.400000
830.212891	186.100000
830.247498	189.300000
830.282166	196.700000
830.316772	195.000000
830.351501	185.800000
830.386169	188.200000
830.420776	186.700000
830.455444	189.500000
830.490112	185.800000
830.524719	180.600000
830.559387	190.600000
830.594055	192.500000
830.628662	188.700000
830.663330	188.500000
830.697998	198.100000
830.732605	188.400000
830.767273	190.800000
830.801941	189.100000
830.836487	196.700000
830.871155	190.900000
830.905762	190.000000
830.940430	182.600000
830.975098	185.900000
831.009644	190.400000
831.044312	196.400000
831.078979	192.400000
831.113525	181.700000
831.148193	190.100000
831.182861	186.500000
831.217407	193.100000
831.252075	205.100000
831.286621	185.700000
831.321289	184.600000
831.355896	189.300000
831.390564	196.000000
831.425110	188.900000
831.459778	196.400000
831.494324	202.300000
831.528931	191.800000
831.563599	193.800000
831.598145	182.200000
831.632751	188.600000
831.667419	187.600000
831.701965	190.700000
831.736572	193.500000
831.771179	182.400000
831.805786	187.500000
831.840393	196.100000
831.874939	180.900000
831.909546	193.300000
831.944153	181.100000
831.978760	187.500000
832.013306	184.700000
832.047913	195.600000
832.082458	198.600000
832.117065	185.100000
832.151672	197.500000
832.186218	189.400000
832.220825	193.000000
832.255432	181.000000
832.289978	185.800000
832.324585	191.200000
832.359192	192.700000
832.393677	187.000000
832.428284	191.600000
832.462830	188.100000
832.497437	188.300000
832.531982	192.200000
832.566589	187.500000
832.601135	191.300000
832.635681	181.500000
832.670227	188.000000
832.704773	197.200000
832.739380	190.300000
832.773926	189.600000
832.808472	184.300000
832.843079	189.700000
832.877563	192.300000
832.912170	186.600000
832.946716	181.900000
832.981201	195.900000
833.015808	189.900000
833.050293	188.900000
833.084839	184.900000
833.119446	187.900000
833.153992	192.900000
833.188477	190.800000
833.223022	184.700000
833.257568	191.000000
833.292114	196.300000
833.326660	200.200000
833.361145	186.700000
833.395691	181.800000
833.430237	189.000000
833.464783	192.300000
833.499329	185.000000
833.533875	184.500000
833.568359	192.500000
833.602905	195.600000
833.637390	194.000000
833.671875	185.600000
833.706421	187.800000
833.740906	185.700000
833.775452	179.100000
833.809998	185.700000
833.844482	197.400000
833.879028	187.900000
833.913513	187.000000
833.947998	192.300000
833.982544	186.200000
834.017090	185.200000
834.051514	179.700000
834.086060	191.100000
834.120544	189.200000
834.155029	190.000000
834.189575	187.700000
834.223999	191.900000
834.258545	190.000000
834.293030	188.900000
834.327515	188.400000
834.362000	187.000000
834.396545	194.100000
834.430969	187.600000
834.465454	193.700000
834.500000	180.600000
834.534424	193.800000
834.568970	179.600000
834.603455	180.500000
834.637878	184.500000
834.672363	191.000000
834.706909	188.800000
834.741333	189.100000
834.775818	179.900000
834.810242	184.600000
834.844727	190.000000
834.879211	187.900000
834.913635	189.300000
834.948181	190.800000
834.982666	189.000000
835.017090	187.800000
835.051575	191.900000
835.086060	185.800000
835.120483	193.000000
835.154907	192.200000
835.189331	188.300000
835.223816	191.600000
835.258301	184.200000
835.292786	183.400000
835.327209	193.500000
835.361694	184.600000
835.396057	185.600000
835.430542	191.500000
835.465027	190.800000
835.499390	184.300000
835.533875	208.300000
835.568359	186.000000
835.602722	182.300000
835.637207	189.900000
835.671692	182.600000
835.706055	204.500000
835.740540	191.400000
835.774902	191.700000
835.809387	190.100000
835.843811	183.100000
835.878235	197.000000
835.912659	183.200000
835.947083	185.800000
835.981506	188.300000
836.015930	182.100000
836.050354	192.900000
836.084778	199.700000
836.119202	192.700000
836.153625	201.200000
836.187988	184.700000
836.222473	186.100000
836.256897	190.700000
836.291260	188.000000
836.325684	190.200000
836.360046	187.200000
836.394470	187.700000
836.428894	196.600000
836.463318	183.300000
836.497681	194.000000
836.532104	195.900000
836.566467	190.000000
836.600891	188.000000
836.635315	194.300000
836.669678	191.800000
836.704102	193.800000
836.738525	189.200000
836.772888	181.000000
836.807251	186.000000
836.841675	191.400000
836.876038	184.600000
836.910461	185.900000
836.944763	192.700000
836.979187	184.000000
837.013611	194.700000
837.047974	181.800000
837.082336	199.900000
837.116699	191.900000
837.151062	188.600000
837.185486	182.700000
837.219849	187.400000
837.254211	193.100000
837.288574	187.800000
837.322937	183.800000
837.357300	177.900000
837.391663	201.400000
837.426086	195.900000
837.460388	188.700000
837.494751	194.400000
837.529114	186.100000
837.563477	194.800000
837.597839	190.000000
837.632141	189.000000
837.666565	187.000000
837.700928	191.900000
837.735229	192.000000
837.769592	192.300000
837.803955	193.900000
837.838257	188.600000
837.872620	184.100000
837.906982	197.000000
837.941284	188.200000
837.975647	190.300000
838.010010	195.500000
838.044312	187.000000
838.078674	185.000000
838.112976	190.400000
838.147339	190.700000
838.181702	189.400000
838.216003	198.500000
838.250366	190.700000
838.284668	191.600000
838.318970	182.000000
838.353333	189.300000
838.387634	187.400000
838.421936	190.200000
838.456299	191.000000
838.490601	196.500000
838.524902	192.300000
838.559265	194.100000
838.593567	193.500000
838.627869	183.400000
838.662170	192.300000
838.696472	182.400000
838.730774	185.600000
838.765137	194.600000
838.799377	175.400000
838.833740	190.300000
838.868042	195.100000
838.902283	181.700000
838.936646	195.300000
838.970947	191.200000
839.005188	194.300000
839.039551	183.500000
839.073792	196.100000
839.108093	186.900000
839.142395	198.000000
839.176697	184.400000
839.210937	188.300000
839.245300	201.300000
839.279541	183.800000
839.313843	189.000000
839.348145	191.700000
839.382385	194.900000
839.416687	194.000000
839.450989	192.800000
839.485229	188.200000
839.519531	184.100000
839.553833	196.100000
839.588013	190.300000
839.622314	189.400000
839.656555	192.800000
839.690857	189.700000
839.725159	183.800000
839.759460	188.000000
839.793640	187.500000
839.827942	187.600000
839.862183	185.000000
839.896423	191.000000
839.930725	199.700000
839.964966	196.700000
839.999207	197.900000
840.033508	196.700000
840.067688	187.300000
840.101990	198.600000
840.136230	189.800000
840.170471	195.400000
840.204712	186.400000
840.238953	184.500000
840.273193	190.500000
840.307434	193.000000
840.341736	185.600000
840.375916	184.200000
840.410217	186.700000
840.444397	195.100000
840.478638	193.800000
840.512878	198.300000
840.547119	191.300000
840.581360	192.600000
840.615601	198.700000
840.649780	199.200000
840.684021	188.900000
840.718262	198.500000
840.752441	196.000000
840.786682	190.800000
840.820862	191.500000
840.855103	197.500000
840.889343	191.400000
840.923584	196.200000
840.957764	190.700000
840.992004	191.900000
841.026184	202.800000
841.060425	188.900000
841.094666	186.000000
841.128845	194.400000
841.163025	189.900000
841.197266	193.300000
841.231445	191.600000
841.265686	190.900000
841.299866	185.700000
841.334045	198.700000
841.368286	188.600000
841.402405	198.000000
841.436646	193.400000
841.470825	187.600000
841.505005	189.000000
841.539185	185.800000
841.573425	186.100000
841.607544	190.600000
841.641785	189.700000
841.675964	185.400000
841.710144	190.200000
841.744324	187.400000
841.778503	189.400000
841.812683	185.200000
841.846863	198.500000
841.881042	196.500000
841.915222	187.600000
841.949402	205.100000
841.983521	180.600000
842.017700	188.800000
842.051880	191.800000
842.086060	191.100000
842.120239	191.300000
842.154419	188.300000
842.188538	190.500000
842.222717	187.000000
842.256897	200.500000
842.291016	188.300000
842.325195	193.200000
842.359375	201.500000
842.393494	196.600000
842.427673	190.100000
842.461853	193.900000
842.495911	198.300000
842.530090	192.400000
842.564209	188.000000
842.598389	193.300000
842.632568	191.300000
842.666626	196.200000
842.700806	185.700000
842.734985	189.000000
842.769043	193.100000
842.803223	188.900000
842.837402	188.400000
842.871460	188.100000
842.905640	197.700000
842.939697	186.100000
842.973877	191.500000
843.007996	196.200000
843.042175	199.800000
843.076233	187.200000
843.110413	191.100000
843.144470	199.800000
843.178589	193.200000
843.212769	188.900000
843.246826	194.900000
843.280945	189.400000
843.315125	186.600000
843.349182	186.400000
843.383301	197.600000
843.417419	202.500000
843.451538	190.200000
843.485657	188.300000
843.519714	188.600000
843.553833	191.800000
843.587952	188.600000
843.622070	187.100000
843.656128	193.300000
843.690247	190.100000
843.724304	188.400000
843.758423	191.300000
843.792542	189.400000
843.826599	191.500000
843.860718	189.500000
843.894836	183.900000
843.928894	191.400000
843.963013	192.100000
843.997070	186.100000
844.031128	184.100000
844.065247	195.000000
844.099304	195.100000
844.133362	192.000000
844.167480	192.300000
844.201599	198.100000
844.235596	191.800000
844.269714	193.000000
844.303711	192.100000
844.337830	182.600000
844.371948	193.700000
844.405945	190.200000
844.440063	185.100000
844.474121	205.200000
844.508118	189.400000
844.542236	190.300000
844.576294	189.600000
844.610352	186.100000
844.644409	189.700000
844.678406	182.600000
844.712524	194.800000
844.746582	197.500000
844.780640	189.100000
844.814636	191.900000
844.848755	201.000000
844.882751	190.800000
844.916809	195.000000
844.950867	192.300000
844.984863	198.900000
845.018921	190.900000
845.052979	186.800000
845.086975	193.000000
845.121033	185.800000
845.155090	187.300000
845.189087	198.300000
845.223145	188.900000
845.257141	189.700000
845.291199	193.500000
845.325256	198.100000
845.359253	192.600000
845.393250	201.700000
845.427307	189.700000
845.461304	192.200000
845.495361	190.000000
845.529358	202.400000
845.563354	188.400000
845.597412	187.500000
845.631409	199.300000
845.665405	197.900000
845.699463	195.700000
845.733459	189.700000
845.767456	196.900000
845.801453	190.100000
845.835449	197.700000
845.869446	194.800000
845.903503	195.300000
845.937439	188.900000
845.971497	197.300000
846.005493	185.800000
846.039429	194.900000
846.073486	203.100000
846.107483	188.600000
846.141418	190.700000
846.175476	188.700000
846.209473	198.700000
846.243408	186.000000
846.277405	192.500000
846.311401	186.500000
846.345337	191.900000
846.379395	196.100000
846.413330	188.700000
846.447327	199.600000
846.481323	186.600000
846.515259	186.300000
846.549255	192.200000
846.583252	193.600000
846.617187	187.000000
846.651184	192.000000
846.685120	190.800000
846.719055	197.100000
846.753052	194.400000
846.786987	195.100000
846.820984	184.600000
846.854980	199.400000
846.888916	185.100000
846.922852	193.400000
846.956848	199.600000
846.990723	187.100000
847.024719	192.300000
847.058716	190.200000
847.092590	198.400000
847.126587	192.400000
847.160522	188.300000
847.194458	194.700000
847.228455	186.100000
847.262390	185.100000
847.296265	190.200000
847.330261	198.200000
847.364136	188.200000
847.398132	188.000000
847.432068	191.000000
847.466003	189.800000
847.499939	190.100000
847.533875	194.500000
847.567749	188.200000
847.601746	188.700000
847.635681	194.300000
847.669556	183.100000
847.703491	196.500000
847.737427	205.700000
847.771301	185.900000
847.805237	192.500000
847.839233	190.200000
847.873108	191.900000
847.907043	189.500000
847.940918	198.400000
847.974854	193.100000
848.008789	196.500000
848.042664	190.900000
848.076538	195.300000
848.110474	190.800000
848.144348	193.000000
848.178284	183.900000
848.212219	192.100000
848.246094	187.300000
848.279968	194.100000
848.313904	193.200000
848.347778	192.300000
848.381653	189.800000
848.415588	188.000000
848.449463	188.800000
848.483337	193.700000
848.517212	195.800000
848.551086	191.500000
848.585022	186.500000
848.618835	199.200000
848.652771	188.600000
848.686646	187.300000
848.720520	198.200000
848.754395	189.300000
848.788330	195.500000
848.822144	194.400000
848.856018	189.700000
848.889954	199.900000
848.923767	185.500000
848.957642	186.600000
848.991577	196.200000
849.025391	188.900000
849.059265	190.000000
849.093079	187.200000
849.126953	184.900000
849.160828	196.400000
849.194641	192.600000
849.228577	189.100000
849.262451	191.700000
849.296265	189.300000
849.330139	186.600000
849.364014	191.600000
849.397827	195.200000
849.431702	191.100000
849.465515	195.000000
849.499329	182.000000
849.533203	188.000000
849.567078	180.500000
849.600891	194.000000
849.634766	188.900000
849.668518	196.700000
849.702393	190.800000
849.736267	184.000000
849.770020	201.900000
849.803894	196.000000
849.837769	191.200000
849.871521	192.100000
849.905396	197.000000
849.939270	188.100000
849.973022	188.200000
850.006897	195.600000
850.040710	192.400000
850.074524	195.500000
850.108337	189.100000
850.142151	195.400000
850.175964	196.400000
850.209778	190.600000
850.243530	178.200000
850.277405	195.600000
850.311218	190.800000
850.344971	189.200000
850.378845	199.800000
850.412659	187.800000
850.446411	189.900000
850.480225	191.500000
850.514038	197.500000
850.547791	192.800000
850.581665	191.300000
850.615417	188.600000
850.649231	191.400000
850.683044	190.500000
850.716858	190.600000
850.750610	191.100000
850.784424	195.200000
850.818176	188.200000
850.851929	188.300000
850.885742	188.400000
850.919495	190.600000
850.953308	198.400000
850.987122	199.000000
851.020874	185.300000
851.054626	182.800000
851.088440	195.000000
851.122192	194.600000
851.156006	191.300000
851.189697	189.800000
851.223511	184.700000
851.257263	194.500000
851.291077	193.500000
851.324829	190.900000
851.358582	187.800000
851.392334	190.000000
851.426086	189.000000
851.459900	198.600000
851.493591	190.300000
851.527344	193.400000
851.561157	189.500000
851.594849	194.700000
851.628662	191.600000
851.662415	199.600000
851.696106	193.800000
851.729858	196.600000
851.763611	184.500000
851.797363	192.600000
851.831116	186.100000
851.864868	194.900000
851.898560	195.600000
851.932312	188.900000
851.966064	192.300000
851.999817	189.800000
852.033569	190.900000
852.067261	196.000000
852.101013	187.100000
852.134766	191.200000
852.168457	180.900000
852.202209	194.800000
852.235901	186.100000
852.269592	193.500000
852.303345	200.800000
852.337036	193.300000
852.370789	191.000000
852.404541	195.000000
852.438171	188.600000
852.471924	189.800000
852.505676	184.400000
852.539307	193.600000
852.573059	188.300000
852.606812	189.300000
852.640442	192.000000
852.674194	196.900000
852.707886	201.700000
852.741577	199.400000
852.775269	187.200000
852.809021	191.500000
852.842651	194.600000
852.876404	196.700000
852.910034	193.300000
852.943787	196.800000
852.977478	193.600000
853.011108	186.800000
853.044861	187.800000
853.078552	198.600000
853.112183	193.400000
853.145874	192.800000
853.179626	183.100000
853.213257	192.900000
853.246948	189.100000
853.280640	198.800000
853.314270	191.400000
853.347961	199.000000
853.381653	194.800000
853.415283	196.500000
853.448975	188.700000
853.482605	192.600000
853.516296	190.500000
853.549988	185.000000
853.583618	193.500000
853.617310	192.400000
853.651001	192.900000
853.684631	186.200000
853.718323	190.300000
853.751953	199.000000
853.785583	183.800000
853.819275	195.200000
853.852966	193.000000
853.886536	182.400000
853.920227	187.900000
853.953918	195.600000
853.987488	190.200000
854.021179	195.000000
854.054749	198.700000
854.088440	194.600000
854.122131	186.900000
854.155701	195.400000
854.189331	188.800000
854.223022	194.800000
854.256592	194.500000
854.290283	187.900000
854.323914	194.100000
854.357483	195.100000
854.391174	194.100000
854.424744	201.500000
854.458374	194.000000
854.492065	202.700000
854.525696	189.900000
854.559265	199.500000
854.592896	202.800000
854.626465	193.300000
854.660095	191.700000
854.693787	195.100000
854.727356	189.900000
854.760986	195.700000
854.794617	192.200000
854.828186	190.400000
854.861816	194.800000
854.895447	193.500000
854.929016	192.900000
854.962585	194.900000
854.996155	198.900000
855.029785	193.800000
855.063416	193.000000
855.097046	196.800000
855.130615	186.100000
855.164185	198.800000
855.197754	191.700000
855.231384	195.900000
855.264954	190.400000
855.298523	195.400000
855.332153	191.600000
855.365723	199.900000
855.399292	187.700000
855.432922	191.800000
855.466492	194.200000
855.500061	186.100000
855.533630	188.400000
855.567200	195.500000
855.600769	196.700000
855.634338	196.400000
855.667969	193.000000
855.701477	186.800000
855.735046	187.000000
855.768616	183.800000
855.802185	193.400000
855.835754	207.100000
855.869324	184.500000
855.902893	190.700000
855.936401	198.400000
855.969971	192.600000
856.003540	185.100000
856.037109	195.400000
856.070618	192.400000
856.104187	186.400000
856.137695	189.600000
856.171265	182.500000
856.204834	191.700000
856.238403	196.500000
856.271912	191.000000
856.305481	193.500000
856.338989	185.800000
856.372559	193.900000
856.406128	193.600000
856.439636	195.400000
856.473145	190.600000
856.506653	199.100000
856.540222	192.900000
856.573792	197.800000
856.607300	196.600000
856.640808	186.900000
856.674377	194.600000
856.707825	219.700000
856.741394	197.800000
856.774902	188.000000
856.808472	183.600000
856.841980	194.600000
856.875488	200.800000
856.908936	181.800000
856.942505	190.200000
856.976013	190.900000
857.009521	188.400000
857.043030	191.400000
857.076477	190.500000
857.110046	196.300000
857.143555	192.600000
857.177063	196.000000
857.210571	189.900000
857.244080	184.500000
857.277527	194.900000
857.311035	190.000000
857.344543	195.500000
857.378052	190.100000
857.411499	197.300000
857.445068	201.100000
857.478516	190.200000
857.512024	185.300000
857.545532	189.800000
857.578979	194.400000
857.612427	191.300000
857.645874	188.900000
857.679382	191.900000
857.712891	196.200000
857.746399	191.400000
857.779846	197.700000
857.813354	196.600000
857.846741	192.700000
857.880249	187.800000
857.913757	193.500000
857.947266	195.700000
857.980652	195.000000
858.014160	189.600000
858.047546	191.500000
858.081055	189.900000
858.114563	200.300000
858.147949	186.500000
858.181458	194.600000
858.214844	189.000000
858.248352	183.800000
858.281799	197.200000
858.315308	204.700000
858.348694	194.800000
858.382141	200.800000
858.415588	194.300000
858.449036	197.300000
858.482483	194.500000
858.515930	189.700000
858.549377	190.700000
858.582825	200.500000
858.616211	193.700000
858.649658	194.800000
858.683105	187.200000
858.716553	188.700000
858.750000	186.000000
858.783386	189.600000
858.816833	183.100000
858.850281	194.000000
858.883728	194.800000
858.917114	190.900000
858.950562	200.000000
858.983948	199.700000
859.017395	194.900000
859.050781	190.200000
859.084167	189.100000
859.117615	184.700000
859.151062	195.000000
859.184448	188.700000
859.217834	189.300000
859.251282	189.700000
859.284668	188.600000
859.318054	181.900000
859.351440	190.800000
859.384888	199.300000
859.418274	184.100000
859.451721	182.400000
859.485046	195.000000
859.518494	193.300000
859.551819	187.200000
859.585266	193.800000
859.618652	196.000000
859.652039	185.700000
859.685425	188.300000
859.718811	184.600000
859.752197	181.300000
859.785583	198.400000
859.819031	200.500000
859.852356	193.700000
859.885742	187.600000
859.919067	190.700000
859.952454	189.000000
859.985901	196.900000
860.019287	189.800000
860.052612	0.000000
860.085999	0.000000
860.119324	0.000000
860.152710	0.000000
860.186096	0.000000
860.219421	0.000000
860.252808	0.000000
860.286133	0.000000
860.319519	0.000000
860.352905	0.000000
860.386292	0.000000
860.419617	0.000000
860.452942	0.000000
860.486267	0.000000
860.519653	0.000000
860.553040	0.000000
860.586365	0.000000
860.619690	0.000000
860.653076	0.000000
860.686340	0.000000
860.719727	0.000000
860.753113	0.000000
860.786377	0.000000
860.819763	0.000000
860.853027	0.000000
860.886414	0.000000
860.919739	0.000000
860.953125	0.000000
860.986389	0.000000
861.019714	0.000000
861.053040	0.000000
861.086365	0.000000
861.119690	0.000000
861.153076	0.000000
861.186340	0.000000
861.219666	0.000000
861.252930	0.000000
861.286316	0.000000
861.319641	0.000000
861.352905	0.000000
861.386230	0.000000
861.419495	0.000000
861.452820	0.000000
861.486145	0.000000
861.519470	0.000000
861.552734	0.000000
861.586060	0.000000
861.619324	0.000000
861.652649	0.000000
861.685974	0.000000
861.719238	0.000000
861.752563	0.000000
861.785828	0.000000
861.819092	0.000000
861.852417	0.000000
861.885742	0.000000
861.918945	0.000000
861.952271	0.000000
861.985535	0.000000
862.018799	0.000000
862.052124	0.000000
862.085449	0.000000
862.118652	0.000000
862.151978	0.000000
862.185181	0.000000
862.218506	0.000000
862.251770	0.000000
862.285034	0.000000
862.318298	0.000000
862.351562	0.000000
862.384827	0.000000
862.418091	0.000000
862.451355	0.000000
862.484619	0.000000
862.517883	0.000000
862.551086	0.000000
862.584351	0.000000
862.617676	0.000000
862.650940	0.000000
862.684143	0.000000
862.717407	0.000000
862.750610	0.000000
862.783875	0.000000
862.817139	0.000000
862.850342	0.000000
862.883606	0.000000
862.916870	0.000000
862.950073	0.000000
862.983337	0.000000
863.016602	0.000000
863.049805	0.000000
863.083069	0.000000
863.116211	0.000000
863.149475	0.000000
863.182739	0.000000
863.216003	0.000000
863.249146	0.000000
863.282410	0.000000
863.315613	0.000000
863.348816	0.000000
863.382080	0.000000
863.415222	0.000000
863.448486	0.000000
863.481689	0.000000
863.514893	0.000000
863.548157	0.000000
863.581360	0.000000
863.614502	0.000000
863.647766	0.000000
863.680908	0.000000
863.714172	0.000000
863.747375	0.000000
863.780579	0.000000
863.813721	0.000000
863.846985	0.000000
863.880127	0.000000
863.913330	0.000000
863.946533	0.000000
863.979675	0.000000
864.012939	0.000000
