Model Number: SPM-001-M   
Serial Number: 10090201
Firmware Version: 004.17.6
Exposure Time: 500000.000000us
Data Taken on: 10-03-2021 11:46:14.976
Wavelength	Amplitude
733.770752	0.000000
733.808716	0.000000
733.846619	0.000000
733.884583	0.000000
733.922546	0.000000
733.960449	0.000000
733.998413	0.000000
734.036377	0.000000
734.074219	0.000000
734.112183	0.000000
734.150085	0.000000
734.188049	0.000000
734.226013	0.000000
734.263916	0.000000
734.301819	0.000000
734.339783	0.000000
734.377686	0.000000
734.415588	0.000000
734.453552	0.000000
734.491455	0.000000
734.529419	0.000000
734.567322	0.000000
734.605225	0.000000
734.643127	0.000000
734.681091	0.000000
734.718994	0.000000
734.756897	0.000000
734.794800	0.000000
734.832703	0.000000
734.870667	0.000000
734.908508	0.000000
734.946472	0.000000
734.984375	0.000000
735.022278	0.000000
735.060181	0.000000
735.098083	0.000000
735.135986	0.000000
735.173889	0.000000
735.211792	0.000000
735.249695	0.000000
735.287598	0.000000
735.325439	0.000000
735.363403	0.000000
735.401306	0.000000
735.439148	0.000000
735.477051	0.000000
735.515015	0.000000
735.552856	0.000000
735.590759	0.000000
735.628662	0.000000
735.666504	0.000000
735.704407	0.000000
735.742310	0.000000
735.780212	0.000000
735.818115	0.000000
735.856018	0.000000
735.893860	0.000000
735.931763	0.000000
735.969604	0.000000
736.007507	0.000000
736.045410	0.000000
736.083252	0.000000
736.121094	0.000000
736.158997	0.000000
736.196838	0.000000
736.234741	0.000000
736.272644	0.000000
736.310486	0.000000
736.348389	0.000000
736.386230	0.000000
736.424072	0.000000
736.461975	0.000000
736.499878	0.000000
736.537720	0.000000
736.575562	0.000000
736.613403	0.000000
736.651306	0.000000
736.689148	0.000000
736.726990	0.000000
736.764893	0.000000
736.802734	0.000000
736.840576	0.000000
736.878418	0.000000
736.916321	0.000000
736.954102	0.000000
736.992004	0.000000
737.029846	0.000000
737.067688	0.000000
737.105530	0.000000
737.143372	0.000000
737.181213	0.000000
737.219116	0.000000
737.256897	0.000000
737.294739	0.000000
737.332642	0.000000
737.370422	0.000000
737.408325	0.000000
737.446167	0.000000
737.483948	0.000000
737.521790	0.000000
737.559692	0.000000
737.597473	0.000000
737.635315	0.000000
737.673157	0.000000
737.710999	0.000000
737.748840	0.000000
737.786621	0.000000
737.824463	0.000000
737.862305	0.000000
737.900085	0.000000
737.937927	0.000000
737.975769	0.000000
738.013550	0.000000
738.051392	0.000000
738.089233	0.000000
738.127014	0.000000
738.164856	0.000000
738.202698	0.000000
738.240479	0.000000
738.278320	0.000000
738.316162	0.000000
738.353943	0.000000
738.391785	0.000000
738.429565	0.000000
738.467407	0.000000
738.505188	0.000000
738.542969	0.000000
738.580811	0.000000
738.618652	0.000000
738.656372	0.000000
738.694214	0.000000
738.732056	0.000000
738.769836	0.000000
738.807617	0.000000
738.845459	0.000000
738.883240	0.000000
738.921021	0.000000
738.958862	0.000000
738.996582	0.000000
739.034424	0.000000
739.072205	0.000000
739.109985	0.000000
739.147827	0.000000
739.185547	0.000000
739.223389	0.000000
739.261169	0.000000
739.298889	0.000000
739.336731	0.000000
739.374512	0.000000
739.412292	0.000000
739.450073	0.000000
739.487854	0.000000
739.525635	0.000000
739.563416	0.000000
739.601135	0.000000
739.638977	0.000000
739.676758	0.000000
739.714478	0.000000
739.752258	0.000000
739.790100	0.000000
739.827820	0.000000
739.865601	0.000000
739.903381	0.000000
739.941101	0.000000
739.978882	198.100000
740.016724	191.900000
740.054443	199.500000
740.092224	189.800000
740.130005	190.500000
740.167725	191.500000
740.205505	190.500000
740.243225	201.100000
740.281006	197.400000
740.318787	186.800000
740.356506	199.500000
740.394287	199.500000
740.432068	190.200000
740.469727	189.200000
740.507507	198.200000
740.545288	194.600000
740.583008	196.200000
740.620789	196.700000
740.658569	185.500000
740.696228	194.400000
740.734009	199.000000
740.771790	182.500000
740.809509	198.200000
740.847229	190.300000
740.884949	191.200000
740.922729	188.000000
740.960449	191.200000
740.998169	189.000000
741.035950	189.200000
741.073669	197.000000
741.111389	193.400000
741.149170	204.000000
741.186890	203.700000
741.224609	199.200000
741.262329	193.800000
741.300110	204.300000
741.337769	187.900000
741.375549	189.000000
741.413208	194.500000
741.450989	190.300000
741.488708	191.300000
741.526367	192.000000
741.564148	196.700000
741.601868	197.400000
741.639526	193.900000
741.677307	196.600000
741.715027	195.900000
741.752686	190.300000
741.790466	199.300000
741.828186	198.300000
741.865845	189.500000
741.903564	183.500000
741.941345	193.600000
741.979004	190.400000
742.016724	196.400000
742.054382	195.300000
742.092102	200.000000
742.129822	185.600000
742.167480	191.200000
742.205200	192.100000
742.242920	195.700000
742.280640	199.200000
742.318359	189.100000
742.356079	190.700000
742.393738	198.300000
742.431396	192.300000
742.469116	198.700000
742.506775	183.600000
742.544495	196.800000
742.582214	198.200000
742.619873	194.100000
742.657593	200.800000
742.695251	198.900000
742.732971	192.500000
742.770630	197.400000
742.808289	193.300000
742.846008	195.200000
742.883728	196.700000
742.921326	194.600000
742.959045	188.700000
742.996765	194.700000
743.034424	192.600000
743.072083	191.700000
743.109802	192.200000
743.147400	188.800000
743.185120	194.400000
743.222839	193.200000
743.260437	197.300000
743.298157	194.500000
743.335754	185.900000
743.373474	192.000000
743.411133	185.400000
743.448792	195.100000
743.486450	192.100000
743.524170	185.700000
743.561768	193.800000
743.599487	200.900000
743.637146	205.000000
743.674744	191.400000
743.712463	190.800000
743.750122	195.800000
743.787720	197.300000
743.825439	190.400000
743.863037	191.300000
743.900696	194.400000
743.938416	219.400000
743.976013	193.300000
744.013672	203.200000
744.051331	198.200000
744.088928	203.400000
744.126587	200.400000
744.164307	195.100000
744.201904	190.600000
744.239563	199.200000
744.277222	196.100000
744.314819	195.200000
744.352478	200.700000
744.390137	197.200000
744.427734	194.600000
744.465393	191.700000
744.502991	189.500000
744.540649	198.100000
744.578308	192.700000
744.615906	188.500000
744.653564	183.000000
744.691223	199.200000
744.728821	185.800000
744.766418	194.700000
744.804077	196.800000
744.841675	192.200000
744.879333	185.300000
744.916992	194.200000
744.954529	190.500000
744.992187	199.600000
745.029785	190.500000
745.067444	190.500000
745.105042	194.000000
745.142639	197.600000
745.180298	203.000000
745.217896	191.100000
745.255493	191.700000
745.293152	198.700000
745.330750	197.400000
745.368347	203.300000
745.405945	196.600000
745.443604	194.600000
745.481140	198.500000
745.518799	192.900000
745.556396	198.100000
745.593994	198.600000
745.631592	192.000000
745.669189	188.500000
745.706787	197.300000
745.744385	190.700000
745.781982	196.500000
745.819580	192.200000
745.857178	192.100000
745.894775	194.600000
745.932373	194.300000
745.969971	195.400000
746.007568	186.500000
746.045166	202.700000
746.082764	202.000000
746.120300	197.300000
746.157898	198.900000
746.195557	192.900000
746.233093	189.100000
746.270691	196.500000
746.308228	196.500000
746.345825	198.900000
746.383423	199.800000
746.420959	188.400000
746.458557	192.500000
746.496155	191.100000
746.533691	194.000000
746.571289	188.700000
746.608887	194.200000
746.646423	193.900000
746.684021	194.600000
746.721619	190.200000
746.759155	196.700000
746.796753	186.700000
746.834351	188.000000
746.871826	188.700000
746.909424	201.700000
746.946960	195.800000
746.984558	192.400000
747.022156	192.900000
747.059631	202.000000
747.097229	196.800000
747.134827	191.800000
747.172363	201.900000
747.209900	196.100000
747.247498	189.100000
747.285034	202.100000
747.322571	201.300000
747.360168	193.700000
747.397644	187.900000
747.435242	198.100000
747.472778	202.900000
747.510315	190.400000
747.547913	191.700000
747.585388	201.000000
747.622925	194.000000
747.660522	185.400000
747.697998	192.000000
747.735596	194.000000
747.773132	191.200000
747.810669	193.500000
747.848206	199.200000
747.885742	189.500000
747.923279	189.300000
747.960815	195.400000
747.998352	196.300000
748.035889	198.000000
748.073425	199.800000
748.110901	191.300000
748.148437	191.800000
748.185974	194.500000
748.223511	206.000000
748.261047	194.000000
748.298584	197.600000
748.336060	191.800000
748.373596	198.800000
748.411133	211.500000
748.448608	192.200000
748.486145	196.100000
748.523682	201.300000
748.561218	199.000000
748.598755	195.700000
748.636292	196.200000
748.673706	191.900000
748.711243	199.800000
748.748718	196.600000
748.786255	191.500000
748.823792	195.000000
748.861267	188.800000
748.898804	196.300000
748.936340	194.800000
748.973816	192.700000
749.011292	199.900000
749.048828	195.400000
749.086304	198.000000
749.123840	205.900000
749.161316	188.600000
749.198792	204.500000
749.236328	200.200000
749.273743	193.800000
749.311279	193.800000
749.348816	196.600000
749.386230	194.700000
749.423767	181.800000
749.461304	197.300000
749.498718	194.900000
749.536255	201.700000
749.573730	207.100000
749.611206	201.300000
749.648682	192.500000
749.686218	194.200000
749.723633	197.700000
749.761169	193.500000
749.798645	189.200000
749.836060	193.800000
749.873596	189.100000
749.911011	194.300000
749.948547	200.200000
749.986023	194.400000
750.023437	193.500000
750.060913	188.400000
750.098450	187.400000
750.135864	193.800000
750.173340	192.400000
750.210815	201.000000
750.248291	187.700000
750.285767	193.900000
750.323242	200.600000
750.360657	196.400000
750.398132	188.600000
750.435608	199.300000
750.473022	189.400000
750.510498	191.600000
750.547974	190.800000
750.585449	192.500000
750.622925	183.100000
750.660339	202.500000
750.697815	193.800000
750.735291	194.100000
750.772644	194.800000
750.810120	193.800000
750.847595	196.700000
750.885010	189.900000
750.922485	203.400000
750.959961	194.400000
750.997375	203.500000
751.034851	200.100000
751.072266	199.900000
751.109680	187.200000
751.147156	200.700000
751.184570	197.900000
751.221985	197.000000
751.259460	185.600000
751.296875	195.700000
751.334290	194.800000
751.371765	201.200000
751.409180	199.000000
751.446594	202.300000
751.484070	197.400000
751.521423	196.300000
751.558899	195.500000
751.596375	203.400000
751.633728	201.700000
751.671204	210.300000
751.708618	189.100000
751.746033	196.200000
751.783447	187.300000
751.820801	191.000000
751.858276	196.500000
751.895691	194.900000
751.933105	189.800000
751.970520	191.200000
752.007935	191.500000
752.045349	199.500000
752.082764	192.400000
752.120178	193.200000
752.157532	189.700000
752.195007	193.100000
752.232422	195.800000
752.269775	201.100000
752.307190	197.300000
752.344543	190.100000
752.382019	192.000000
752.419434	193.400000
752.456787	196.300000
752.494202	199.800000
752.531616	196.300000
752.568970	199.500000
752.606384	195.700000
752.643799	197.700000
752.681152	204.500000
752.718567	197.800000
752.755981	186.900000
752.793335	195.800000
752.830750	186.400000
752.868164	201.700000
752.905518	190.800000
752.942932	198.700000
752.980225	191.000000
753.017639	198.900000
753.055054	192.900000
753.092407	197.800000
753.129822	202.100000
753.167175	204.600000
753.204529	195.400000
753.241943	190.600000
753.279358	188.300000
753.316650	196.600000
753.354065	197.400000
753.391479	198.600000
753.428772	205.900000
753.466187	196.500000
753.503479	189.500000
753.540894	191.600000
753.578308	190.200000
753.615601	186.900000
753.653015	195.400000
753.690369	190.600000
753.727722	191.000000
753.765076	186.800000
753.802490	188.900000
753.839783	184.500000
753.877136	192.200000
753.914551	209.600000
753.951843	189.500000
753.989258	197.600000
754.026611	196.600000
754.063904	195.400000
754.101257	190.700000
754.138611	187.600000
754.175964	195.900000
754.213318	207.600000
754.250610	186.800000
754.288025	190.900000
754.325378	189.400000
754.362671	199.800000
754.400024	194.300000
754.437378	204.100000
754.474670	205.200000
754.512085	191.300000
754.549438	195.000000
754.586731	194.500000
754.624084	194.300000
754.661438	190.600000
754.698730	203.600000
754.736084	193.300000
754.773376	193.100000
754.810730	199.300000
754.848083	193.300000
754.885315	200.500000
754.922668	185.800000
754.960022	190.300000
754.997314	199.100000
755.034668	197.100000
755.072021	196.800000
755.109253	194.200000
755.146606	201.600000
755.183960	195.500000
755.221252	205.300000
755.258545	202.000000
755.295898	200.700000
755.333191	204.400000
755.370544	198.300000
755.407776	196.800000
755.445129	196.000000
755.482422	202.300000
755.519714	192.100000
755.557068	189.200000
755.594360	188.300000
755.631653	202.500000
755.668945	204.900000
755.706299	199.400000
755.743530	208.200000
755.780884	205.700000
755.818176	203.400000
755.855408	204.000000
755.892761	199.100000
755.930054	199.600000
755.967346	200.700000
756.004639	203.200000
756.041870	199.900000
756.079224	203.100000
756.116516	195.600000
756.153748	202.700000
756.191040	207.400000
756.228394	202.600000
756.265625	196.100000
756.302917	201.200000
756.340210	196.000000
756.377441	205.600000
756.414795	208.500000
756.452087	200.100000
756.489319	195.100000
756.526611	204.300000
756.563843	203.400000
756.601135	212.300000
756.638428	211.000000
756.675659	200.700000
756.712952	207.100000
756.750244	204.800000
756.787476	204.200000
756.824768	209.100000
756.862061	200.300000
756.899292	247.800000
756.936584	207.200000
756.973816	213.500000
757.011047	217.700000
757.048340	204.200000
757.085632	206.300000
757.122864	219.100000
757.160156	202.800000
757.197327	205.500000
757.234619	210.300000
757.271912	201.700000
757.309082	210.800000
757.346375	200.300000
757.383667	210.900000
757.420837	204.900000
757.458130	207.200000
757.495422	204.300000
757.532593	207.500000
757.569885	197.800000
757.607117	201.600000
757.644348	207.300000
757.681580	218.700000
757.718811	193.600000
757.756042	205.500000
757.793335	203.500000
757.830505	210.600000
757.867798	203.100000
757.905029	202.900000
757.942200	209.000000
757.979492	203.900000
758.016724	205.800000
758.053894	205.000000
758.091187	226.800000
758.128418	208.100000
758.165588	208.400000
758.202820	220.300000
758.240112	210.700000
758.277283	218.400000
758.314514	210.900000
758.351685	206.900000
758.388916	221.100000
758.426147	217.900000
758.463379	221.000000
758.500610	213.800000
758.537842	212.300000
758.575012	216.000000
758.612244	206.900000
758.649475	224.100000
758.686646	205.000000
758.723877	215.900000
758.761108	220.900000
758.798279	210.100000
758.835510	214.100000
758.872742	217.300000
758.909851	215.300000
758.947083	214.000000
758.984253	215.900000
759.021484	218.800000
759.058716	218.400000
759.095886	215.400000
759.133057	213.200000
759.170288	216.700000
759.207458	210.700000
759.244690	225.500000
759.281860	225.100000
759.319031	212.900000
759.356262	213.000000
759.393433	212.900000
759.430603	214.200000
759.467773	214.000000
759.505005	223.500000
759.542175	221.000000
759.579346	215.100000
759.616516	215.800000
759.653687	219.400000
759.690918	213.400000
759.728027	219.000000
759.765259	217.300000
759.802429	219.800000
759.839539	218.600000
759.876770	224.700000
759.913940	228.600000
759.951111	220.100000
759.988281	219.200000
760.025452	214.800000
760.062561	214.800000
760.099792	227.100000
760.136963	222.800000
760.174072	217.500000
760.211243	214.200000
760.248413	214.800000
760.285583	215.400000
760.322754	230.200000
760.359863	227.400000
760.397034	225.700000
760.434204	220.100000
760.471375	219.600000
760.508545	218.200000
760.545715	218.300000
760.582825	217.400000
760.619995	226.300000
760.657166	214.900000
760.694275	226.900000
760.731445	224.200000
760.768555	223.400000
760.805664	226.400000
760.842834	224.700000
760.879944	229.000000
760.917114	223.200000
760.954285	223.800000
760.991394	217.500000
761.028564	228.400000
761.065674	228.000000
761.102783	222.800000
761.139954	229.500000
761.177124	229.700000
761.214172	232.100000
761.251343	224.900000
761.288452	228.400000
761.325562	232.200000
761.362732	224.400000
761.399841	228.000000
761.436951	230.200000
761.474121	226.000000
761.511169	231.900000
761.548340	234.700000
761.585449	234.200000
761.622559	235.100000
761.659668	233.400000
761.696838	240.200000
761.733887	236.800000
761.771057	231.100000
761.808167	233.400000
761.845276	238.800000
761.882385	248.000000
761.919434	236.400000
761.956604	258.400000
761.993713	231.800000
762.030762	245.200000
762.067871	238.000000
762.105042	238.300000
762.142090	246.200000
762.179199	243.300000
762.216309	245.000000
762.253418	258.500000
762.290527	250.500000
762.327637	249.100000
762.364685	235.300000
762.401794	245.900000
762.438904	244.200000
762.475952	240.600000
762.513062	238.200000
762.550110	242.800000
762.587219	254.500000
762.624329	255.900000
762.661377	248.400000
762.698486	247.700000
762.735596	247.200000
762.772644	241.500000
762.809753	237.900000
762.846863	247.100000
762.883911	249.900000
762.921021	252.300000
762.958069	249.900000
762.995117	258.500000
763.032227	258.800000
763.069336	250.300000
763.106323	245.200000
763.143433	245.300000
763.180481	254.800000
763.217590	254.100000
763.254639	250.700000
763.291687	252.500000
763.328735	262.100000
763.365845	252.700000
763.402893	252.200000
763.439941	256.400000
763.477051	259.400000
763.514038	260.300000
763.551147	254.100000
763.588196	256.600000
763.625244	255.400000
763.662292	263.200000
763.699402	268.800000
763.736389	261.700000
763.773499	273.100000
763.810486	265.000000
763.847534	264.300000
763.884644	265.600000
763.921631	263.100000
763.958679	272.600000
763.995728	263.100000
764.032776	273.500000
764.069824	260.100000
764.106873	267.400000
764.143860	276.400000
764.180969	265.700000
764.218018	276.600000
764.255005	267.200000
764.292053	271.300000
764.329102	279.800000
764.366089	281.000000
764.403137	278.600000
764.440125	268.700000
764.477173	270.900000
764.514221	274.500000
764.551208	271.200000
764.588257	268.100000
764.625305	280.200000
764.662292	284.500000
764.699341	289.900000
764.736389	280.600000
764.773376	295.900000
764.810425	281.000000
764.847473	291.200000
764.884399	285.100000
764.921448	293.900000
764.958435	290.200000
764.995483	281.600000
765.032532	297.600000
765.069458	283.800000
765.106506	285.300000
765.143555	282.600000
765.180481	288.700000
765.217529	295.400000
765.254578	280.300000
765.291504	290.400000
765.328552	288.000000
765.365540	285.400000
765.402527	300.800000
765.439575	286.900000
765.476501	280.500000
765.513550	284.800000
765.550537	289.200000
765.587463	297.800000
765.624512	284.100000
765.661499	280.100000
765.698486	296.100000
765.735474	288.100000
765.772461	289.300000
765.809448	301.200000
765.846436	297.000000
765.883423	300.800000
765.920410	293.600000
765.957397	289.800000
765.994385	295.000000
766.031311	305.500000
766.068359	298.000000
766.105286	301.000000
766.142273	304.000000
766.179260	300.300000
766.216187	293.600000
766.253174	291.700000
766.290161	301.900000
766.327148	303.900000
766.364136	304.600000
766.401123	321.000000
766.438049	298.600000
766.475037	314.300000
766.512024	310.300000
766.548950	324.400000
766.585937	318.900000
766.622864	317.700000
766.659790	314.100000
766.696777	304.200000
766.733704	321.400000
766.770691	313.900000
766.807678	328.000000
766.844604	323.300000
766.881531	321.500000
766.918518	329.100000
766.955444	330.500000
766.992432	325.200000
767.029358	328.100000
767.066284	329.800000
767.103271	329.000000
767.140198	355.100000
767.177124	345.300000
767.214050	336.400000
767.251038	340.000000
767.287964	333.200000
767.324890	333.500000
767.361816	341.300000
767.398743	345.600000
767.435730	339.500000
767.472595	347.100000
767.509583	349.500000
767.546509	339.700000
767.583374	344.200000
767.620361	337.500000
767.657288	345.700000
767.694214	346.600000
767.731140	344.900000
767.768066	347.900000
767.804993	350.800000
767.841919	342.200000
767.878845	350.100000
767.915710	361.000000
767.952698	353.400000
767.989563	356.500000
768.026489	357.900000
768.063416	349.900000
768.100281	351.900000
768.137207	366.100000
768.174133	364.900000
768.211060	366.200000
768.247986	365.500000
768.284912	362.500000
768.321777	367.100000
768.358704	365.800000
768.395630	369.900000
768.432495	360.800000
768.469421	370.400000
768.506348	376.000000
768.543152	383.200000
768.580078	378.900000
768.616943	381.000000
768.653870	384.300000
768.690796	382.600000
768.727661	376.500000
768.764587	382.700000
768.801453	379.400000
768.838318	390.200000
768.875244	388.700000
768.912109	396.600000
768.948975	384.100000
768.985901	387.700000
769.022766	389.100000
769.059631	398.500000
769.096558	391.500000
769.133362	393.200000
769.170288	389.900000
769.207214	394.600000
769.244019	399.300000
769.280945	399.800000
769.317810	403.000000
769.354675	402.000000
769.391541	411.000000
769.428406	409.200000
769.465271	417.100000
769.502136	405.100000
769.539062	409.600000
769.575867	408.900000
769.612732	409.800000
769.649597	416.400000
769.686462	421.100000
769.723328	416.500000
769.760193	413.700000
769.797058	418.500000
769.833923	427.400000
769.870728	423.000000
769.907593	426.900000
769.944519	425.200000
769.981323	431.000000
770.018188	432.200000
770.055054	429.700000
770.091858	429.700000
770.128723	440.300000
770.165588	446.800000
770.202393	428.700000
770.239258	441.300000
770.276062	438.900000
770.312927	436.900000
770.349792	445.900000
770.386597	443.100000
770.423462	453.600000
770.460327	461.300000
770.497131	444.400000
770.533997	438.000000
770.570862	458.100000
770.607605	457.900000
770.644470	449.500000
770.681335	450.800000
770.718140	450.300000
770.754944	441.200000
770.791809	447.400000
770.828613	445.700000
770.865479	448.000000
770.902222	462.300000
770.939087	458.100000
770.975952	442.300000
771.012695	451.900000
771.049561	466.700000
771.086365	453.000000
771.123169	449.800000
771.159973	453.900000
771.196838	455.400000
771.233582	458.600000
771.270447	461.100000
771.307251	460.500000
771.344055	459.200000
771.380859	462.600000
771.417664	457.800000
771.454468	465.000000
771.491272	468.100000
771.528076	468.700000
771.564880	466.600000
771.601685	478.900000
771.638428	467.200000
771.675293	475.800000
771.712097	462.500000
771.748840	484.400000
771.785645	476.400000
771.822449	480.300000
771.859253	481.100000
771.896057	478.300000
771.932861	491.300000
771.969604	482.000000
772.006409	475.000000
772.043213	489.900000
772.079956	488.500000
772.116760	479.200000
772.153503	485.200000
772.190308	496.000000
772.227112	488.400000
772.263855	483.200000
772.300659	493.400000
772.337463	500.000000
772.374207	491.600000
772.411011	484.000000
772.447754	493.000000
772.484497	509.300000
772.521301	506.000000
772.558105	502.100000
772.594849	503.900000
772.631592	513.100000
772.668396	511.700000
772.705139	514.100000
772.741882	518.400000
772.778625	528.200000
772.815430	528.300000
772.852173	525.000000
772.888916	533.300000
772.925720	539.100000
772.962463	547.100000
772.999207	542.500000
773.035950	546.500000
773.072754	545.500000
773.109436	542.200000
773.146240	542.600000
773.182922	543.300000
773.219727	555.600000
773.256470	548.000000
773.293152	537.100000
773.329956	547.100000
773.366699	554.000000
773.403381	546.200000
773.440186	557.700000
773.476929	558.800000
773.513611	550.700000
773.550354	555.200000
773.587158	556.200000
773.623840	551.400000
773.660583	564.700000
773.697327	579.200000
773.734009	567.100000
773.770813	565.900000
773.807495	568.600000
773.844238	570.000000
773.880981	590.100000
773.917664	587.100000
773.954407	592.300000
773.991150	577.900000
774.027832	588.000000
774.064575	577.700000
774.101318	592.700000
774.138000	598.500000
774.174744	594.100000
774.211487	596.600000
774.248108	588.600000
774.284851	588.300000
774.321594	602.300000
774.358276	605.300000
774.395020	612.900000
774.431702	612.500000
774.468384	602.200000
774.505127	596.400000
774.541809	615.900000
774.578491	627.300000
774.615234	631.700000
774.651917	618.900000
774.688599	625.500000
774.725342	635.200000
774.762024	637.000000
774.798706	638.200000
774.835449	639.400000
774.872070	645.900000
774.908813	642.700000
774.945496	638.900000
774.982178	643.100000
775.018860	651.100000
775.055542	651.200000
775.092224	652.100000
775.128967	658.900000
775.165588	655.000000
775.202271	648.200000
775.239014	664.400000
775.275635	667.300000
775.312317	660.300000
775.349060	665.200000
775.385681	667.500000
775.422363	658.300000
775.459045	669.400000
775.495667	674.000000
775.532410	678.700000
775.569092	676.000000
775.605713	676.600000
775.642395	674.400000
775.679016	677.300000
775.715698	683.500000
775.752380	689.000000
775.789001	676.900000
775.825684	679.100000
775.862366	678.800000
775.898987	693.300000
775.935669	682.500000
775.972351	711.100000
776.008972	703.800000
776.045654	702.700000
776.082336	691.400000
776.118958	698.500000
776.155640	701.900000
776.192322	713.200000
776.228882	717.100000
776.265564	716.200000
776.302185	706.600000
776.338867	711.600000
776.375488	696.500000
776.412109	714.700000
776.448792	719.400000
776.485413	725.600000
776.522034	711.500000
776.558716	705.500000
776.595337	709.300000
776.631958	714.300000
776.668579	717.100000
776.705261	726.500000
776.741882	719.600000
776.778503	719.100000
776.815186	709.000000
776.851746	723.500000
776.888367	724.900000
776.924988	728.000000
776.961609	720.500000
776.998291	720.000000
777.034851	709.800000
777.071472	724.700000
777.108154	722.600000
777.144714	739.400000
777.181335	734.300000
777.218018	722.400000
777.254578	729.500000
777.291199	729.400000
777.327759	739.200000
777.364380	746.400000
777.401062	755.500000
777.437622	764.200000
777.474243	748.600000
777.510864	758.700000
777.547424	755.700000
777.584045	756.500000
777.620667	763.600000
777.657227	764.900000
777.693848	769.300000
777.730469	783.300000
777.767029	773.300000
777.803650	776.800000
777.840271	769.500000
777.876831	772.400000
777.913452	781.600000
777.950012	759.700000
777.986633	767.100000
778.023193	763.600000
778.059753	763.800000
778.096375	760.800000
778.132996	781.100000
778.169556	766.900000
778.206116	768.000000
778.242737	764.700000
778.279297	780.100000
778.315857	771.800000
778.352478	778.000000
778.389038	790.800000
778.425598	792.500000
778.462219	801.500000
778.498718	799.700000
778.535339	807.600000
778.571838	810.900000
778.608459	824.100000
778.645020	814.400000
778.681580	828.000000
778.718140	829.700000
778.754761	825.600000
778.791260	828.100000
778.827881	840.600000
778.864441	834.200000
778.900940	841.400000
778.937561	839.200000
778.974121	836.900000
779.010620	823.800000
779.047241	837.100000
779.083801	845.800000
779.120300	846.500000
779.156860	854.300000
779.193359	850.000000
779.229980	849.600000
779.266541	863.600000
779.303040	866.700000
779.339600	855.800000
779.376160	853.900000
779.412659	862.700000
779.449219	855.000000
779.485779	869.700000
779.522278	868.300000
779.558838	874.800000
779.595398	873.100000
779.631897	877.000000
779.668457	868.200000
779.705017	878.700000
779.741516	869.100000
779.778076	862.200000
779.814575	875.100000
779.851074	882.900000
779.887634	876.300000
779.924133	890.000000
779.960693	872.000000
779.997253	887.800000
780.033691	885.900000
780.070251	894.300000
780.106812	905.500000
780.143250	904.100000
780.179810	897.700000
780.216370	906.800000
780.252808	915.300000
780.289368	927.400000
780.325867	927.700000
780.362366	927.400000
780.398865	940.700000
780.435364	926.300000
780.471863	943.800000
780.508423	943.900000
780.544861	954.200000
780.581421	959.300000
780.617920	948.200000
780.654419	942.400000
780.690918	956.800000
780.727417	954.800000
780.763916	957.800000
780.800415	964.500000
780.836914	950.200000
780.873352	954.100000
780.909912	945.200000
780.946411	954.300000
780.982849	966.900000
781.019348	988.600000
781.055786	978.000000
781.092346	974.600000
781.128845	979.500000
781.165283	984.300000
781.201782	994.700000
781.238281	998.100000
781.274719	1011.000000
781.311218	990.200000
781.347717	1003.100000
781.384155	991.400000
781.420654	998.600000
781.457092	1004.400000
781.493591	1002.400000
781.530090	994.300000
781.566528	1002.200000
781.602966	1007.300000
781.639465	1001.500000
781.675903	996.200000
781.712402	1009.500000
781.748901	1019.000000
781.785278	1011.200000
781.821777	1020.100000
781.858276	1021.300000
781.894714	1028.200000
781.931152	1020.500000
781.967651	1028.000000
782.004089	1016.000000
782.040527	1021.200000
782.076965	1025.800000
782.113403	1027.500000
782.149902	1032.100000
782.186340	1031.300000
782.222778	1041.600000
782.259277	1028.300000
782.295654	1026.800000
782.332092	1033.900000
782.368591	1030.900000
782.404968	1016.500000
782.441467	1025.900000
782.477905	1028.100000
782.514282	1025.500000
782.550781	1045.100000
782.587219	1036.300000
782.623596	1039.700000
782.660095	1045.200000
782.696472	1052.100000
782.732910	1051.100000
782.769348	1062.000000
782.805786	1076.500000
782.842224	1070.800000
782.878662	1061.800000
782.915039	1067.200000
782.951477	1069.500000
782.987915	1058.800000
783.024292	1066.600000
783.060730	1065.600000
783.097168	1045.400000
783.133545	1043.000000
783.169983	1035.700000
783.206421	1036.900000
783.242798	1036.200000
783.279236	1025.000000
783.315613	1023.700000
783.352051	1014.400000
783.388489	1002.300000
783.424866	994.000000
783.461304	1003.900000
783.497681	1009.800000
783.534058	998.100000
783.570496	997.300000
783.606934	999.800000
783.643250	1006.600000
783.679687	1017.300000
783.716125	1014.500000
783.752441	1029.800000
783.788879	1047.100000
783.825317	1050.200000
783.861633	1061.600000
783.898071	1062.700000
783.934448	1077.400000
783.970825	1097.600000
784.007263	1100.300000
784.043579	1104.000000
784.080017	1110.700000
784.116394	1101.700000
784.152710	1107.400000
784.189148	1122.500000
784.225525	1124.100000
784.261902	1112.200000
784.298279	1101.500000
784.334656	1096.500000
784.371033	1087.600000
784.407410	1096.400000
784.443787	1080.100000
784.480164	1057.600000
784.516541	1035.800000
784.552856	1051.100000
784.589233	1040.000000
784.625610	1044.300000
784.661987	1072.000000
784.698364	1052.700000
784.734741	1047.200000
784.771057	1051.300000
784.807434	1052.300000
784.843811	1074.000000
784.880127	1079.700000
784.916504	1109.800000
784.952881	1102.700000
784.989197	1098.000000
785.025574	1099.800000
785.061951	1109.100000
785.098267	1145.300000
785.134644	1143.700000
785.170959	1137.800000
785.207275	1143.500000
785.243652	1143.200000
785.279968	1131.000000
785.316345	1140.700000
785.352722	1141.300000
785.388977	1147.600000
785.425354	1123.700000
785.461731	1098.600000
785.498047	1096.800000
785.534363	1095.000000
785.570679	1087.400000
785.606995	1096.200000
785.643372	1103.200000
785.679687	1080.600000
785.716003	1068.000000
785.752380	1068.200000
785.788635	1077.600000
785.825012	1101.800000
785.861328	1107.400000
785.897644	1092.200000
785.933960	1109.200000
785.970337	1117.500000
786.006592	1137.600000
786.042908	1148.600000
786.079285	1157.600000
786.115540	1170.100000
786.151855	1158.600000
786.188171	1160.200000
786.224487	1163.400000
786.260803	1164.900000
786.297119	1183.800000
786.333435	1181.500000
786.369751	1176.900000
786.406006	1176.200000
786.442322	1161.500000
786.478638	1156.500000
786.514954	1174.400000
786.551270	1177.500000
786.587585	1190.100000
786.623840	1172.200000
786.660156	1163.400000
786.696472	1145.100000
786.732727	1136.600000
786.769043	1142.800000
786.805298	1137.000000
786.841614	1141.900000
786.877930	1139.500000
786.914124	1120.800000
786.950439	1141.800000
786.986755	1148.100000
787.023010	1164.600000
787.059326	1176.800000
787.095642	1179.000000
787.131836	1197.200000
787.168152	1182.100000
787.204468	1188.500000
787.240723	1206.300000
787.276978	1222.100000
787.313293	1232.500000
787.349548	1228.900000
787.385803	1228.500000
787.422058	1218.900000
787.458313	1215.500000
787.494629	1219.600000
787.530823	1226.100000
787.567139	1212.900000
787.603455	1201.100000
787.639648	1178.200000
787.675903	1184.800000
787.712219	1188.300000
787.748413	1186.700000
787.784729	1194.300000
787.820984	1181.600000
787.857178	1165.100000
787.893494	1160.100000
787.929749	1154.600000
787.965942	1160.100000
788.002258	1180.000000
788.038452	1187.200000
788.074707	1169.400000
788.110962	1175.400000
788.147217	1170.100000
788.183472	1179.900000
788.219727	1186.500000
788.255920	1206.900000
788.292175	1212.300000
788.328430	1208.500000
788.364624	1190.900000
788.400879	1181.100000
788.437134	1194.900000
788.473328	1192.500000
788.509583	1187.100000
788.545837	1186.500000
788.582031	1177.800000
788.618286	1164.700000
788.654480	1156.900000
788.690735	1174.000000
788.726990	1193.000000
788.763184	1190.700000
788.799377	1200.300000
788.835632	1187.100000
788.871826	1207.800000
788.908081	1215.000000
788.944336	1206.900000
788.980469	1220.400000
789.016724	1220.900000
789.052979	1214.600000
789.089111	1197.600000
789.125366	1203.000000
789.161621	1175.400000
789.197754	1192.900000
789.234009	1184.000000
789.270142	1170.300000
789.306396	1159.900000
789.342590	1138.500000
789.378784	1111.800000
789.414978	1129.200000
789.451233	1147.000000
789.487366	1137.800000
789.523621	1153.700000
789.559814	1141.800000
789.595947	1131.300000
789.632202	1131.000000
789.668335	1148.800000
789.704529	1167.900000
789.740784	1192.600000
789.776917	1192.800000
789.813110	1171.700000
789.849304	1184.400000
789.885498	1194.000000
789.921692	1213.900000
789.957886	1225.900000
789.994019	1217.600000
790.030212	1209.600000
790.066406	1210.100000
790.102539	1212.100000
790.138733	1216.100000
790.174927	1213.600000
790.211060	1220.700000
790.247253	1204.600000
790.283386	1192.400000
790.319580	1177.200000
790.355774	1161.500000
790.391907	1165.600000
790.428101	1192.400000
790.464294	1195.700000
790.500427	1201.100000
790.536621	1180.600000
790.572754	1166.600000
790.608887	1164.800000
790.645081	1171.900000
790.681274	1190.700000
790.717346	1186.500000
790.753540	1150.600000
790.789734	1073.300000
790.825867	1012.500000
790.862000	1015.800000
790.898132	1070.800000
790.934265	1130.900000
790.970459	1193.500000
791.006592	1213.000000
791.042725	1214.800000
791.078918	1205.600000
791.114990	1208.300000
791.151184	1225.400000
791.187317	1248.300000
791.223389	1236.400000
791.259583	1221.600000
791.295715	1227.300000
791.331848	1231.200000
791.367981	1248.200000
791.404114	1263.300000
791.440247	1253.700000
791.476379	1254.200000
791.512451	1234.500000
791.548584	1232.900000
791.584778	1230.000000
791.620850	1244.300000
791.656982	1252.000000
791.693115	1248.900000
791.729187	1243.900000
791.765381	1230.100000
791.801514	1227.000000
791.837585	1231.200000
791.873718	1247.600000
791.909851	1261.500000
791.945923	1265.500000
791.982056	1221.200000
792.018188	1222.500000
792.054260	1229.600000
792.090393	1234.900000
792.126465	1227.000000
792.162598	1230.700000
792.198669	1214.000000
792.234741	1216.700000
792.270874	1203.200000
792.307007	1189.700000
792.343079	1194.200000
792.379150	1214.400000
792.415283	1197.500000
792.451355	1200.800000
792.487488	1175.000000
792.523560	1171.200000
792.559631	1172.500000
792.595764	1172.200000
792.631836	1186.900000
792.667908	1193.800000
792.703979	1177.100000
792.740051	1173.000000
792.776184	1176.600000
792.812256	1176.400000
792.848328	1178.600000
792.884399	1188.200000
792.920471	1190.400000
792.956543	1181.600000
792.992615	1178.500000
793.028748	1172.600000
793.064758	1182.700000
793.100830	1207.700000
793.136963	1216.300000
793.172974	1202.400000
793.209045	1193.700000
793.245178	1207.700000
793.281189	1194.700000
793.317261	1197.800000
793.353271	1202.900000
793.389404	1210.800000
793.425476	1205.100000
793.461487	1186.200000
793.497559	1182.800000
793.533630	1195.100000
793.569641	1200.900000
793.605713	1198.300000
793.641785	1199.800000
793.677795	1216.000000
793.713867	1200.900000
793.749878	1196.800000
793.785950	1214.000000
793.822021	1216.700000
793.858032	1207.900000
793.894104	1219.100000
793.930176	1199.800000
793.966187	1195.100000
794.002258	1186.200000
794.038269	1196.100000
794.074280	1194.600000
794.110352	1216.200000
794.146423	1192.400000
794.182373	1178.900000
794.218445	1167.700000
794.254517	1167.000000
794.290466	1149.600000
794.326538	1158.600000
794.362549	1157.400000
794.398560	1163.700000
794.434631	1169.500000
794.470581	1141.000000
794.506653	1130.000000
794.542664	1129.700000
794.578674	1127.700000
794.614685	1130.100000
794.650757	1122.600000
794.686707	1113.700000
794.722778	1106.500000
794.758789	1115.500000
794.794739	1120.200000
794.830811	1148.100000
794.866821	1166.600000
794.902771	1156.600000
794.938843	1143.100000
794.974792	1139.400000
795.010803	1141.700000
795.046814	1147.600000
795.082825	1129.600000
795.118835	1150.500000
795.154846	1124.600000
795.190796	1130.000000
795.226807	1103.500000
795.262817	1111.200000
795.298767	1108.700000
795.334778	1117.900000
795.370850	1100.200000
795.406799	1099.000000
795.442810	1078.000000
795.478821	1076.900000
795.514709	1076.800000
795.550720	1100.800000
795.586670	1083.700000
795.622681	1082.300000
795.658691	1083.200000
795.694641	1077.700000
795.730652	1064.500000
795.766663	1065.600000
795.802551	1067.400000
795.838562	1088.200000
795.874573	1071.400000
795.910522	1065.700000
795.946472	1061.000000
795.982483	1071.600000
796.018433	1074.400000
796.054382	1076.100000
796.090393	1064.800000
796.126282	1061.800000
796.162292	1049.600000
796.198242	1041.800000
796.234192	1047.700000
796.270203	1044.600000
796.306091	1051.600000
796.342041	1061.500000
796.378052	1043.800000
796.413940	1041.300000
796.449951	1048.200000
796.485901	1041.800000
796.521790	1045.100000
796.557800	1057.500000
796.593689	1051.900000
796.629639	1037.400000
796.665649	1034.100000
796.701599	1034.900000
796.737488	1035.200000
796.773437	1042.200000
796.809387	1040.800000
796.845337	1037.400000
796.881287	1023.700000
796.917175	1002.000000
796.953125	1008.600000
796.989075	1026.300000
797.024963	1027.400000
797.060913	1022.100000
797.096863	1024.800000
797.132751	1009.100000
797.168701	989.600000
797.204590	995.900000
797.240540	1003.700000
797.276489	1010.900000
797.312439	1018.400000
797.348328	1010.000000
797.384277	997.800000
797.420166	993.400000
797.456055	991.200000
797.492004	985.000000
797.527893	989.800000
797.563843	1002.100000
797.599731	992.000000
797.635620	975.300000
797.671570	981.700000
797.707520	982.700000
797.743347	976.000000
797.779297	992.700000
797.815125	985.700000
797.851074	972.600000
797.887024	968.000000
797.922913	957.400000
797.958801	972.100000
797.994690	974.700000
798.030579	983.700000
798.066467	982.400000
798.102356	961.700000
798.138245	959.700000
798.174133	951.400000
798.210083	959.200000
798.245911	963.700000
798.281799	967.700000
798.317749	959.200000
798.353577	949.500000
798.389465	945.000000
798.425293	946.200000
798.461243	937.300000
798.497131	947.600000
798.532959	945.400000
798.568848	952.100000
798.604736	940.100000
798.640564	929.600000
798.676453	926.800000
798.712402	935.400000
798.748230	941.200000
798.784119	936.000000
798.820007	933.800000
798.855835	929.200000
798.891724	925.300000
798.927551	924.300000
798.963379	933.400000
798.999268	924.800000
799.035095	919.000000
799.070984	915.600000
799.106873	904.500000
799.142700	914.300000
799.178528	905.800000
799.214417	904.200000
799.250244	924.200000
799.286133	916.600000
799.321960	909.500000
799.357788	899.500000
799.393677	906.700000
799.429504	904.100000
799.465332	905.300000
799.501221	908.500000
799.537048	907.500000
799.572876	895.000000
799.608704	897.100000
799.644531	901.600000
799.680359	906.700000
799.716248	909.000000
799.752014	914.000000
799.787903	903.700000
799.823730	901.600000
799.859558	888.200000
799.895386	895.100000
799.931213	890.500000
799.967041	880.400000
800.002869	875.000000
800.038696	893.800000
800.074463	868.000000
800.110352	873.700000
800.146179	864.400000
800.181946	872.800000
800.217773	875.500000
800.253540	865.700000
800.289429	863.800000
800.325256	854.700000
800.361023	846.400000
800.396851	854.300000
800.432678	854.300000
800.468445	853.500000
800.504272	842.100000
800.540100	822.300000
800.575867	827.600000
800.611694	834.400000
800.647461	824.700000
800.683289	829.800000
800.719116	833.200000
800.754883	824.900000
800.790649	811.100000
800.826477	806.200000
800.862244	822.400000
800.898071	804.100000
800.933838	804.200000
800.969604	803.800000
801.005432	800.000000
801.041199	798.100000
801.076965	793.000000
801.112793	786.700000
801.148560	773.000000
801.184326	777.400000
801.220154	777.500000
801.255859	767.700000
801.291687	772.100000
801.327454	762.400000
801.363281	757.900000
801.398987	756.500000
801.434814	758.100000
801.470520	767.200000
801.506287	752.000000
801.542114	745.700000
801.577820	750.600000
801.613647	745.500000
801.649414	738.600000
801.685120	735.200000
801.720886	749.100000
801.756714	734.200000
801.792419	725.400000
801.828186	721.700000
801.863892	730.100000
801.899719	721.800000
801.935486	719.400000
801.971252	727.700000
802.006958	723.400000
802.042725	714.400000
802.078430	714.500000
802.114197	705.900000
802.149963	720.500000
802.185669	710.800000
802.221436	709.000000
802.257202	708.100000
802.292908	707.200000
802.328674	712.900000
802.364441	711.900000
802.400146	706.700000
802.435913	697.200000
802.471558	695.500000
802.507324	691.400000
802.543091	688.900000
802.578796	698.500000
802.614502	700.300000
802.650269	705.100000
802.685974	680.400000
802.721741	686.200000
802.757446	687.200000
802.793152	685.200000
802.828918	697.100000
802.864624	689.700000
802.900330	689.900000
802.936035	680.400000
802.971802	681.300000
803.007446	680.200000
803.043213	673.300000
803.078857	674.600000
803.114624	660.300000
803.150330	667.700000
803.185974	656.100000
803.221741	655.200000
803.257446	668.500000
803.293152	662.200000
803.328857	658.600000
803.364563	655.600000
803.400208	647.500000
803.435974	651.900000
803.471680	646.200000
803.507324	642.400000
803.543030	652.000000
803.578735	649.100000
803.614441	640.200000
803.650146	647.300000
803.685791	630.000000
803.721497	636.100000
803.757202	625.700000
803.792847	636.200000
803.828552	626.300000
803.864258	627.400000
803.899902	622.600000
803.935608	605.700000
803.971313	615.700000
804.006958	612.400000
804.042664	609.300000
804.078308	615.500000
804.113953	606.300000
804.149658	610.900000
804.185364	604.200000
804.221008	614.600000
804.256714	602.600000
804.292297	603.000000
804.328003	598.000000
804.363708	590.100000
804.399292	592.500000
804.434998	594.100000
804.470703	584.200000
804.506287	598.800000
804.541992	585.400000
804.577637	591.100000
804.613281	580.100000
804.648926	576.000000
804.684570	582.300000
804.720215	576.900000
804.755920	574.500000
804.791565	572.100000
804.827209	575.500000
804.862854	572.700000
804.898437	563.900000
804.934143	566.000000
804.969788	564.200000
805.005371	567.700000
805.041077	566.600000
805.076721	566.400000
805.112305	552.300000
805.147949	559.800000
805.183655	553.800000
805.219238	557.000000
805.254883	552.800000
805.290466	561.700000
805.326111	550.500000
805.361755	541.700000
805.397400	546.700000
805.432983	552.200000
805.468628	553.200000
805.504211	559.000000
805.539856	553.900000
805.575500	559.800000
805.611084	549.300000
805.646729	535.900000
805.682373	538.500000
805.717957	552.300000
805.753601	551.200000
805.789246	531.500000
805.824768	542.000000
805.860413	544.700000
805.895996	532.500000
805.931641	531.100000
805.967224	537.700000
806.002869	533.100000
806.038452	544.400000
806.074036	540.600000
806.109619	524.400000
806.145264	525.000000
806.180847	527.400000
806.216431	523.600000
806.252014	526.500000
806.287659	524.700000
806.323181	534.300000
806.358826	526.800000
806.394409	507.600000
806.429993	510.200000
806.465576	525.900000
806.501160	507.900000
806.536743	501.000000
806.572327	510.500000
806.607910	508.800000
806.643494	505.400000
806.679077	499.700000
806.714661	503.300000
806.750244	503.800000
806.785828	496.100000
806.821350	498.100000
806.856934	500.700000
806.892517	495.600000
806.928101	489.800000
806.963684	490.300000
806.999268	500.100000
807.034790	481.200000
807.070374	488.800000
807.105896	482.600000
807.141479	477.400000
807.177063	490.000000
807.212585	477.000000
807.248169	477.500000
807.283752	485.600000
807.319275	477.800000
807.354858	473.100000
807.390381	470.100000
807.425903	471.600000
807.461487	466.500000
807.497070	462.600000
807.532593	461.300000
807.568115	460.300000
807.603699	460.300000
807.639221	454.300000
807.674744	458.300000
807.710266	459.600000
807.745850	462.800000
807.781372	454.000000
807.816895	449.800000
807.852417	455.100000
807.888000	452.700000
807.923523	446.700000
807.959045	453.900000
807.994629	441.700000
808.030090	439.300000
808.065613	447.700000
808.101135	447.500000
808.136658	444.400000
808.172241	437.300000
808.207764	438.700000
808.243225	432.000000
808.278809	427.600000
808.314270	438.500000
808.349792	422.900000
808.385315	424.000000
808.420837	433.900000
808.456360	432.000000
808.491882	432.000000
808.527344	424.200000
808.562866	435.800000
808.598389	429.100000
808.633850	423.000000
808.669434	418.300000
808.704895	426.300000
808.740417	430.700000
808.775940	421.800000
808.811462	416.800000
808.846924	410.500000
808.882385	406.000000
808.917847	404.300000
808.953369	407.700000
808.988892	400.800000
809.024353	413.000000
809.059875	410.000000
809.095398	404.500000
809.130798	398.800000
809.166321	399.400000
809.201843	396.600000
809.237305	397.400000
809.272766	405.400000
809.308228	389.900000
809.343750	390.700000
809.379211	393.000000
809.414734	393.400000
809.450134	403.000000
809.485657	383.900000
809.521118	391.700000
809.556580	386.500000
809.592102	388.300000
809.627502	380.300000
809.663025	382.000000
809.698486	375.500000
809.733887	374.000000
809.769409	376.600000
809.804871	365.400000
809.840271	370.000000
809.875793	373.500000
809.911194	376.600000
809.946655	371.500000
809.982178	363.900000
810.017639	368.300000
810.053040	363.900000
810.088501	361.800000
810.123901	362.100000
810.159424	359.100000
810.194885	355.300000
810.230286	362.400000
810.265747	353.300000
810.301208	349.000000
810.336609	352.400000
810.372070	345.500000
810.407532	349.800000
810.442932	350.500000
810.478394	355.000000
810.513794	351.100000
810.549255	348.900000
810.584717	346.000000
810.620117	341.800000
810.655518	347.200000
810.690979	344.600000
810.726379	345.100000
810.761841	336.200000
810.797302	339.400000
810.832642	336.700000
810.868103	347.500000
810.903564	334.900000
810.938904	343.300000
810.974365	329.300000
811.009827	334.700000
811.045166	330.600000
811.080627	321.700000
811.115967	328.200000
811.151428	336.600000
811.186829	328.600000
811.222229	329.200000
811.257629	320.800000
811.293091	327.300000
811.328430	334.500000
811.363892	327.600000
811.399292	331.300000
811.434631	322.600000
811.470093	328.500000
811.505493	321.100000
811.540833	322.700000
811.576294	324.500000
811.611694	321.400000
811.647034	316.000000
811.682434	319.800000
811.717773	320.100000
811.753235	324.200000
811.788635	316.100000
811.823975	318.900000
811.859375	326.600000
811.894775	310.600000
811.930115	313.200000
811.965515	314.800000
812.000916	319.400000
812.036255	314.400000
812.071655	317.700000
812.106995	309.900000
812.142395	311.200000
812.177795	317.600000
812.213196	314.000000
812.248474	313.500000
812.283875	307.200000
812.319214	309.700000
812.354614	309.100000
812.390015	307.100000
812.425293	306.000000
812.460693	307.600000
812.496094	304.600000
812.531433	297.300000
812.566772	298.800000
812.602173	303.100000
812.637451	302.300000
812.672852	299.500000
812.708191	302.800000
812.743530	295.700000
812.778931	289.700000
812.814270	293.000000
812.849609	301.300000
812.884949	292.200000
812.920227	288.400000
812.955627	302.100000
812.990967	294.500000
813.026306	288.100000
813.061646	281.400000
813.096985	275.500000
813.132324	277.700000
813.167664	280.400000
813.203003	286.700000
813.238281	272.400000
813.273682	274.100000
813.308960	271.000000
813.344299	275.500000
813.379639	279.800000
813.414978	276.600000
813.450256	273.700000
813.485596	278.400000
813.520874	269.500000
813.556213	276.400000
813.591614	278.000000
813.626831	270.500000
813.662170	274.800000
813.697510	284.100000
813.732788	265.300000
813.768127	274.200000
813.803467	272.500000
813.838745	267.800000
813.874084	272.200000
813.909363	270.900000
813.944641	271.800000
813.979980	261.500000
814.015320	266.900000
814.050598	262.800000
814.085876	267.700000
814.121155	265.500000
814.156494	263.400000
814.191772	264.000000
814.227051	260.400000
814.262390	263.900000
814.297668	262.700000
814.332947	265.200000
814.368225	257.000000
814.403564	260.600000
814.438782	258.000000
814.474121	260.100000
814.509338	255.400000
814.544617	262.700000
814.579956	257.100000
814.615173	264.000000
814.650513	262.100000
814.685791	253.200000
814.721008	258.300000
814.756348	255.000000
814.791626	253.300000
814.826843	249.900000
814.862122	253.500000
814.897400	249.500000
814.932678	254.700000
814.967957	251.300000
815.003235	251.800000
815.038452	243.800000
815.073730	243.800000
815.108948	254.700000
815.144226	250.300000
815.179504	254.400000
815.214722	240.300000
815.250000	239.500000
815.285278	248.100000
815.320496	241.000000
815.355774	243.800000
815.391052	246.500000
815.426270	242.100000
815.461487	241.900000
815.496765	238.100000
815.531982	230.900000
815.567261	240.400000
815.602539	249.200000
815.637695	243.700000
815.672974	243.200000
815.708191	243.900000
815.743408	244.200000
815.778687	237.200000
815.813904	249.300000
815.849121	229.800000
815.884399	233.600000
815.919556	231.100000
815.954834	233.300000
815.990051	236.600000
816.025269	241.300000
816.060486	231.300000
816.095703	231.000000
816.130920	232.100000
816.166199	230.600000
816.201416	234.500000
816.236572	241.200000
816.271851	230.500000
816.307007	238.600000
816.342224	225.600000
816.377441	230.400000
816.412659	221.500000
816.447876	233.500000
816.483093	228.200000
816.518250	229.700000
816.553467	226.500000
816.588745	232.000000
816.623901	222.400000
816.659119	219.500000
816.694275	224.000000
816.729492	220.800000
816.764709	256.500000
816.799927	217.800000
816.835083	223.100000
816.870300	217.800000
816.905457	220.300000
816.940674	225.700000
816.975830	218.300000
817.010986	217.100000
817.046204	217.500000
817.081421	214.600000
817.116577	215.000000
817.151733	225.600000
817.186951	223.500000
817.222107	219.900000
817.257324	225.000000
817.292419	220.800000
817.327637	212.100000
817.362854	218.300000
817.398010	213.400000
817.433167	214.400000
817.468323	215.000000
817.503479	214.700000
817.538635	223.100000
817.573853	218.400000
817.608948	217.200000
817.644165	211.400000
817.679321	212.100000
817.714478	210.200000
817.749634	216.700000
817.784790	227.700000
817.819946	222.700000
817.855103	204.500000
817.890198	214.400000
817.925415	204.700000
817.960571	214.400000
817.995667	211.000000
818.030823	215.700000
818.066040	207.900000
818.101135	212.800000
818.136292	210.700000
818.171448	206.800000
818.206543	208.800000
818.241699	214.000000
818.276855	208.800000
818.311951	210.800000
818.347107	204.900000
818.382263	213.200000
818.417358	216.500000
818.452515	218.200000
818.487610	216.700000
818.522766	205.000000
818.557922	217.800000
818.593018	213.000000
818.628113	208.800000
818.663269	204.100000
818.698364	208.700000
818.733521	205.500000
818.768677	212.400000
818.803711	203.300000
818.838867	204.100000
818.874023	207.100000
818.909058	204.300000
818.944214	202.200000
818.979370	210.700000
819.014404	206.900000
819.049561	203.300000
819.084595	208.800000
819.119751	199.900000
819.154846	209.500000
819.189941	204.600000
819.225037	200.900000
819.260193	195.400000
819.295227	199.500000
819.330322	194.500000
819.365479	193.900000
819.400513	228.300000
819.435608	194.400000
819.470764	192.300000
819.505798	195.100000
819.540894	200.100000
819.575989	196.500000
819.611084	206.800000
819.646179	207.300000
819.681213	203.200000
819.716309	197.300000
819.751404	199.200000
819.786438	202.400000
819.821533	197.400000
819.856628	199.600000
819.891663	203.500000
819.926758	208.400000
819.961853	207.300000
819.996887	195.800000
820.031982	203.100000
820.067017	196.500000
820.102112	227.600000
820.137207	197.200000
820.172302	215.400000
820.207275	195.800000
820.242371	194.700000
820.277405	193.900000
820.312500	199.100000
820.347534	201.700000
820.382568	203.500000
820.417664	196.500000
820.452759	197.000000
820.487732	193.200000
820.522827	197.000000
820.557861	193.300000
820.592896	196.600000
820.627930	196.700000
820.662964	195.400000
820.698059	200.100000
820.733093	196.100000
820.768127	200.600000
820.803162	195.900000
820.838196	194.400000
820.873230	198.600000
820.908264	197.800000
820.943298	193.400000
820.978333	202.100000
821.013367	196.300000
821.048401	202.100000
821.083435	201.700000
821.118469	188.400000
821.153503	200.700000
821.188477	198.100000
821.223511	189.300000
821.258484	197.800000
821.293579	198.000000
821.328613	190.000000
821.363647	194.200000
821.398621	191.800000
821.433655	191.700000
821.468628	208.800000
821.503662	194.700000
821.538696	198.000000
821.573669	188.200000
821.608704	199.800000
821.643677	192.700000
821.678650	201.100000
821.713684	204.600000
821.748718	193.500000
821.783691	194.000000
821.818726	197.800000
821.853638	196.500000
821.888672	194.200000
821.923706	195.600000
821.958618	193.300000
821.993652	192.000000
822.028687	199.400000
822.063599	201.900000
822.098633	197.300000
822.133667	191.400000
822.168579	193.200000
822.203613	195.800000
822.238586	192.400000
822.273560	197.600000
822.308533	192.000000
822.343567	193.600000
822.378479	194.200000
822.413452	193.800000
822.448425	191.000000
822.483398	199.700000
822.518372	200.500000
822.553345	193.400000
822.588318	202.700000
822.623291	194.200000
822.658203	191.500000
822.693237	194.500000
822.728210	190.500000
822.763123	197.100000
822.798096	191.100000
822.833069	195.200000
822.867981	192.500000
822.902954	196.200000
822.937927	197.700000
822.972900	207.200000
823.007874	185.800000
823.042725	199.600000
823.077698	206.500000
823.112671	190.400000
823.147583	192.100000
823.182556	198.400000
823.217529	199.200000
823.252441	193.300000
823.287415	207.500000
823.322388	198.500000
823.357239	193.900000
823.392212	203.800000
823.427185	198.800000
823.462097	191.400000
823.497009	197.400000
823.531982	193.900000
823.566895	195.400000
823.601807	189.900000
823.636719	192.600000
823.671631	198.500000
823.706604	192.800000
823.741455	198.300000
823.776428	189.100000
823.811340	200.400000
823.846252	202.200000
823.881165	203.000000
823.916138	197.400000
823.950989	203.800000
823.985901	192.700000
824.020813	195.700000
824.055725	193.400000
824.090637	191.700000
824.125610	198.100000
824.160461	195.100000
824.195374	198.700000
824.230225	201.200000
824.265198	188.700000
824.300110	192.100000
824.334961	206.500000
824.369873	185.900000
824.404785	197.900000
824.439636	201.800000
824.474548	187.400000
824.509460	183.300000
824.544312	200.800000
824.579224	197.500000
824.614075	199.500000
824.648987	193.000000
824.683899	195.400000
824.718811	190.800000
824.753662	203.600000
824.788574	200.000000
824.823364	197.400000
824.858276	191.000000
824.893188	202.600000
824.928040	199.500000
824.962952	197.500000
824.997803	199.700000
825.032654	196.400000
825.067566	198.200000
825.102417	192.600000
825.137268	192.400000
825.172119	195.900000
825.206970	191.400000
825.241882	194.000000
825.276733	191.500000
825.311646	192.400000
825.346436	189.000000
825.381348	190.000000
825.416138	196.200000
825.450989	191.100000
825.485901	186.200000
825.520691	186.100000
825.555542	188.100000
825.590454	194.800000
825.625244	186.600000
825.660095	202.000000
825.695007	199.100000
825.729797	192.900000
825.764648	190.900000
825.799438	193.000000
825.834290	195.900000
825.869202	188.800000
825.903992	198.300000
825.938843	190.500000
825.973694	189.500000
826.008484	206.700000
826.043335	189.800000
826.078186	184.300000
826.112976	201.900000
826.147827	199.700000
826.182678	204.700000
826.217468	185.900000
826.252319	198.500000
826.287109	188.900000
826.321899	201.800000
826.356750	191.100000
826.391541	189.600000
826.426392	198.000000
826.461182	195.300000
826.495972	187.000000
826.530823	185.800000
826.565613	193.700000
826.600403	189.700000
826.635254	196.400000
826.670044	186.300000
826.704834	185.500000
826.739685	189.300000
826.774475	195.000000
826.809265	195.000000
826.844055	191.600000
826.878906	200.300000
826.913635	195.000000
826.948425	196.000000
826.983215	194.800000
827.018005	198.600000
827.052856	192.900000
827.087585	197.300000
827.122375	185.700000
827.157227	194.600000
827.191956	206.500000
827.226746	189.800000
827.261536	197.700000
827.296265	187.400000
827.331116	193.000000
827.365906	198.400000
827.400635	189.300000
827.435425	185.800000
827.470215	201.300000
827.504944	191.600000
827.539734	198.800000
827.574463	193.000000
827.609253	201.600000
827.644043	193.400000
827.678772	200.800000
827.713562	191.900000
827.748352	193.400000
827.783081	190.300000
827.817871	195.200000
827.852600	188.900000
827.887329	197.200000
827.922119	183.500000
827.956848	198.000000
827.991638	205.800000
828.026367	196.200000
828.061157	194.300000
828.095886	193.900000
828.130615	207.500000
828.165344	184.500000
828.200073	193.100000
828.234863	191.500000
828.269592	192.400000
828.304321	200.200000
828.339111	195.100000
828.373779	190.600000
828.408569	197.900000
828.443298	198.100000
828.477966	190.500000
828.512756	194.900000
828.547424	187.100000
828.582214	191.800000
828.616943	190.900000
828.651672	191.500000
828.686340	197.300000
828.721130	189.900000
828.755798	192.000000
828.790527	193.500000
828.825256	194.600000
828.859924	192.700000
828.894714	201.200000
828.929443	201.700000
828.964111	190.400000
828.998840	198.200000
829.033569	191.000000
829.068237	190.500000
829.102966	191.200000
829.137634	195.300000
829.172363	195.200000
829.207092	193.700000
829.241821	190.300000
829.276489	186.500000
829.311157	194.600000
829.345825	190.900000
829.380554	197.700000
829.415283	188.200000
829.449951	187.900000
829.484619	200.600000
829.519348	202.200000
829.554016	192.700000
829.588745	193.000000
829.623413	187.100000
829.658081	205.700000
829.692749	186.500000
829.727417	199.900000
829.762146	194.800000
829.796814	189.900000
829.831482	190.500000
829.866150	195.500000
829.900879	189.700000
829.935486	196.600000
829.970154	191.100000
830.004883	204.500000
830.039490	193.100000
830.074219	190.800000
830.108887	193.000000
830.143494	192.800000
830.178223	186.800000
830.212891	192.500000
830.247498	192.900000
830.282166	201.300000
830.316772	199.000000
830.351501	190.100000
830.386169	192.100000
830.420776	192.500000
830.455444	192.600000
830.490112	189.000000
830.524719	185.000000
830.559387	195.400000
830.594055	197.100000
830.628662	193.300000
830.663330	192.700000
830.697998	200.800000
830.732605	191.400000
830.767273	194.600000
830.801941	193.900000
830.836487	203.100000
830.871155	195.400000
830.905762	195.000000
830.940430	187.200000
830.975098	189.700000
831.009644	195.300000
831.044312	201.600000
831.078979	196.300000
831.113525	183.100000
831.148193	194.100000
831.182861	192.600000
831.217407	195.800000
831.252075	210.400000
831.286621	191.100000
831.321289	188.400000
831.355896	193.100000
831.390564	200.700000
831.425110	195.600000
831.459778	199.700000
831.494324	206.700000
831.528931	196.000000
831.563599	197.800000
831.598145	186.500000
831.632751	193.300000
831.667419	191.500000
831.701965	195.400000
831.736572	197.000000
831.771179	186.700000
831.805786	191.500000
831.840393	200.100000
831.874939	184.900000
831.909546	198.700000
831.944153	186.800000
831.978760	191.500000
832.013306	187.300000
832.047913	199.100000
832.082458	200.600000
832.117065	190.000000
832.151672	201.800000
832.186218	194.800000
832.220825	197.100000
832.255432	185.100000
832.289978	189.300000
832.324585	197.000000
832.359192	195.800000
832.393677	192.300000
832.428284	195.000000
832.462830	190.400000
832.497437	192.600000
832.531982	196.400000
832.566589	194.100000
832.601135	194.100000
832.635681	186.200000
832.670227	192.000000
832.704773	202.300000
832.739380	195.300000
832.773926	193.200000
832.808472	188.900000
832.843079	194.800000
832.877563	196.300000
832.912170	190.900000
832.946716	184.900000
832.981201	199.300000
833.015808	195.300000
833.050293	193.600000
833.084839	189.300000
833.119446	192.200000
833.153992	197.700000
833.188477	193.700000
833.223022	188.500000
833.257568	195.300000
833.292114	200.500000
833.326660	205.400000
833.361145	190.800000
833.395691	186.600000
833.430237	192.200000
833.464783	195.500000
833.499329	189.400000
833.533875	187.400000
833.568359	197.600000
833.602905	199.300000
833.637390	198.800000
833.671875	191.700000
833.706421	193.400000
833.740906	189.400000
833.775452	183.300000
833.809998	191.300000
833.844482	200.300000
833.879028	193.700000
833.913513	191.300000
833.947998	193.700000
833.982544	189.600000
834.017090	191.700000
834.051514	183.300000
834.086060	196.000000
834.120544	193.800000
834.155029	195.300000
834.189575	192.800000
834.223999	194.700000
834.258545	195.200000
834.293030	195.000000
834.327515	195.400000
834.362000	189.500000
834.396545	198.500000
834.430969	192.100000
834.465454	197.900000
834.500000	184.200000
834.534424	195.800000
834.568970	182.700000
834.603455	185.900000
834.637878	188.500000
834.672363	193.300000
834.706909	193.100000
834.741333	194.400000
834.775818	184.400000
834.810242	189.600000
834.844727	193.800000
834.879211	191.900000
834.913635	193.100000
834.948181	193.800000
834.982666	193.600000
835.017090	191.200000
835.051575	195.700000
835.086060	190.500000
835.120483	196.900000
835.154907	196.800000
835.189331	191.600000
835.223816	195.600000
835.258301	187.400000
835.292786	188.900000
835.327209	198.700000
835.361694	189.200000
835.396057	190.800000
835.430542	197.600000
835.465027	195.000000
835.499390	187.400000
835.533875	212.000000
835.568359	191.700000
835.602722	185.600000
835.637207	195.100000
835.671692	188.300000
835.706055	209.600000
835.740540	195.500000
835.774902	195.000000
835.809387	193.900000
835.843811	186.200000
835.878235	201.500000
835.912659	186.900000
835.947083	191.000000
835.981506	192.100000
836.015930	186.600000
836.050354	196.700000
836.084778	203.300000
836.119202	197.100000
836.153625	206.000000
836.187988	188.900000
836.222473	190.700000
836.256897	194.200000
836.291260	193.200000
836.325684	194.400000
836.360046	192.600000
836.394470	192.400000
836.428894	199.700000
836.463318	189.700000
836.497681	196.900000
836.532104	199.900000
836.566467	193.600000
836.600891	191.800000
836.635315	198.600000
836.669678	196.400000
836.704102	197.900000
836.738525	193.800000
836.772888	184.600000
836.807251	190.200000
836.841675	194.600000
836.876038	187.900000
836.910461	189.300000
836.944763	197.700000
836.979187	189.300000
837.013611	198.900000
837.047974	185.700000
837.082336	204.400000
837.116699	196.800000
837.151062	192.100000
837.185486	187.000000
837.219849	192.300000
837.254211	197.400000
837.288574	191.900000
837.322937	187.500000
837.357300	180.500000
837.391663	205.100000
837.426086	199.300000
837.460388	192.900000
837.494751	198.700000
837.529114	191.400000
837.563477	198.800000
837.597839	194.600000
837.632141	193.800000
837.666565	188.800000
837.700928	197.400000
837.735229	196.700000
837.769592	196.400000
837.803955	197.800000
837.838257	190.300000
837.872620	188.400000
837.906982	201.800000
837.941284	193.100000
837.975647	194.200000
838.010010	199.800000
838.044312	191.600000
838.078674	190.400000
838.112976	193.100000
838.147339	196.200000
838.181702	192.500000
838.216003	202.500000
838.250366	195.100000
838.284668	195.100000
838.318970	185.000000
838.353333	193.400000
838.387634	190.700000
838.421936	193.500000
838.456299	194.800000
838.490601	201.000000
838.524902	196.300000
838.559265	198.300000
838.593567	197.300000
838.627869	186.900000
838.662170	196.600000
838.696472	187.200000
838.730774	189.700000
838.765137	199.600000
838.799377	178.900000
838.833740	194.600000
838.868042	199.600000
838.902283	186.100000
838.936646	198.100000
838.970947	196.800000
839.005188	198.800000
839.039551	187.700000
839.073792	199.800000
839.108093	191.500000
839.142395	203.100000
839.176697	187.200000
839.210937	194.300000
839.245300	206.200000
839.279541	186.100000
839.313843	192.300000
839.348145	195.100000
839.382385	199.000000
839.416687	197.200000
839.450989	196.700000
839.485229	191.700000
839.519531	188.600000
839.553833	198.700000
839.588013	193.600000
839.622314	193.700000
839.656555	196.800000
839.690857	192.100000
839.725159	187.100000
839.759460	191.200000
839.793640	190.800000
839.827942	191.400000
839.862183	189.700000
839.896423	195.300000
839.930725	202.000000
839.964966	200.600000
839.999207	199.900000
840.033508	200.900000
840.067688	191.900000
840.101990	203.000000
840.136230	193.800000
840.170471	201.300000
840.204712	190.800000
840.238953	188.900000
840.273193	195.500000
840.307434	197.300000
840.341736	188.700000
840.375916	186.700000
840.410217	189.900000
840.444397	198.300000
840.478638	195.900000
840.512878	200.900000
840.547119	194.200000
840.581360	196.500000
840.615601	202.700000
840.649780	203.700000
840.684021	194.400000
840.718262	203.500000
840.752441	197.300000
840.786682	196.400000
840.820862	196.100000
840.855103	203.000000
840.889343	193.900000
840.923584	199.700000
840.957764	195.900000
840.992004	196.700000
841.026184	208.100000
841.060425	192.600000
841.094666	189.000000
841.128845	197.300000
841.163025	193.700000
841.197266	196.900000
841.231445	195.700000
841.265686	194.200000
841.299866	188.100000
841.334045	202.500000
841.368286	192.100000
841.402405	202.300000
841.436646	197.600000
841.470825	192.300000
841.505005	193.500000
841.539185	189.900000
841.573425	190.800000
841.607544	194.500000
841.641785	194.100000
841.675964	188.400000
841.710144	196.400000
841.744324	191.300000
841.778503	193.100000
841.812683	190.100000
841.846863	204.800000
841.881042	200.500000
841.915222	192.800000
841.949402	208.800000
841.983521	184.900000
842.017700	192.500000
842.051880	196.100000
842.086060	196.700000
842.120239	196.100000
842.154419	191.700000
842.188538	194.800000
842.222717	192.000000
842.256897	205.200000
842.291016	192.300000
842.325195	197.900000
842.359375	205.500000
842.393494	203.700000
842.427673	194.600000
842.461853	198.600000
842.495911	202.100000
842.530090	197.400000
842.564209	193.100000
842.598389	196.200000
842.632568	193.500000
842.666626	197.600000
842.700806	190.300000
842.734985	191.700000
842.769043	198.500000
842.803223	192.500000
842.837402	192.700000
842.871460	191.400000
842.905640	201.800000
842.939697	191.400000
842.973877	196.300000
843.007996	200.200000
843.042175	201.900000
843.076233	192.500000
843.110413	196.000000
843.144470	202.700000
843.178589	198.100000
843.212769	190.300000
843.246826	199.200000
843.280945	193.200000
843.315125	193.400000
843.349182	190.100000
843.383301	201.300000
843.417419	206.800000
843.451538	194.000000
843.485657	193.100000
843.519714	192.800000
843.553833	197.100000
843.587952	191.900000
843.622070	189.700000
843.656128	198.100000
843.690247	192.400000
843.724304	192.200000
843.758423	195.600000
843.792542	193.500000
843.826599	194.800000
843.860718	195.000000
843.894836	185.900000
843.928894	194.900000
843.963013	194.800000
843.997070	192.000000
844.031128	187.500000
844.065247	201.500000
844.099304	198.900000
844.133362	196.600000
844.167480	197.300000
844.201599	203.400000
844.235596	195.900000
844.269714	196.200000
844.303711	197.800000
844.337830	188.000000
844.371948	197.300000
844.405945	193.200000
844.440063	188.600000
844.474121	209.400000
844.508118	193.800000
844.542236	193.800000
844.576294	192.900000
844.610352	189.200000
844.644409	193.100000
844.678406	186.700000
844.712524	199.100000
844.746582	201.000000
844.780640	194.300000
844.814636	194.000000
844.848755	206.000000
844.882751	192.300000
844.916809	200.300000
844.950867	197.000000
844.984863	202.800000
845.018921	193.700000
845.052979	190.400000
845.086975	195.300000
845.121033	188.700000
845.155090	189.200000
845.189087	201.200000
845.223145	192.500000
845.257141	194.800000
845.291199	197.700000
845.325256	203.000000
845.359253	194.700000
845.393250	205.400000
845.427307	191.000000
845.461304	198.200000
845.495361	196.200000
845.529358	205.600000
845.563354	191.900000
845.597412	192.000000
845.631409	201.500000
845.665405	202.600000
845.699463	201.300000
845.733459	193.800000
845.767456	200.200000
845.801453	193.500000
845.835449	201.600000
845.869446	198.500000
845.903503	199.300000
845.937439	191.400000
845.971497	200.800000
846.005493	188.700000
846.039429	199.500000
846.073486	204.400000
846.107483	193.300000
846.141418	194.100000
846.175476	194.100000
846.209473	201.900000
846.243408	191.700000
846.277405	196.000000
846.311401	190.200000
846.345337	196.900000
846.379395	200.000000
846.413330	192.300000
846.447327	202.600000
846.481323	189.800000
846.515259	191.500000
846.549255	195.900000
846.583252	197.100000
846.617187	189.800000
846.651184	197.800000
846.685120	192.100000
846.719055	202.900000
846.753052	199.100000
846.786987	198.900000
846.820984	188.900000
846.854980	203.200000
846.888916	189.500000
846.922852	198.800000
846.956848	202.900000
846.990723	190.900000
847.024719	195.600000
847.058716	194.700000
847.092590	201.400000
847.126587	195.900000
847.160522	191.900000
847.194458	199.800000
847.228455	190.200000
847.262390	190.300000
847.296265	191.700000
847.330261	203.300000
847.364136	192.500000
847.398132	192.300000
847.432068	193.300000
847.466003	193.800000
847.499939	192.600000
847.533875	198.200000
847.567749	192.400000
847.601746	194.700000
847.635681	198.700000
847.669556	187.100000
847.703491	199.300000
847.737427	209.600000
847.771301	188.900000
847.805237	195.600000
847.839233	195.100000
847.873108	195.400000
847.907043	193.600000
847.940918	202.600000
847.974854	197.000000
848.008789	199.500000
848.042664	195.300000
848.076538	196.900000
848.110474	194.300000
848.144348	197.400000
848.178284	188.900000
848.212219	196.700000
848.246094	192.800000
848.279968	195.900000
848.313904	199.500000
848.347778	196.100000
848.381653	195.100000
848.415588	192.000000
848.449463	192.600000
848.483337	198.000000
848.517212	201.500000
848.551086	195.500000
848.585022	191.900000
848.618835	203.100000
848.652771	193.800000
848.686646	190.200000
848.720520	205.100000
848.754395	194.600000
848.788330	199.700000
848.822144	198.800000
848.856018	194.700000
848.889954	202.700000
848.923767	191.200000
848.957642	190.300000
848.991577	200.300000
849.025391	191.900000
849.059265	196.000000
849.093079	192.700000
849.126953	190.100000
849.160828	199.200000
849.194641	197.200000
849.228577	191.100000
849.262451	195.000000
849.296265	193.400000
849.330139	190.300000
849.364014	196.300000
849.397827	197.700000
849.431702	196.200000
849.465515	198.900000
849.499329	187.600000
849.533203	190.500000
849.567078	184.500000
849.600891	198.400000
849.634766	193.900000
849.668518	199.800000
849.702393	195.700000
849.736267	188.900000
849.770020	207.700000
849.803894	198.700000
849.837769	196.300000
849.871521	194.800000
849.905396	201.300000
849.939270	190.900000
849.973022	193.700000
850.006897	197.400000
850.040710	198.700000
850.074524	198.000000
850.108337	193.300000
850.142151	199.000000
850.175964	202.000000
850.209778	195.200000
850.243530	182.800000
850.277405	199.900000
850.311218	195.700000
850.344971	191.500000
850.378845	204.400000
850.412659	191.800000
850.446411	196.100000
850.480225	194.300000
850.514038	201.900000
850.547791	195.700000
850.581665	194.900000
850.615417	191.700000
850.649231	196.400000
850.683044	193.400000
850.716858	194.500000
850.750610	194.800000
850.784424	199.100000
850.818176	192.300000
850.851929	193.100000
850.885742	191.600000
850.919495	194.600000
850.953308	200.400000
850.987122	202.300000
851.020874	189.700000
851.054626	186.500000
851.088440	199.000000
851.122192	200.700000
851.156006	195.100000
851.189697	193.200000
851.223511	190.500000
851.257263	200.000000
851.291077	198.700000
851.324829	193.400000
851.358582	192.100000
851.392334	193.100000
851.426086	194.200000
851.459900	202.300000
851.493591	196.400000
851.527344	195.700000
851.561157	194.200000
851.594849	197.600000
851.628662	197.900000
851.662415	203.000000
851.696106	197.600000
851.729858	199.000000
851.763611	190.100000
851.797363	194.600000
851.831116	191.900000
851.864868	195.900000
851.898560	199.900000
851.932312	192.500000
851.966064	197.900000
851.999817	194.400000
852.033569	194.800000
852.067261	197.400000
852.101013	191.600000
852.134766	195.200000
852.168457	184.700000
852.202209	198.400000
852.235901	191.500000
852.269592	197.500000
852.303345	206.500000
852.337036	198.500000
852.370789	195.000000
852.404541	198.900000
852.438171	191.800000
852.471924	194.500000
852.505676	189.800000
852.539307	196.500000
852.573059	191.000000
852.606812	191.600000
852.640442	193.500000
852.674194	199.700000
852.707886	205.700000
852.741577	203.500000
852.775269	189.600000
852.809021	196.100000
852.842651	196.700000
852.876404	200.300000
852.910034	195.900000
852.943787	202.000000
852.977478	198.500000
853.011108	191.500000
853.044861	192.300000
853.078552	203.200000
853.112183	197.700000
853.145874	197.900000
853.179626	185.600000
853.213257	196.500000
853.246948	192.200000
853.280640	204.300000
853.314270	194.700000
853.347961	203.200000
853.381653	197.500000
853.415283	200.600000
853.448975	190.700000
853.482605	197.300000
853.516296	194.400000
853.549988	190.900000
853.583618	194.400000
853.617310	197.600000
853.651001	196.900000
853.684631	190.900000
853.718323	190.500000
853.751953	203.500000
853.785583	185.400000
853.819275	199.400000
853.852966	195.700000
853.886536	186.200000
853.920227	189.000000
853.953918	199.900000
853.987488	192.200000
854.021179	200.300000
854.054749	202.800000
854.088440	197.700000
854.122131	190.100000
854.155701	200.200000
854.189331	190.800000
854.223022	197.900000
854.256592	198.200000
854.290283	190.800000
854.323914	199.100000
854.357483	196.700000
854.391174	198.000000
854.424744	205.200000
854.458374	197.000000
854.492065	205.300000
854.525696	196.900000
854.559265	201.300000
854.592896	206.800000
854.626465	195.700000
854.660095	197.100000
854.693787	196.500000
854.727356	194.200000
854.760986	199.200000
854.794617	196.900000
854.828186	193.500000
854.861816	198.600000
854.895447	195.300000
854.929016	198.500000
854.962585	197.800000
854.996155	204.800000
855.029785	197.300000
855.063416	199.700000
855.097046	199.300000
855.130615	190.400000
855.164185	201.300000
855.197754	196.600000
855.231384	197.000000
855.264954	194.800000
855.298523	198.500000
855.332153	197.000000
855.365723	202.800000
855.399292	191.700000
855.432922	194.100000
855.466492	197.300000
855.500061	190.300000
855.533630	192.000000
855.567200	199.800000
855.600769	200.100000
855.634338	198.500000
855.667969	197.200000
855.701477	190.500000
855.735046	191.400000
855.768616	187.300000
855.802185	196.800000
855.835754	211.400000
855.869324	188.000000
855.902893	194.400000
855.936401	202.100000
855.969971	195.800000
856.003540	188.700000
856.037109	199.200000
856.070618	196.000000
856.104187	188.500000
856.137695	192.400000
856.171265	186.600000
856.204834	194.100000
856.238403	202.000000
856.271912	193.400000
856.305481	197.300000
856.338989	188.700000
856.372559	198.900000
856.406128	196.700000
856.439636	201.200000
856.473145	193.400000
856.506653	202.500000
856.540222	194.900000
856.573792	205.000000
856.607300	198.000000
856.640808	190.600000
856.674377	196.400000
856.707825	224.000000
856.741394	199.600000
856.774902	192.900000
856.808472	184.900000
856.841980	198.500000
856.875488	203.200000
856.908936	188.900000
856.942505	192.900000
856.976013	195.100000
857.009521	189.900000
857.043030	196.700000
857.076477	193.400000
857.110046	199.600000
857.143555	196.200000
857.177063	202.300000
857.210571	192.500000
857.244080	189.500000
857.277527	198.000000
857.311035	194.800000
857.344543	199.300000
857.378052	194.600000
857.411499	200.900000
857.445068	206.700000
857.478516	194.900000
857.512024	190.000000
857.545532	192.800000
857.578979	196.300000
857.612427	195.700000
857.645874	192.200000
857.679382	196.800000
857.712891	198.900000
857.746399	195.800000
857.779846	200.400000
857.813354	199.700000
857.846741	194.400000
857.880249	191.200000
857.913757	196.300000
857.947266	198.200000
857.980652	198.000000
858.014160	193.400000
858.047546	193.400000
858.081055	195.500000
858.114563	204.000000
858.147949	191.200000
858.181458	199.300000
858.214844	194.900000
858.248352	186.600000
858.281799	202.000000
858.315308	207.600000
858.348694	198.100000
858.382141	204.600000
858.415588	200.400000
858.449036	201.000000
858.482483	198.100000
858.515930	191.400000
858.549377	196.200000
858.582825	202.900000
858.616211	199.300000
858.649658	197.600000
858.683105	189.700000
858.716553	192.400000
858.750000	189.300000
858.783386	193.000000
858.816833	188.300000
858.850281	197.200000
858.883728	199.700000
858.917114	193.300000
858.950562	204.800000
858.983948	204.300000
859.017395	199.500000
859.050781	194.800000
859.084167	191.300000
859.117615	188.900000
859.151062	198.600000
859.184448	192.700000
859.217834	193.400000
859.251282	193.300000
859.284668	191.500000
859.318054	185.100000
859.351440	192.400000
859.384888	204.500000
859.418274	185.900000
859.451721	188.000000
859.485046	198.000000
859.518494	196.100000
859.551819	192.100000
859.585266	199.300000
859.618652	197.200000
859.652039	190.400000
859.685425	191.200000
859.718811	189.200000
859.752197	183.300000
859.785583	204.200000
859.819031	202.600000
859.852356	199.500000
859.885742	191.300000
859.919067	193.800000
859.952454	191.600000
859.985901	200.300000
860.019287	192.000000
860.052612	0.000000
860.085999	0.000000
860.119324	0.000000
860.152710	0.000000
860.186096	0.000000
860.219421	0.000000
860.252808	0.000000
860.286133	0.000000
860.319519	0.000000
860.352905	0.000000
860.386292	0.000000
860.419617	0.000000
860.452942	0.000000
860.486267	0.000000
860.519653	0.000000
860.553040	0.000000
860.586365	0.000000
860.619690	0.000000
860.653076	0.000000
860.686340	0.000000
860.719727	0.000000
860.753113	0.000000
860.786377	0.000000
860.819763	0.000000
860.853027	0.000000
860.886414	0.000000
860.919739	0.000000
860.953125	0.000000
860.986389	0.000000
861.019714	0.000000
861.053040	0.000000
861.086365	0.000000
861.119690	0.000000
861.153076	0.000000
861.186340	0.000000
861.219666	0.000000
861.252930	0.000000
861.286316	0.000000
861.319641	0.000000
861.352905	0.000000
861.386230	0.000000
861.419495	0.000000
861.452820	0.000000
861.486145	0.000000
861.519470	0.000000
861.552734	0.000000
861.586060	0.000000
861.619324	0.000000
861.652649	0.000000
861.685974	0.000000
861.719238	0.000000
861.752563	0.000000
861.785828	0.000000
861.819092	0.000000
861.852417	0.000000
861.885742	0.000000
861.918945	0.000000
861.952271	0.000000
861.985535	0.000000
862.018799	0.000000
862.052124	0.000000
862.085449	0.000000
862.118652	0.000000
862.151978	0.000000
862.185181	0.000000
862.218506	0.000000
862.251770	0.000000
862.285034	0.000000
862.318298	0.000000
862.351562	0.000000
862.384827	0.000000
862.418091	0.000000
862.451355	0.000000
862.484619	0.000000
862.517883	0.000000
862.551086	0.000000
862.584351	0.000000
862.617676	0.000000
862.650940	0.000000
862.684143	0.000000
862.717407	0.000000
862.750610	0.000000
862.783875	0.000000
862.817139	0.000000
862.850342	0.000000
862.883606	0.000000
862.916870	0.000000
862.950073	0.000000
862.983337	0.000000
863.016602	0.000000
863.049805	0.000000
863.083069	0.000000
863.116211	0.000000
863.149475	0.000000
863.182739	0.000000
863.216003	0.000000
863.249146	0.000000
863.282410	0.000000
863.315613	0.000000
863.348816	0.000000
863.382080	0.000000
863.415222	0.000000
863.448486	0.000000
863.481689	0.000000
863.514893	0.000000
863.548157	0.000000
863.581360	0.000000
863.614502	0.000000
863.647766	0.000000
863.680908	0.000000
863.714172	0.000000
863.747375	0.000000
863.780579	0.000000
863.813721	0.000000
863.846985	0.000000
863.880127	0.000000
863.913330	0.000000
863.946533	0.000000
863.979675	0.000000
864.012939	0.000000
