Model Number: SPM-001-M   
Serial Number: 10090201
Firmware Version: 004.17.6
Exposure Time: 500000.000000us
Data Taken on: 10-03-2021 12:08:11.486
Wavelength	Amplitude
733.770752	0.000000
733.808716	0.000000
733.846619	0.000000
733.884583	0.000000
733.922546	0.000000
733.960449	0.000000
733.998413	0.000000
734.036377	0.000000
734.074219	0.000000
734.112183	0.000000
734.150085	0.000000
734.188049	0.000000
734.226013	0.000000
734.263916	0.000000
734.301819	0.000000
734.339783	0.000000
734.377686	0.000000
734.415588	0.000000
734.453552	0.000000
734.491455	0.000000
734.529419	0.000000
734.567322	0.000000
734.605225	0.000000
734.643127	0.000000
734.681091	0.000000
734.718994	0.000000
734.756897	0.000000
734.794800	0.000000
734.832703	0.000000
734.870667	0.000000
734.908508	0.000000
734.946472	0.000000
734.984375	0.000000
735.022278	0.000000
735.060181	0.000000
735.098083	0.000000
735.135986	0.000000
735.173889	0.000000
735.211792	0.000000
735.249695	0.000000
735.287598	0.000000
735.325439	0.000000
735.363403	0.000000
735.401306	0.000000
735.439148	0.000000
735.477051	0.000000
735.515015	0.000000
735.552856	0.000000
735.590759	0.000000
735.628662	0.000000
735.666504	0.000000
735.704407	0.000000
735.742310	0.000000
735.780212	0.000000
735.818115	0.000000
735.856018	0.000000
735.893860	0.000000
735.931763	0.000000
735.969604	0.000000
736.007507	0.000000
736.045410	0.000000
736.083252	0.000000
736.121094	0.000000
736.158997	0.000000
736.196838	0.000000
736.234741	0.000000
736.272644	0.000000
736.310486	0.000000
736.348389	0.000000
736.386230	0.000000
736.424072	0.000000
736.461975	0.000000
736.499878	0.000000
736.537720	0.000000
736.575562	0.000000
736.613403	0.000000
736.651306	0.000000
736.689148	0.000000
736.726990	0.000000
736.764893	0.000000
736.802734	0.000000
736.840576	0.000000
736.878418	0.000000
736.916321	0.000000
736.954102	0.000000
736.992004	0.000000
737.029846	0.000000
737.067688	0.000000
737.105530	0.000000
737.143372	0.000000
737.181213	0.000000
737.219116	0.000000
737.256897	0.000000
737.294739	0.000000
737.332642	0.000000
737.370422	0.000000
737.408325	0.000000
737.446167	0.000000
737.483948	0.000000
737.521790	0.000000
737.559692	0.000000
737.597473	0.000000
737.635315	0.000000
737.673157	0.000000
737.710999	0.000000
737.748840	0.000000
737.786621	0.000000
737.824463	0.000000
737.862305	0.000000
737.900085	0.000000
737.937927	0.000000
737.975769	0.000000
738.013550	0.000000
738.051392	0.000000
738.089233	0.000000
738.127014	0.000000
738.164856	0.000000
738.202698	0.000000
738.240479	0.000000
738.278320	0.000000
738.316162	0.000000
738.353943	0.000000
738.391785	0.000000
738.429565	0.000000
738.467407	0.000000
738.505188	0.000000
738.542969	0.000000
738.580811	0.000000
738.618652	0.000000
738.656372	0.000000
738.694214	0.000000
738.732056	0.000000
738.769836	0.000000
738.807617	0.000000
738.845459	0.000000
738.883240	0.000000
738.921021	0.000000
738.958862	0.000000
738.996582	0.000000
739.034424	0.000000
739.072205	0.000000
739.109985	0.000000
739.147827	0.000000
739.185547	0.000000
739.223389	0.000000
739.261169	0.000000
739.298889	0.000000
739.336731	0.000000
739.374512	0.000000
739.412292	0.000000
739.450073	0.000000
739.487854	0.000000
739.525635	0.000000
739.563416	0.000000
739.601135	0.000000
739.638977	0.000000
739.676758	0.000000
739.714478	0.000000
739.752258	0.000000
739.790100	0.000000
739.827820	0.000000
739.865601	0.000000
739.903381	0.000000
739.941101	0.000000
739.978882	196.000000
740.016724	191.200000
740.054443	197.400000
740.092224	188.700000
740.130005	188.400000
740.167725	189.500000
740.205505	189.500000
740.243225	200.200000
740.281006	194.300000
740.318787	186.300000
740.356506	198.700000
740.394287	197.500000
740.432068	188.800000
740.469727	186.600000
740.507507	197.800000
740.545288	191.600000
740.583008	195.000000
740.620789	193.100000
740.658569	185.600000
740.696228	191.500000
740.734009	198.700000
740.771790	180.100000
740.809509	196.100000
740.847229	187.300000
740.884949	190.100000
740.922729	185.500000
740.960449	190.900000
740.998169	187.400000
741.035950	189.100000
741.073669	194.500000
741.111389	194.000000
741.149170	203.700000
741.186890	201.200000
741.224609	197.000000
741.262329	195.100000
741.300110	203.100000
741.337769	187.000000
741.375549	186.700000
741.413208	195.400000
741.450989	189.400000
741.488708	189.900000
741.526367	190.900000
741.564148	196.900000
741.601868	197.900000
741.639526	192.900000
741.677307	194.300000
741.715027	195.600000
741.752686	188.700000
741.790466	199.300000
741.828186	196.700000
741.865845	189.400000
741.903564	182.900000
741.941345	192.500000
741.979004	189.300000
742.016724	196.500000
742.054382	194.300000
742.092102	198.400000
742.129822	186.300000
742.167480	190.600000
742.205200	192.800000
742.242920	193.900000
742.280640	198.300000
742.318359	188.900000
742.356079	190.200000
742.393738	196.400000
742.431396	191.300000
742.469116	196.000000
742.506775	183.300000
742.544495	194.800000
742.582214	197.700000
742.619873	191.800000
742.657593	201.000000
742.695251	197.000000
742.732971	192.600000
742.770630	195.500000
742.808289	192.900000
742.846008	192.900000
742.883728	194.700000
742.921326	192.300000
742.959045	190.500000
742.996765	192.400000
743.034424	193.000000
743.072083	190.300000
743.109802	192.600000
743.147400	186.400000
743.185120	193.700000
743.222839	192.000000
743.260437	199.700000
743.298157	195.100000
743.335754	185.400000
743.373474	190.600000
743.411133	184.600000
743.448792	192.500000
743.486450	193.700000
743.524170	184.500000
743.561768	193.400000
743.599487	199.200000
743.637146	203.500000
743.674744	191.300000
743.712463	190.600000
743.750122	194.000000
743.787720	196.000000
743.825439	187.800000
743.863037	189.700000
743.900696	192.800000
743.938416	217.200000
743.976013	192.800000
744.013672	200.100000
744.051331	198.500000
744.088928	202.900000
744.126587	200.100000
744.164307	192.500000
744.201904	191.300000
744.239563	196.600000
744.277222	195.200000
744.314819	193.000000
744.352478	201.300000
744.390137	193.900000
744.427734	195.000000
744.465393	190.800000
744.502991	189.800000
744.540649	195.500000
744.578308	194.700000
744.615906	187.200000
744.653564	181.900000
744.691223	197.500000
744.728821	186.200000
744.766418	192.900000
744.804077	196.200000
744.841675	189.700000
744.879333	186.800000
744.916992	192.400000
744.954529	191.200000
744.992187	200.200000
745.029785	191.800000
745.067444	188.700000
745.105042	193.900000
745.142639	196.600000
745.180298	201.800000
745.217896	190.600000
745.255493	192.000000
745.293152	197.800000
745.330750	196.400000
745.368347	202.300000
745.405945	197.400000
745.443604	193.000000
745.481140	197.400000
745.518799	192.100000
745.556396	197.300000
745.593994	197.100000
745.631592	192.400000
745.669189	188.300000
745.706787	194.600000
745.744385	188.700000
745.781982	194.700000
745.819580	191.200000
745.857178	191.600000
745.894775	193.600000
745.932373	193.600000
745.969971	194.300000
746.007568	184.300000
746.045166	202.700000
746.082764	198.200000
746.120300	196.500000
746.157898	197.300000
746.195557	192.900000
746.233093	184.400000
746.270691	197.000000
746.308228	195.900000
746.345825	197.800000
746.383423	196.700000
746.420959	189.200000
746.458557	190.400000
746.496155	189.800000
746.533691	192.200000
746.571289	188.100000
746.608887	193.100000
746.646423	194.400000
746.684021	194.200000
746.721619	189.600000
746.759155	195.900000
746.796753	186.400000
746.834351	186.300000
746.871826	188.700000
746.909424	199.300000
746.946960	195.300000
746.984558	191.500000
747.022156	192.100000
747.059631	200.800000
747.097229	195.000000
747.134827	191.100000
747.172363	201.100000
747.209900	194.100000
747.247498	188.400000
747.285034	201.900000
747.322571	200.900000
747.360168	192.900000
747.397644	184.300000
747.435242	196.900000
747.472778	199.800000
747.510315	190.100000
747.547913	190.300000
747.585388	201.000000
747.622925	191.100000
747.660522	183.800000
747.697998	189.100000
747.735596	193.800000
747.773132	189.400000
747.810669	192.700000
747.848206	197.500000
747.885742	188.900000
747.923279	187.600000
747.960815	196.800000
747.998352	192.500000
748.035889	199.500000
748.073425	196.300000
748.110901	190.900000
748.148437	188.200000
748.185974	194.300000
748.223511	204.700000
748.261047	194.400000
748.298584	195.300000
748.336060	192.800000
748.373596	196.200000
748.411133	211.500000
748.448608	188.800000
748.486145	198.200000
748.523682	200.700000
748.561218	198.200000
748.598755	194.600000
748.636292	197.100000
748.673706	190.600000
748.711243	198.700000
748.748718	194.300000
748.786255	194.000000
748.823792	193.700000
748.861267	187.900000
748.898804	196.200000
748.936340	195.400000
748.973816	193.000000
749.011292	199.100000
749.048828	196.400000
749.086304	195.500000
749.123840	206.000000
749.161316	188.700000
749.198792	204.000000
749.236328	199.900000
749.273743	194.500000
749.311279	191.000000
749.348816	195.700000
749.386230	193.700000
749.423767	182.300000
749.461304	196.200000
749.498718	193.700000
749.536255	200.500000
749.573730	206.300000
749.611206	197.800000
749.648682	192.600000
749.686218	192.800000
749.723633	199.000000
749.761169	191.200000
749.798645	189.500000
749.836060	191.400000
749.873596	189.200000
749.911011	192.400000
749.948547	199.300000
749.986023	192.900000
750.023437	192.100000
750.060913	186.300000
750.098450	187.400000
750.135864	193.200000
750.173340	193.800000
750.210815	198.300000
750.248291	188.300000
750.285767	193.500000
750.323242	201.200000
750.360657	195.900000
750.398132	189.000000
750.435608	198.200000
750.473022	189.300000
750.510498	188.600000
750.547974	189.500000
750.585449	191.200000
750.622925	183.000000
750.660339	203.600000
750.697815	193.500000
750.735291	193.100000
750.772644	193.700000
750.810120	192.700000
750.847595	195.700000
750.885010	189.700000
750.922485	201.500000
750.959961	192.600000
750.997375	200.900000
751.034851	198.600000
751.072266	198.700000
751.109680	186.800000
751.147156	199.500000
751.184570	197.500000
751.221985	194.700000
751.259460	185.300000
751.296875	193.400000
751.334290	194.400000
751.371765	198.000000
751.409180	197.600000
751.446594	200.100000
751.484070	196.700000
751.521423	195.600000
751.558899	193.900000
751.596375	201.700000
751.633728	202.300000
751.671204	205.500000
751.708618	189.800000
751.746033	195.400000
751.783447	188.400000
751.820801	189.800000
751.858276	196.400000
751.895691	192.300000
751.933105	192.500000
751.970520	189.200000
752.007935	191.000000
752.045349	198.400000
752.082764	193.600000
752.120178	191.500000
752.157532	189.000000
752.195007	191.100000
752.232422	197.400000
752.269775	199.200000
752.307190	196.700000
752.344543	189.400000
752.382019	193.300000
752.419434	192.600000
752.456787	194.800000
752.494202	197.900000
752.531616	196.000000
752.568970	199.000000
752.606384	195.100000
752.643799	196.900000
752.681152	202.700000
752.718567	196.500000
752.755981	185.400000
752.793335	196.500000
752.830750	185.100000
752.868164	200.800000
752.905518	189.100000
752.942932	197.500000
752.980225	188.800000
753.017639	199.100000
753.055054	192.900000
753.092407	196.700000
753.129822	199.500000
753.167175	204.300000
753.204529	191.400000
753.241943	190.500000
753.279358	187.200000
753.316650	198.400000
753.354065	195.600000
753.391479	197.900000
753.428772	202.100000
753.466187	197.000000
753.503479	187.400000
753.540894	192.600000
753.578308	189.400000
753.615601	187.600000
753.653015	195.200000
753.690369	191.900000
753.727722	188.900000
753.765076	186.400000
753.802490	187.500000
753.839783	184.600000
753.877136	190.900000
753.914551	208.900000
753.951843	188.700000
753.989258	197.000000
754.026611	194.500000
754.063904	195.000000
754.101257	189.200000
754.138611	185.400000
754.175964	193.000000
754.213318	205.900000
754.250610	186.200000
754.288025	190.900000
754.325378	188.100000
754.362671	199.000000
754.400024	191.400000
754.437378	203.500000
754.474670	204.400000
754.512085	189.200000
754.549438	194.100000
754.586731	190.500000
754.624084	193.900000
754.661438	187.900000
754.698730	202.000000
754.736084	191.300000
754.773376	193.800000
754.810730	196.100000
754.848083	193.300000
754.885315	197.400000
754.922668	186.900000
754.960022	188.800000
754.997314	199.500000
755.034668	195.700000
755.072021	195.400000
755.109253	193.000000
755.146606	201.900000
755.183960	192.600000
755.221252	204.500000
755.258545	200.200000
755.295898	199.600000
755.333191	202.700000
755.370544	198.500000
755.407776	195.300000
755.445129	196.700000
755.482422	201.000000
755.519714	192.200000
755.557068	187.000000
755.594360	186.900000
755.631653	200.800000
755.668945	206.500000
755.706299	198.400000
755.743530	208.200000
755.780884	204.900000
755.818176	203.400000
755.855408	202.600000
755.892761	199.500000
755.930054	200.400000
755.967346	200.100000
756.004639	201.500000
756.041870	197.200000
756.079224	203.200000
756.116516	193.300000
756.153748	203.700000
756.191040	204.900000
756.228394	201.300000
756.265625	194.400000
756.302917	199.500000
756.340210	195.400000
756.377441	205.800000
756.414795	206.100000
756.452087	200.100000
756.489319	192.300000
756.526611	203.200000
756.563843	200.200000
756.601135	211.500000
756.638428	208.500000
756.675659	200.700000
756.712952	203.900000
756.750244	204.100000
756.787476	201.600000
756.824768	208.900000
756.862061	198.600000
756.899292	248.800000
756.936584	207.200000
756.973816	213.800000
757.011047	213.600000
757.048340	203.700000
757.085632	202.800000
757.122864	218.900000
757.160156	200.700000
757.197327	205.500000
757.234619	206.300000
757.271912	202.000000
757.309082	208.800000
757.346375	202.500000
757.383667	210.800000
757.420837	204.300000
757.458130	205.300000
757.495422	203.300000
757.532593	206.700000
757.569885	198.000000
757.607117	200.600000
757.644348	206.900000
757.681580	218.600000
757.718811	194.200000
757.756042	205.400000
757.793335	202.500000
757.830505	213.800000
757.867798	203.000000
757.905029	202.700000
757.942200	208.000000
757.979492	201.900000
758.016724	204.200000
758.053894	204.400000
758.091187	224.000000
758.128418	207.300000
758.165588	206.700000
758.202820	218.500000
758.240112	208.200000
758.277283	219.300000
758.314514	208.900000
758.351685	205.300000
758.388916	219.000000
758.426147	217.400000
758.463379	217.700000
758.500610	212.900000
758.537842	209.700000
758.575012	215.500000
758.612244	205.400000
758.649475	223.200000
758.686646	203.200000
758.723877	217.300000
758.761108	218.000000
758.798279	210.200000
758.835510	214.200000
758.872742	217.900000
758.909851	214.300000
758.947083	214.300000
758.984253	213.100000
759.021484	216.500000
759.058716	217.400000
759.095886	218.200000
759.133057	211.000000
759.170288	217.100000
759.207458	208.600000
759.244690	224.500000
759.281860	223.200000
759.319031	212.600000
759.356262	212.100000
759.393433	213.000000
759.430603	212.300000
759.467773	212.500000
759.505005	221.600000
759.542175	221.100000
759.579346	215.400000
759.616516	217.100000
759.653687	217.500000
759.690918	211.200000
759.728027	215.600000
759.765259	216.400000
759.802429	220.500000
759.839539	218.200000
759.876770	223.900000
759.913940	226.600000
759.951111	217.200000
759.988281	218.000000
760.025452	215.700000
760.062561	213.700000
760.099792	226.100000
760.136963	220.100000
760.174072	217.500000
760.211243	210.900000
760.248413	213.400000
760.285583	212.300000
760.322754	230.500000
760.359863	223.900000
760.397034	226.400000
760.434204	218.000000
760.471375	220.000000
760.508545	218.100000
760.545715	219.400000
760.582825	213.800000
760.619995	224.400000
760.657166	212.600000
760.694275	226.700000
760.731445	222.700000
760.768555	223.800000
760.805664	224.400000
760.842834	222.800000
760.879944	225.200000
760.917114	223.700000
760.954285	221.200000
760.991394	215.000000
761.028564	230.700000
761.065674	227.600000
761.102783	220.500000
761.139954	228.500000
761.177124	228.900000
761.214172	231.800000
761.251343	222.800000
761.288452	226.800000
761.325562	231.100000
761.362732	224.000000
761.399841	227.200000
761.436951	228.400000
761.474121	225.100000
761.511169	229.100000
761.548340	233.400000
761.585449	231.800000
761.622559	234.700000
761.659668	230.100000
761.696838	238.500000
761.733887	232.600000
761.771057	229.500000
761.808167	234.300000
761.845276	238.500000
761.882385	245.500000
761.919434	235.200000
761.956604	253.700000
761.993713	232.800000
762.030762	243.100000
762.067871	235.300000
762.105042	234.300000
762.142090	246.000000
762.179199	240.800000
762.216309	243.100000
762.253418	254.300000
762.290527	249.900000
762.327637	246.000000
762.364685	234.900000
762.401794	245.200000
762.438904	244.600000
762.475952	238.900000
762.513062	238.300000
762.550110	238.600000
762.587219	254.300000
762.624329	254.400000
762.661377	247.900000
762.698486	246.700000
762.735596	246.100000
762.772644	240.000000
762.809753	237.100000
762.846863	244.700000
762.883911	250.400000
762.921021	250.400000
762.958069	249.500000
762.995117	257.500000
763.032227	257.200000
763.069336	249.900000
763.106323	244.600000
763.143433	244.500000
763.180481	250.700000
763.217590	251.400000
763.254639	249.100000
763.291687	251.900000
763.328735	260.400000
763.365845	253.400000
763.402893	251.000000
763.439941	255.500000
763.477051	257.700000
763.514038	259.900000
763.551147	251.500000
763.588196	255.400000
763.625244	254.100000
763.662292	262.900000
763.699402	267.300000
763.736389	262.100000
763.773499	271.000000
763.810486	262.800000
763.847534	259.700000
763.884644	265.200000
763.921631	259.100000
763.958679	272.100000
763.995728	260.300000
764.032776	270.900000
764.069824	256.100000
764.106873	267.500000
764.143860	273.200000
764.180969	263.700000
764.218018	274.100000
764.255005	266.500000
764.292053	268.200000
764.329102	277.300000
764.366089	277.100000
764.403137	273.600000
764.440125	266.200000
764.477173	269.300000
764.514221	271.700000
764.551208	268.000000
764.588257	266.500000
764.625305	277.100000
764.662292	282.700000
764.699341	286.100000
764.736389	278.400000
764.773376	294.200000
764.810425	281.900000
764.847473	288.000000
764.884399	284.400000
764.921448	292.800000
764.958435	289.300000
764.995483	279.700000
765.032532	296.600000
765.069458	282.700000
765.106506	283.100000
765.143555	279.700000
765.180481	288.100000
765.217529	293.100000
765.254578	279.900000
765.291504	291.900000
765.328552	288.400000
765.365540	281.500000
765.402527	298.600000
765.439575	282.100000
765.476501	279.700000
765.513550	280.300000
765.550537	286.100000
765.587463	293.600000
765.624512	287.600000
765.661499	279.000000
765.698486	294.800000
765.735474	286.600000
765.772461	288.100000
765.809448	297.400000
765.846436	295.000000
765.883423	298.200000
765.920410	291.000000
765.957397	288.700000
765.994385	294.400000
766.031311	302.400000
766.068359	294.500000
766.105286	296.200000
766.142273	302.300000
766.179260	297.800000
766.216187	292.100000
766.253174	290.500000
766.290161	297.600000
766.327148	302.100000
766.364136	302.800000
766.401123	319.400000
766.438049	296.600000
766.475037	313.800000
766.512024	306.500000
766.548950	323.300000
766.585937	316.000000
766.622864	314.500000
766.659790	311.300000
766.696777	301.800000
766.733704	319.500000
766.770691	309.700000
766.807678	323.200000
766.844604	318.500000
766.881531	319.300000
766.918518	326.300000
766.955444	327.000000
766.992432	322.200000
767.029358	323.700000
767.066284	329.800000
767.103271	327.000000
767.140198	355.500000
767.177124	342.400000
767.214050	332.500000
767.251038	335.200000
767.287964	330.800000
767.324890	329.700000
767.361816	338.700000
767.398743	343.800000
767.435730	338.500000
767.472595	342.500000
767.509583	345.900000
767.546509	333.800000
767.583374	343.600000
767.620361	336.300000
767.657288	343.600000
767.694214	342.900000
767.731140	343.500000
767.768066	345.000000
767.804993	350.100000
767.841919	341.500000
767.878845	348.600000
767.915710	358.700000
767.952698	351.900000
767.989563	352.800000
768.026489	355.400000
768.063416	348.000000
768.100281	352.200000
768.137207	364.100000
768.174133	362.000000
768.211060	362.500000
768.247986	361.600000
768.284912	362.600000
768.321777	365.800000
768.358704	362.700000
768.395630	367.500000
768.432495	360.100000
768.469421	367.300000
768.506348	374.400000
768.543152	378.400000
768.580078	376.400000
768.616943	377.900000
768.653870	379.400000
768.690796	378.700000
768.727661	376.500000
768.764587	379.300000
768.801453	375.200000
768.838318	384.500000
768.875244	384.300000
768.912109	390.700000
768.948975	383.600000
768.985901	386.700000
769.022766	385.800000
769.059631	394.900000
769.096558	389.500000
769.133362	390.400000
769.170288	390.900000
769.207214	390.300000
769.244019	395.200000
769.280945	395.200000
769.317810	401.400000
769.354675	395.100000
769.391541	405.200000
769.428406	402.200000
769.465271	416.600000
769.502136	402.200000
769.539062	406.700000
769.575867	405.500000
769.612732	408.600000
769.649597	411.800000
769.686462	419.300000
769.723328	415.200000
769.760193	412.200000
769.797058	415.300000
769.833923	422.900000
769.870728	420.300000
769.907593	422.000000
769.944519	421.100000
769.981323	424.600000
770.018188	424.500000
770.055054	424.000000
770.091858	424.400000
770.128723	436.300000
770.165588	442.000000
770.202393	426.600000
770.239258	440.800000
770.276062	435.200000
770.312927	437.200000
770.349792	442.300000
770.386597	443.200000
770.423462	448.600000
770.460327	457.300000
770.497131	438.100000
770.533997	433.300000
770.570862	450.500000
770.607605	451.400000
770.644470	449.300000
770.681335	452.700000
770.718140	446.300000
770.754944	439.300000
770.791809	441.700000
770.828613	444.900000
770.865479	444.800000
770.902222	457.300000
770.939087	450.900000
770.975952	443.300000
771.012695	445.600000
771.049561	463.600000
771.086365	451.300000
771.123169	447.800000
771.159973	448.900000
771.196838	450.100000
771.233582	452.600000
771.270447	454.300000
771.307251	457.200000
771.344055	458.800000
771.380859	461.100000
771.417664	450.200000
771.454468	461.300000
771.491272	462.100000
771.528076	465.600000
771.564880	465.000000
771.601685	473.700000
771.638428	462.300000
771.675293	469.100000
771.712097	460.000000
771.748840	476.800000
771.785645	470.100000
771.822449	475.400000
771.859253	472.800000
771.896057	471.200000
771.932861	486.900000
771.969604	474.200000
772.006409	473.200000
772.043213	488.400000
772.079956	484.500000
772.116760	477.200000
772.153503	480.500000
772.190308	492.200000
772.227112	482.000000
772.263855	479.500000
772.300659	486.400000
772.337463	493.200000
772.374207	483.400000
772.411011	482.100000
772.447754	486.000000
772.484497	505.800000
772.521301	498.600000
772.558105	496.900000
772.594849	500.300000
772.631592	506.600000
772.668396	502.200000
772.705139	510.800000
772.741882	511.500000
772.778625	527.800000
772.815430	530.500000
772.852173	524.900000
772.888916	533.100000
772.925720	530.400000
772.962463	538.900000
772.999207	533.600000
773.035950	539.500000
773.072754	541.100000
773.109436	536.800000
773.146240	540.500000
773.182922	540.000000
773.219727	550.900000
773.256470	546.300000
773.293152	536.000000
773.329956	540.200000
773.366699	542.400000
773.403381	540.100000
773.440186	552.900000
773.476929	556.900000
773.513611	551.000000
773.550354	550.800000
773.587158	549.800000
773.623840	542.100000
773.660583	557.600000
773.697327	573.800000
773.734009	567.200000
773.770813	561.500000
773.807495	560.700000
773.844238	566.600000
773.880981	583.000000
773.917664	581.200000
773.954407	590.200000
773.991150	578.400000
774.027832	584.400000
774.064575	575.800000
774.101318	586.700000
774.138000	596.900000
774.174744	585.700000
774.211487	590.900000
774.248108	579.700000
774.284851	581.500000
774.321594	593.000000
774.358276	598.100000
774.395020	607.100000
774.431702	603.000000
774.468384	596.000000
774.505127	595.800000
774.541809	614.100000
774.578491	623.800000
774.615234	625.400000
774.651917	613.800000
774.688599	618.400000
774.725342	625.300000
774.762024	626.200000
774.798706	634.000000
774.835449	631.100000
774.872070	644.500000
774.908813	639.400000
774.945496	631.600000
774.982178	630.900000
775.018860	640.600000
775.055542	640.700000
775.092224	645.000000
775.128967	652.400000
775.165588	649.500000
775.202271	637.600000
775.239014	654.400000
775.275635	661.200000
775.312317	653.900000
775.349060	659.300000
775.385681	659.500000
775.422363	647.700000
775.459045	658.500000
775.495667	666.000000
775.532410	674.800000
775.569092	674.200000
775.605713	668.100000
775.642395	668.100000
775.679016	669.200000
775.715698	676.900000
775.752380	680.100000
775.789001	677.700000
775.825684	674.000000
775.862366	675.000000
775.898987	686.900000
775.935669	674.800000
775.972351	700.600000
776.008972	696.700000
776.045654	692.200000
776.082336	691.000000
776.118958	689.900000
776.155640	698.000000
776.192322	708.200000
776.228882	705.400000
776.265564	701.200000
776.302185	699.100000
776.338867	702.700000
776.375488	690.000000
776.412109	705.700000
776.448792	710.100000
776.485413	720.100000
776.522034	711.100000
776.558716	698.600000
776.595337	694.600000
776.631958	705.100000
776.668579	707.700000
776.705261	721.000000
776.741882	711.800000
776.778503	710.000000
776.815186	705.200000
776.851746	713.500000
776.888367	715.200000
776.924988	723.000000
776.961609	709.700000
776.998291	715.000000
777.034851	701.500000
777.071472	712.900000
777.108154	710.400000
777.144714	724.500000
777.181335	724.900000
777.218018	717.300000
777.254578	725.900000
777.291199	720.300000
777.327759	728.200000
777.364380	736.700000
777.401062	741.500000
777.437622	759.700000
777.474243	741.700000
777.510864	753.900000
777.547424	750.400000
777.584045	751.600000
777.620667	754.200000
777.657227	760.800000
777.693848	753.800000
777.730469	773.800000
777.767029	768.700000
777.803650	772.200000
777.840271	766.600000
777.876831	764.700000
777.913452	775.800000
777.950012	759.900000
777.986633	755.000000
778.023193	756.600000
778.059753	754.700000
778.096375	758.400000
778.132996	771.000000
778.169556	759.100000
778.206116	764.400000
778.242737	759.600000
778.279297	775.900000
778.315857	763.300000
778.352478	775.900000
778.389038	789.600000
778.425598	789.000000
778.462219	790.300000
778.498718	792.300000
778.535339	804.500000
778.571838	799.700000
778.608459	809.500000
778.645020	805.300000
778.681580	806.900000
778.718140	817.500000
778.754761	819.000000
778.791260	826.700000
778.827881	833.300000
778.864441	828.900000
778.900940	828.600000
778.937561	825.300000
778.974121	826.500000
779.010620	821.000000
779.047241	832.600000
779.083801	838.500000
779.120300	838.400000
779.156860	842.000000
779.193359	838.400000
779.229980	841.600000
779.266541	849.100000
779.303040	858.300000
779.339600	841.300000
779.376160	836.000000
779.412659	850.100000
779.449219	842.300000
779.485779	863.000000
779.522278	861.600000
779.558838	864.500000
779.595398	870.800000
779.631897	868.700000
779.668457	857.300000
779.705017	861.000000
779.741516	861.300000
779.778076	857.700000
779.814575	863.700000
779.851074	873.100000
779.887634	866.500000
779.924133	870.500000
779.960693	861.500000
779.997253	874.800000
780.033691	877.500000
780.070251	884.200000
780.106812	898.300000
780.143250	894.400000
780.179810	891.000000
780.216370	893.800000
780.252808	904.500000
780.289368	919.600000
780.325867	923.100000
780.362366	912.900000
780.398865	923.700000
780.435364	919.400000
780.471863	938.400000
780.508423	934.100000
780.544861	941.600000
780.581421	945.300000
780.617920	938.700000
780.654419	932.000000
780.690918	940.900000
780.727417	946.300000
780.763916	945.700000
780.800415	952.800000
780.836914	935.000000
780.873352	947.700000
780.909912	940.900000
780.946411	951.200000
780.982849	961.200000
781.019348	981.600000
781.055786	971.700000
781.092346	959.800000
781.128845	979.400000
781.165283	981.600000
781.201782	986.300000
781.238281	987.500000
781.274719	990.400000
781.311218	985.500000
781.347717	999.100000
781.384155	985.700000
781.420654	985.200000
781.457092	1004.100000
781.493591	998.400000
781.530090	986.400000
781.566528	985.700000
781.602966	992.200000
781.639465	988.800000
781.675903	988.200000
781.712402	1002.100000
781.748901	1005.300000
781.785278	997.200000
781.821777	1008.800000
781.858276	1010.600000
781.894714	1017.500000
781.931152	1009.500000
781.967651	1018.600000
782.004089	1001.900000
782.040527	1017.600000
782.076965	1016.400000
782.113403	1015.100000
782.149902	1018.100000
782.186340	1016.500000
782.222778	1031.500000
782.259277	1011.200000
782.295654	1012.300000
782.332092	1021.900000
782.368591	1018.600000
782.404968	1010.800000
782.441467	1022.600000
782.477905	1019.500000
782.514282	1011.200000
782.550781	1028.800000
782.587219	1027.900000
782.623596	1025.000000
782.660095	1034.000000
782.696472	1048.400000
782.732910	1043.900000
782.769348	1053.000000
782.805786	1067.300000
782.842224	1057.900000
782.878662	1054.300000
782.915039	1058.500000
782.951477	1057.700000
782.987915	1048.700000
783.024292	1056.900000
783.060730	1049.400000
783.097168	1039.300000
783.133545	1035.300000
783.169983	1032.000000
783.206421	1020.100000
783.242798	1025.200000
783.279236	1017.200000
783.315613	1008.300000
783.352051	1002.900000
783.388489	1000.100000
783.424866	990.000000
783.461304	993.500000
783.497681	1006.000000
783.534058	1001.100000
783.570496	995.500000
783.606934	990.500000
783.643250	993.500000
783.679687	1008.700000
783.716125	1001.300000
783.752441	1014.400000
783.788879	1025.000000
783.825317	1029.400000
783.861633	1035.400000
783.898071	1038.000000
783.934448	1050.000000
783.970825	1070.000000
784.007263	1075.100000
784.043579	1073.100000
784.080017	1084.900000
784.116394	1073.700000
784.152710	1077.900000
784.189148	1088.300000
784.225525	1084.800000
784.261902	1065.900000
784.298279	1049.200000
784.334656	1024.900000
784.371033	947.200000
784.407410	853.900000
784.443787	730.200000
784.480164	599.100000
784.516541	498.600000
784.552856	453.100000
784.589233	420.900000
784.625610	398.900000
784.661987	419.200000
784.698364	403.900000
784.734741	419.100000
784.771057	471.200000
784.807434	566.500000
784.843811	686.600000
784.880127	798.600000
784.916504	919.500000
784.952881	981.100000
784.989197	1020.000000
785.025574	1053.300000
785.061951	1075.400000
785.098267	1113.900000
785.134644	1115.800000
785.170959	1114.000000
785.207275	1125.600000
785.243652	1117.700000
785.279968	1099.600000
785.316345	1112.800000
785.352722	1127.800000
785.388977	1127.300000
785.425354	1107.300000
785.461731	1088.700000
785.498047	1078.000000
785.534363	1072.100000
785.570679	1075.300000
785.606995	1083.700000
785.643372	1085.300000
785.679687	1082.100000
785.716003	1068.400000
785.752380	1061.300000
785.788635	1066.200000
785.825012	1095.300000
785.861328	1105.800000
785.897644	1097.300000
785.933960	1107.500000
785.970337	1112.000000
786.006592	1122.200000
786.042908	1136.600000
786.079285	1154.200000
786.115540	1157.200000
786.151855	1160.500000
786.188171	1162.400000
786.224487	1151.600000
786.260803	1157.000000
786.297119	1181.900000
786.333435	1179.600000
786.369751	1176.400000
786.406006	1173.400000
786.442322	1155.900000
786.478638	1151.500000
786.514954	1165.100000
786.551270	1167.700000
786.587585	1183.100000
786.623840	1167.100000
786.660156	1155.500000
786.696472	1135.300000
786.732727	1135.000000
786.769043	1135.500000
786.805298	1124.500000
786.841614	1125.800000
786.877930	1131.700000
786.914124	1111.700000
786.950439	1128.000000
786.986755	1140.000000
787.023010	1156.400000
787.059326	1164.800000
787.095642	1166.300000
787.131836	1172.900000
787.168152	1165.800000
787.204468	1175.400000
787.240723	1200.200000
787.276978	1214.200000
787.313293	1223.800000
787.349548	1223.500000
787.385803	1221.100000
787.422058	1215.100000
787.458313	1210.500000
787.494629	1218.100000
787.530823	1212.900000
787.567139	1199.400000
787.603455	1191.800000
787.639648	1172.300000
787.675903	1175.700000
787.712219	1186.700000
787.748413	1180.100000
787.784729	1181.600000
787.820984	1170.200000
787.857178	1157.500000
787.893494	1155.500000
787.929749	1153.800000
787.965942	1161.100000
788.002258	1166.000000
788.038452	1168.800000
788.074707	1157.800000
788.110962	1168.300000
788.147217	1160.800000
788.183472	1159.600000
788.219727	1175.300000
788.255920	1209.500000
788.292175	1222.000000
788.328430	1211.800000
788.364624	1189.800000
788.400879	1182.100000
788.437134	1187.500000
788.473328	1184.900000
788.509583	1185.600000
788.545837	1186.600000
788.582031	1181.100000
788.618286	1154.200000
788.654480	1150.100000
788.690735	1166.400000
788.726990	1191.300000
788.763184	1184.200000
788.799377	1197.900000
788.835632	1174.900000
788.871826	1204.200000
788.908081	1198.900000
788.944336	1200.200000
788.980469	1220.100000
789.016724	1206.500000
789.052979	1207.900000
789.089111	1180.700000
789.125366	1195.000000
789.161621	1170.300000
789.197754	1187.100000
789.234009	1188.100000
789.270142	1174.300000
789.306396	1148.100000
789.342590	1138.500000
789.378784	1117.100000
789.414978	1107.900000
789.451233	1131.100000
789.487366	1132.500000
789.523621	1144.000000
789.559814	1137.400000
789.595947	1120.500000
789.632202	1132.700000
789.668335	1144.100000
789.704529	1159.500000
789.740784	1183.600000
789.776917	1182.800000
789.813110	1165.700000
789.849304	1191.400000
789.885498	1187.400000
789.921692	1198.600000
789.957886	1211.300000
789.994019	1218.200000
790.030212	1205.300000
790.066406	1211.600000
790.102539	1209.800000
790.138733	1207.800000
790.174927	1196.800000
790.211060	1225.200000
790.247253	1205.800000
790.283386	1198.300000
790.319580	1177.200000
790.355774	1165.900000
790.391907	1168.900000
790.428101	1195.700000
790.464294	1199.100000
790.500427	1195.700000
790.536621	1186.000000
790.572754	1165.200000
790.608887	1173.800000
790.645081	1189.200000
790.681274	1191.000000
790.717346	1184.900000
790.753540	1151.100000
790.789734	1078.200000
790.825867	1027.900000
790.862000	1025.500000
790.898132	1069.500000
790.934265	1132.500000
790.970459	1196.200000
791.006592	1225.000000
791.042725	1221.900000
791.078918	1214.700000
791.114990	1219.600000
791.151184	1241.100000
791.187317	1267.000000
791.223389	1256.500000
791.259583	1236.700000
791.295715	1237.600000
791.331848	1241.100000
791.367981	1266.600000
791.404114	1269.200000
791.440247	1264.000000
791.476379	1265.000000
791.512451	1242.000000
791.548584	1239.300000
791.584778	1243.900000
791.620850	1257.800000
791.656982	1271.200000
791.693115	1262.000000
791.729187	1250.100000
791.765381	1244.900000
791.801514	1242.400000
791.837585	1242.100000
791.873718	1257.700000
791.909851	1267.100000
791.945923	1275.800000
791.982056	1236.100000
792.018188	1225.800000
792.054260	1234.400000
792.090393	1236.300000
792.126465	1232.200000
792.162598	1239.500000
792.198669	1219.100000
792.234741	1224.400000
792.270874	1216.200000
792.307007	1205.700000
792.343079	1214.100000
792.379150	1236.000000
792.415283	1207.300000
792.451355	1202.600000
792.487488	1179.700000
792.523560	1181.500000
792.559631	1185.800000
792.595764	1184.700000
792.631836	1199.500000
792.667908	1200.100000
792.703979	1180.900000
792.740051	1188.200000
792.776184	1184.200000
792.812256	1170.800000
792.848328	1184.000000
792.884399	1198.200000
792.920471	1197.900000
792.956543	1201.900000
792.992615	1185.700000
793.028748	1179.400000
793.064758	1196.900000
793.100830	1209.900000
793.136963	1221.900000
793.172974	1214.800000
793.209045	1201.800000
793.245178	1219.800000
793.281189	1206.100000
793.317261	1209.300000
793.353271	1211.900000
793.389404	1225.400000
793.425476	1224.800000
793.461487	1207.800000
793.497559	1196.700000
793.533630	1202.900000
793.569641	1209.000000
793.605713	1206.600000
793.641785	1220.300000
793.677795	1221.500000
793.713867	1194.400000
793.749878	1204.000000
793.785950	1219.500000
793.822021	1226.700000
793.858032	1216.300000
793.894104	1226.700000
793.930176	1217.900000
793.966187	1223.100000
794.002258	1203.400000
794.038269	1209.200000
794.074280	1203.500000
794.110352	1226.700000
794.146423	1197.600000
794.182373	1197.100000
794.218445	1191.700000
794.254517	1176.800000
794.290466	1161.200000
794.326538	1165.700000
794.362549	1164.100000
794.398560	1169.600000
794.434631	1178.900000
794.470581	1152.600000
794.506653	1139.900000
794.542664	1143.200000
794.578674	1139.900000
794.614685	1140.600000
794.650757	1145.400000
794.686707	1136.600000
794.722778	1123.200000
794.758789	1128.700000
794.794739	1141.600000
794.830811	1166.600000
794.866821	1180.900000
794.902771	1174.200000
794.938843	1157.300000
794.974792	1153.500000
795.010803	1168.200000
795.046814	1154.500000
795.082825	1143.900000
795.118835	1160.000000
795.154846	1135.200000
795.190796	1141.200000
795.226807	1118.300000
795.262817	1129.900000
795.298767	1134.300000
795.334778	1124.600000
795.370850	1116.100000
795.406799	1119.000000
795.442810	1096.100000
795.478821	1095.400000
795.514709	1098.800000
795.550720	1110.700000
795.586670	1087.200000
795.622681	1100.900000
795.658691	1093.600000
795.694641	1086.600000
795.730652	1071.800000
795.766663	1080.300000
795.802551	1093.200000
795.838562	1105.000000
795.874573	1080.200000
795.910522	1083.100000
795.946472	1078.700000
795.982483	1079.500000
796.018433	1082.900000
796.054382	1096.300000
796.090393	1085.900000
796.126282	1079.100000
796.162292	1060.100000
796.198242	1051.500000
796.234192	1058.000000
796.270203	1055.000000
796.306091	1058.800000
796.342041	1074.100000
796.378052	1060.200000
796.413940	1049.500000
796.449951	1055.900000
796.485901	1057.800000
796.521790	1059.200000
796.557800	1076.400000
796.593689	1076.600000
796.629639	1061.900000
796.665649	1054.500000
796.701599	1051.200000
796.737488	1050.800000
796.773437	1048.900000
796.809387	1054.400000
796.845337	1044.500000
796.881287	1035.100000
796.917175	1020.000000
796.953125	1025.900000
796.989075	1038.800000
797.024963	1041.000000
797.060913	1039.600000
797.096863	1037.700000
797.132751	1032.200000
797.168701	1014.000000
797.204590	1025.800000
797.240540	1021.600000
797.276489	1028.200000
797.312439	1032.700000
797.348328	1029.800000
797.384277	1012.800000
797.420166	1005.200000
797.456055	1004.000000
797.492004	1003.700000
797.527893	1021.600000
797.563843	1020.200000
797.599731	1003.300000
797.635620	990.800000
797.671570	1001.900000
797.707520	993.200000
797.743347	986.400000
797.779297	1006.400000
797.815125	999.800000
797.851074	994.300000
797.887024	985.800000
797.922913	975.700000
797.958801	992.400000
797.994690	984.800000
798.030579	990.200000
798.066467	991.600000
798.102356	980.200000
798.138245	968.800000
798.174133	970.400000
798.210083	976.500000
798.245911	985.600000
798.281799	991.200000
798.317749	978.500000
798.353577	970.400000
798.389465	970.400000
798.425293	967.200000
798.461243	969.300000
798.497131	973.100000
798.532959	969.000000
798.568848	966.800000
798.604736	958.100000
798.640564	947.300000
798.676453	943.700000
798.712402	949.600000
798.748230	950.900000
798.784119	952.400000
798.820007	953.100000
798.855835	946.800000
798.891724	939.400000
798.927551	938.000000
798.963379	946.500000
798.999268	948.600000
799.035095	944.600000
799.070984	928.600000
799.106873	918.100000
799.142700	935.900000
799.178528	923.900000
799.214417	924.400000
799.250244	939.400000
799.286133	925.900000
799.321960	915.900000
799.357788	911.700000
799.393677	916.200000
799.429504	918.500000
799.465332	923.600000
799.501221	934.500000
799.537048	930.300000
799.572876	913.100000
799.608704	908.600000
799.644531	920.500000
799.680359	920.200000
799.716248	924.300000
799.752014	934.800000
799.787903	919.900000
799.823730	908.700000
799.859558	910.400000
799.895386	911.500000
799.931213	912.900000
799.967041	901.900000
800.002869	888.700000
800.038696	910.100000
800.074463	893.800000
800.110352	887.500000
800.146179	873.400000
800.181946	888.500000
800.217773	890.500000
800.253540	883.300000
800.289429	881.600000
800.325256	873.700000
800.361023	863.700000
800.396851	875.100000
800.432678	872.600000
800.468445	867.200000
800.504272	862.000000
800.540100	848.300000
800.575867	849.600000
800.611694	850.400000
800.647461	837.800000
800.683289	846.900000
800.719116	846.600000
800.754883	844.300000
800.790649	825.700000
800.826477	817.200000
800.862244	839.400000
800.898071	828.600000
800.933838	821.300000
800.969604	813.400000
801.005432	810.200000
801.041199	815.800000
801.076965	810.600000
801.112793	800.700000
801.148560	791.100000
801.184326	792.900000
801.220154	793.200000
801.255859	781.200000
801.291687	780.800000
801.327454	770.900000
801.363281	769.500000
801.398987	769.500000
801.434814	775.200000
801.470520	786.900000
801.506287	764.400000
801.542114	763.600000
801.577820	760.700000
801.613647	756.700000
801.649414	754.500000
801.685120	753.000000
801.720886	762.000000
801.756714	750.300000
801.792419	738.200000
801.828186	737.900000
801.863892	748.500000
801.899719	743.000000
801.935486	735.200000
801.971252	742.700000
802.006958	733.600000
802.042725	724.500000
802.078430	718.700000
802.114197	716.900000
802.149963	739.700000
802.185669	727.100000
802.221436	729.500000
802.257202	722.300000
802.292908	725.000000
802.328674	729.300000
802.364441	724.000000
802.400146	720.200000
802.435913	717.400000
802.471558	713.800000
802.507324	706.900000
802.543091	699.300000
802.578796	710.000000
802.614502	714.900000
802.650269	717.100000
802.685974	696.100000
802.721741	697.900000
802.757446	701.700000
802.793152	700.300000
802.828918	708.000000
802.864624	701.000000
802.900330	695.400000
802.936035	692.200000
802.971802	690.500000
803.007446	684.700000
803.043213	675.000000
803.078857	685.500000
803.114624	673.200000
803.150330	680.400000
803.185974	669.900000
803.221741	665.200000
803.257446	674.200000
803.293152	672.500000
803.328857	666.200000
803.364563	662.700000
803.400208	655.200000
803.435974	664.500000
803.471680	655.900000
803.507324	651.600000
803.543030	657.900000
803.578735	664.300000
803.614441	652.300000
803.650146	660.200000
803.685791	642.900000
803.721497	645.500000
803.757202	632.000000
803.792847	643.400000
803.828552	636.100000
803.864258	639.600000
803.899902	634.600000
803.935608	615.500000
803.971313	620.900000
804.006958	626.800000
804.042664	628.300000
804.078308	631.300000
804.113953	621.400000
804.149658	628.300000
804.185364	614.400000
804.221008	623.300000
804.256714	611.400000
804.292297	609.500000
804.328003	609.300000
804.363708	599.800000
804.399292	598.100000
804.434998	599.300000
804.470703	592.300000
804.506287	611.700000
804.541992	601.900000
804.577637	599.100000
804.613281	589.200000
804.648926	589.100000
804.684570	594.900000
804.720215	590.100000
804.755920	585.700000
804.791565	580.400000
804.827209	590.500000
804.862854	583.300000
804.898437	576.600000
804.934143	577.800000
804.969788	581.800000
805.005371	585.400000
805.041077	582.300000
805.076721	584.300000
805.112305	567.200000
805.147949	565.500000
805.183655	562.400000
805.219238	569.800000
805.254883	568.600000
805.290466	571.900000
805.326111	566.500000
805.361755	555.900000
805.397400	563.100000
805.432983	566.600000
805.468628	564.500000
805.504211	568.000000
805.539856	562.800000
805.575500	568.900000
805.611084	559.800000
805.646729	546.400000
805.682373	551.200000
805.717957	561.100000
805.753601	561.000000
805.789246	544.900000
805.824768	557.600000
805.860413	559.500000
805.895996	545.500000
805.931641	543.700000
805.967224	553.500000
806.002869	546.800000
806.038452	554.800000
806.074036	548.400000
806.109619	539.000000
806.145264	539.300000
806.180847	535.800000
806.216431	530.200000
806.252014	540.000000
806.287659	534.700000
806.323181	547.100000
806.358826	537.900000
806.394409	518.100000
806.429993	519.300000
806.465576	533.400000
806.501160	515.100000
806.536743	510.700000
806.572327	521.000000
806.607910	519.100000
806.643494	518.800000
806.679077	511.800000
806.714661	516.400000
806.750244	516.100000
806.785828	505.900000
806.821350	504.700000
806.856934	509.100000
806.892517	504.700000
806.928101	499.100000
806.963684	502.500000
806.999268	512.700000
807.034790	493.100000
807.070374	498.400000
807.105896	492.500000
807.141479	486.300000
807.177063	495.800000
807.212585	487.100000
807.248169	487.100000
807.283752	496.600000
807.319275	485.200000
807.354858	483.500000
807.390381	479.200000
807.425903	479.100000
807.461487	477.100000
807.497070	469.900000
807.532593	474.200000
807.568115	473.300000
807.603699	464.000000
807.639221	458.600000
807.674744	463.800000
807.710266	469.100000
807.745850	473.100000
807.781372	462.900000
807.816895	458.400000
807.852417	462.100000
807.888000	459.500000
807.923523	455.500000
807.959045	461.300000
807.994629	450.700000
808.030090	446.000000
808.065613	454.000000
808.101135	455.200000
808.136658	452.900000
808.172241	451.300000
808.207764	448.600000
808.243225	442.200000
808.278809	435.800000
808.314270	446.000000
808.349792	432.300000
808.385315	432.000000
808.420837	434.700000
808.456360	443.400000
808.491882	442.600000
808.527344	436.900000
808.562866	444.500000
808.598389	437.100000
808.633850	430.600000
808.669434	429.100000
808.704895	434.300000
808.740417	438.900000
808.775940	428.200000
808.811462	426.500000
808.846924	417.200000
808.882385	414.600000
808.917847	415.200000
808.953369	417.000000
808.988892	408.900000
809.024353	419.800000
809.059875	417.300000
809.095398	411.400000
809.130798	405.700000
809.166321	406.700000
809.201843	406.000000
809.237305	409.400000
809.272766	414.100000
809.308228	395.300000
809.343750	399.600000
809.379211	398.700000
809.414734	400.700000
809.450134	408.000000
809.485657	392.700000
809.521118	397.400000
809.556580	396.000000
809.592102	391.700000
809.627502	391.500000
809.663025	388.500000
809.698486	385.700000
809.733887	379.800000
809.769409	384.600000
809.804871	374.200000
809.840271	379.400000
809.875793	383.200000
809.911194	386.100000
809.946655	375.200000
809.982178	371.000000
810.017639	377.200000
810.053040	373.600000
810.088501	370.100000
810.123901	370.900000
810.159424	368.100000
810.194885	362.800000
810.230286	365.600000
810.265747	361.400000
810.301208	355.700000
810.336609	363.300000
810.372070	355.200000
810.407532	357.900000
810.442932	360.200000
810.478394	361.700000
810.513794	357.600000
810.549255	355.700000
810.584717	352.400000
810.620117	347.800000
810.655518	355.100000
810.690979	353.500000
810.726379	356.700000
810.761841	341.600000
810.797302	341.400000
810.832642	342.300000
810.868103	353.400000
810.903564	338.600000
810.938904	346.100000
810.974365	334.700000
811.009827	341.500000
811.045166	334.500000
811.080627	327.400000
811.115967	335.600000
811.151428	343.800000
811.186829	332.800000
811.222229	335.600000
811.257629	326.400000
811.293091	334.700000
811.328430	339.400000
811.363892	335.600000
811.399292	335.700000
811.434631	328.900000
811.470093	332.300000
811.505493	325.900000
811.540833	326.900000
811.576294	331.200000
811.611694	328.800000
811.647034	322.800000
811.682434	324.600000
811.717773	326.300000
811.753235	330.100000
811.788635	323.900000
811.823975	325.300000
811.859375	333.300000
811.894775	317.700000
811.930115	320.500000
811.965515	320.100000
812.000916	323.000000
812.036255	317.800000
812.071655	323.000000
812.106995	314.300000
812.142395	317.200000
812.177795	321.800000
812.213196	318.400000
812.248474	319.200000
812.283875	307.900000
812.319214	313.200000
812.354614	313.000000
812.390015	312.200000
812.425293	311.500000
812.460693	310.900000
812.496094	306.900000
812.531433	302.100000
812.566772	302.500000
812.602173	307.100000
812.637451	306.000000
812.672852	302.100000
812.708191	305.900000
812.743530	300.300000
812.778931	292.000000
812.814270	297.200000
812.849609	305.500000
812.884949	298.500000
812.920227	292.600000
812.955627	309.000000
812.990967	299.400000
813.026306	294.200000
813.061646	282.300000
813.096985	279.700000
813.132324	279.500000
813.167664	287.200000
813.203003	289.000000
813.238281	279.100000
813.273682	276.400000
813.308960	274.200000
813.344299	276.900000
813.379639	286.900000
813.414978	279.300000
813.450256	278.400000
813.485596	281.900000
813.520874	273.400000
813.556213	275.800000
813.591614	281.800000
813.626831	274.300000
813.662170	277.700000
813.697510	286.000000
813.732788	269.400000
813.768127	275.200000
813.803467	275.700000
813.838745	270.100000
813.874084	274.300000
813.909363	274.600000
813.944641	274.700000
813.979980	263.900000
814.015320	269.000000
814.050598	267.800000
814.085876	271.400000
814.121155	268.900000
814.156494	267.300000
814.191772	267.700000
814.227051	263.200000
814.262390	265.400000
814.297668	265.400000
814.332947	267.800000
814.368225	259.800000
814.403564	264.200000
814.438782	258.900000
814.474121	265.100000
814.509338	258.500000
814.544617	268.200000
814.579956	255.800000
814.615173	268.700000
814.650513	263.900000
814.685791	256.600000
814.721008	256.800000
814.756348	258.300000
814.791626	252.900000
814.826843	256.500000
814.862122	255.800000
814.897400	253.000000
814.932678	255.700000
814.967957	254.500000
815.003235	253.500000
815.038452	248.700000
815.073730	244.000000
815.108948	256.500000
815.144226	253.600000
815.179504	257.100000
815.214722	242.400000
815.250000	240.800000
815.285278	250.600000
815.320496	243.700000
815.355774	245.200000
815.391052	249.800000
815.426270	244.500000
815.461487	244.600000
815.496765	238.300000
815.531982	234.500000
815.567261	241.800000
815.602539	249.300000
815.637695	244.100000
815.672974	243.500000
815.708191	244.400000
815.743408	247.400000
815.778687	239.600000
815.813904	248.900000
815.849121	230.100000
815.884399	234.400000
815.919556	234.000000
815.954834	234.200000
815.990051	239.200000
816.025269	242.700000
816.060486	233.500000
816.095703	232.100000
816.130920	237.500000
816.166199	232.800000
816.201416	236.600000
816.236572	241.600000
816.271851	231.400000
816.307007	239.200000
816.342224	228.600000
816.377441	232.600000
816.412659	223.900000
816.447876	235.500000
816.483093	229.700000
816.518250	230.800000
816.553467	230.700000
816.588745	234.700000
816.623901	225.900000
816.659119	218.900000
816.694275	224.300000
816.729492	221.600000
816.764709	258.400000
816.799927	218.800000
816.835083	222.600000
816.870300	219.300000
816.905457	222.500000
816.940674	225.100000
816.975830	218.700000
817.010986	217.800000
817.046204	220.100000
817.081421	215.700000
817.116577	216.700000
817.151733	225.600000
817.186951	225.200000
817.222107	221.000000
817.257324	223.200000
817.292419	220.800000
817.327637	213.200000
817.362854	219.100000
817.398010	213.200000
817.433167	215.200000
817.468323	214.600000
817.503479	215.900000
817.538635	224.100000
817.573853	219.900000
817.608948	216.400000
817.644165	212.400000
817.679321	211.800000
817.714478	211.600000
817.749634	214.700000
817.784790	228.000000
817.819946	220.800000
817.855103	204.100000
817.890198	212.600000
817.925415	205.000000
817.960571	215.100000
817.995667	212.400000
818.030823	214.900000
818.066040	208.400000
818.101135	212.500000
818.136292	211.200000
818.171448	205.900000
818.206543	212.000000
818.241699	214.200000
818.276855	210.700000
818.311951	210.100000
818.347107	206.000000
818.382263	212.200000
818.417358	217.000000
818.452515	217.200000
818.487610	218.200000
818.522766	205.400000
818.557922	216.900000
818.593018	212.000000
818.628113	210.900000
818.663269	204.600000
818.698364	209.900000
818.733521	205.900000
818.768677	211.400000
818.803711	201.800000
818.838867	202.400000
818.874023	207.800000
818.909058	202.800000
818.944214	202.500000
818.979370	211.300000
819.014404	207.100000
819.049561	202.800000
819.084595	209.300000
819.119751	200.600000
819.154846	207.700000
819.189941	204.300000
819.225037	198.300000
819.260193	194.900000
819.295227	198.400000
819.330322	194.500000
819.365479	194.100000
819.400513	226.800000
819.435608	192.800000
819.470764	190.400000
819.505798	194.700000
819.540894	197.400000
819.575989	197.100000
819.611084	205.300000
819.646179	205.300000
819.681213	201.300000
819.716309	198.400000
819.751404	198.000000
819.786438	202.700000
819.821533	194.900000
819.856628	200.700000
819.891663	203.400000
819.926758	209.700000
819.961853	204.400000
819.996887	196.700000
820.031982	202.600000
820.067017	197.200000
820.102112	225.900000
820.137207	196.200000
820.172302	213.500000
820.207275	195.800000
820.242371	194.800000
820.277405	194.200000
820.312500	196.800000
820.347534	199.300000
820.382568	203.800000
820.417664	195.200000
820.452759	194.400000
820.487732	193.000000
820.522827	195.300000
820.557861	191.500000
820.592896	194.400000
820.627930	195.600000
820.662964	192.800000
820.698059	197.500000
820.733093	196.000000
820.768127	199.300000
820.803162	195.400000
820.838196	192.900000
820.873230	197.100000
820.908264	197.000000
820.943298	194.800000
820.978333	202.200000
821.013367	197.500000
821.048401	199.900000
821.083435	203.600000
821.118469	187.900000
821.153503	201.300000
821.188477	197.400000
821.223511	189.400000
821.258484	196.000000
821.293579	196.900000
821.328613	190.000000
821.363647	195.900000
821.398621	189.200000
821.433655	192.600000
821.468628	206.800000
821.503662	194.400000
821.538696	197.700000
821.573669	188.800000
821.608704	199.400000
821.643677	192.400000
821.678650	199.200000
821.713684	203.900000
821.748718	193.200000
821.783691	193.800000
821.818726	195.600000
821.853638	197.500000
821.888672	194.200000
821.923706	195.400000
821.958618	191.200000
821.993652	191.500000
822.028687	198.300000
822.063599	200.900000
822.098633	195.900000
822.133667	188.600000
822.168579	192.800000
822.203613	195.300000
822.238586	191.100000
822.273560	196.700000
822.308533	189.500000
822.343567	192.000000
822.378479	192.500000
822.413452	191.400000
822.448425	190.000000
822.483398	198.500000
822.518372	199.100000
822.553345	191.200000
822.588318	201.300000
822.623291	192.100000
822.658203	192.400000
822.693237	193.500000
822.728210	190.100000
822.763123	194.700000
822.798096	189.200000
822.833069	193.600000
822.867981	195.300000
822.902954	193.900000
822.937927	197.000000
822.972900	204.800000
823.007874	185.200000
823.042725	197.000000
823.077698	207.000000
823.112671	191.000000
823.147583	193.700000
823.182556	196.400000
823.217529	198.400000
823.252441	191.800000
823.287415	208.200000
823.322388	196.600000
823.357239	194.600000
823.392212	200.700000
823.427185	197.900000
823.462097	189.000000
823.497009	196.300000
823.531982	191.900000
823.566895	192.900000
823.601807	187.900000
823.636719	191.800000
823.671631	197.600000
823.706604	191.200000
823.741455	196.300000
823.776428	187.400000
823.811340	197.600000
823.846252	199.800000
823.881165	200.300000
823.916138	195.600000
823.950989	202.300000
823.985901	189.200000
824.020813	194.600000
824.055725	192.300000
824.090637	189.500000
824.125610	195.900000
824.160461	194.000000
824.195374	195.200000
824.230225	200.800000
824.265198	186.300000
824.300110	192.600000
824.334961	205.000000
824.369873	183.900000
824.404785	195.700000
824.439636	201.400000
824.474548	185.800000
824.509460	184.700000
824.544312	198.700000
824.579224	196.400000
824.614075	195.600000
824.648987	193.100000
824.683899	192.300000
824.718811	192.300000
824.753662	201.300000
824.788574	199.700000
824.823364	194.400000
824.858276	190.800000
824.893188	199.600000
824.928040	199.900000
824.962952	196.200000
824.997803	198.700000
825.032654	195.900000
825.067566	198.400000
825.102417	190.900000
825.137268	192.900000
825.172119	194.600000
825.206970	191.300000
825.241882	191.600000
825.276733	190.800000
825.311646	190.900000
825.346436	188.100000
825.381348	187.400000
825.416138	193.100000
825.450989	188.700000
825.485901	183.200000
825.520691	185.100000
825.555542	186.500000
825.590454	193.900000
825.625244	184.200000
825.660095	200.900000
825.695007	196.500000
825.729797	191.900000
825.764648	189.100000
825.799438	193.000000
825.834290	193.300000
825.869202	187.600000
825.903992	193.300000
825.938843	189.700000
825.973694	188.900000
826.008484	204.800000
826.043335	188.900000
826.078186	184.100000
826.112976	199.200000
826.147827	198.200000
826.182678	202.300000
826.217468	185.200000
826.252319	197.000000
826.287109	189.600000
826.321899	199.900000
826.356750	191.700000
826.391541	187.700000
826.426392	199.400000
826.461182	192.600000
826.495972	187.400000
826.530823	183.400000
826.565613	193.400000
826.600403	188.800000
826.635254	196.400000
826.670044	183.300000
826.704834	184.800000
826.739685	188.800000
826.774475	194.200000
826.809265	192.000000
826.844055	189.200000
826.878906	197.500000
826.913635	193.900000
826.948425	195.100000
826.983215	193.000000
827.018005	196.800000
827.052856	191.400000
827.087585	194.900000
827.122375	184.100000
827.157227	191.400000
827.191956	204.000000
827.226746	188.000000
827.261536	196.200000
827.296265	185.000000
827.331116	190.500000
827.365906	195.500000
827.400635	188.600000
827.435425	183.700000
827.470215	197.700000
827.504944	192.200000
827.539734	196.700000
827.574463	193.200000
827.609253	199.500000
827.644043	193.800000
827.678772	198.000000
827.713562	190.600000
827.748352	189.300000
827.783081	189.100000
827.817871	194.100000
827.852600	189.000000
827.887329	192.300000
827.922119	183.100000
827.956848	194.900000
827.991638	205.600000
828.026367	194.400000
828.061157	193.600000
828.095886	192.500000
828.130615	207.100000
828.165344	182.100000
828.200073	193.400000
828.234863	190.500000
828.269592	192.800000
828.304321	196.800000
828.339111	194.100000
828.373779	189.200000
828.408569	197.500000
828.443298	197.700000
828.477966	190.300000
828.512756	192.900000
828.547424	187.200000
828.582214	191.200000
828.616943	190.500000
828.651672	191.000000
828.686340	196.700000
828.721130	189.500000
828.755798	190.600000
828.790527	192.100000
828.825256	192.800000
828.859924	193.200000
828.894714	199.000000
828.929443	201.100000
828.964111	188.100000
828.998840	195.100000
829.033569	189.000000
829.068237	188.800000
829.102966	189.500000
829.137634	194.700000
829.172363	193.300000
829.207092	194.300000
829.241821	188.900000
829.276489	183.800000
829.311157	192.400000
829.345825	190.700000
829.380554	197.400000
829.415283	188.800000
829.449951	186.000000
829.484619	200.000000
829.519348	199.700000
829.554016	193.200000
829.588745	192.000000
829.623413	186.100000
829.658081	202.200000
829.692749	186.200000
829.727417	198.100000
829.762146	193.000000
829.796814	187.800000
829.831482	190.500000
829.866150	194.600000
829.900879	189.800000
829.935486	195.400000
829.970154	190.400000
830.004883	203.300000
830.039490	193.200000
830.074219	188.000000
830.108887	193.200000
830.143494	191.800000
830.178223	185.700000
830.212891	190.300000
830.247498	191.700000
830.282166	199.400000
830.316772	198.800000
830.351501	188.300000
830.386169	191.200000
830.420776	190.200000
830.455444	191.700000
830.490112	188.000000
830.524719	182.600000
830.559387	194.000000
830.594055	195.600000
830.628662	192.800000
830.663330	191.600000
830.697998	199.800000
830.732605	191.700000
830.767273	195.800000
830.801941	191.200000
830.836487	201.100000
830.871155	193.300000
830.905762	194.100000
830.940430	185.100000
830.975098	190.200000
831.009644	191.700000
831.044312	200.600000
831.078979	193.200000
831.113525	183.800000
831.148193	192.800000
831.182861	191.400000
831.217407	195.600000
831.252075	208.100000
831.286621	189.800000
831.321289	188.700000
831.355896	192.100000
831.390564	200.100000
831.425110	192.200000
831.459778	200.100000
831.494324	204.500000
831.528931	196.200000
831.563599	195.900000
831.598145	185.700000
831.632751	190.500000
831.667419	190.200000
831.701965	193.700000
831.736572	196.300000
831.771179	184.900000
831.805786	190.200000
831.840393	199.200000
831.874939	184.100000
831.909546	195.600000
831.944153	184.000000
831.978760	191.400000
832.013306	187.300000
832.047913	201.200000
832.082458	200.500000
832.117065	188.000000
832.151672	200.800000
832.186218	192.300000
832.220825	194.900000
832.255432	183.600000
832.289978	186.200000
832.324585	193.800000
832.359192	194.200000
832.393677	189.300000
832.428284	192.200000
832.462830	191.200000
832.497437	191.100000
832.531982	196.500000
832.566589	190.900000
832.601135	193.700000
832.635681	183.600000
832.670227	192.400000
832.704773	200.000000
832.739380	195.400000
832.773926	192.400000
832.808472	188.000000
832.843079	191.900000
832.877563	195.800000
832.912170	190.300000
832.946716	186.600000
832.981201	197.800000
833.015808	195.700000
833.050293	190.400000
833.084839	187.700000
833.119446	189.000000
833.153992	196.500000
833.188477	190.700000
833.223022	188.600000
833.257568	193.900000
833.292114	197.700000
833.326660	203.500000
833.361145	188.200000
833.395691	184.900000
833.430237	191.400000
833.464783	194.500000
833.499329	188.400000
833.533875	185.400000
833.568359	195.100000
833.602905	197.700000
833.637390	197.300000
833.671875	189.000000
833.706421	189.200000
833.740906	187.800000
833.775452	181.000000
833.809998	190.200000
833.844482	199.100000
833.879028	190.700000
833.913513	188.100000
833.947998	192.800000
833.982544	188.200000
834.017090	189.400000
834.051514	180.600000
834.086060	194.900000
834.120544	192.000000
834.155029	194.000000
834.189575	191.300000
834.223999	195.400000
834.258545	193.300000
834.293030	193.600000
834.327515	192.300000
834.362000	189.500000
834.396545	195.400000
834.430969	190.400000
834.465454	196.100000
834.500000	185.500000
834.534424	195.000000
834.568970	182.100000
834.603455	182.400000
834.637878	189.100000
834.672363	192.500000
834.706909	192.900000
834.741333	194.100000
834.775818	185.000000
834.810242	186.600000
834.844727	193.300000
834.879211	189.700000
834.913635	193.500000
834.948181	193.700000
834.982666	192.800000
835.017090	191.300000
835.051575	193.800000
835.086060	190.200000
835.120483	195.500000
835.154907	196.100000
835.189331	190.100000
835.223816	194.600000
835.258301	186.400000
835.292786	185.200000
835.327209	196.700000
835.361694	187.700000
835.396057	189.400000
835.430542	195.100000
835.465027	192.300000
835.499390	186.000000
835.533875	211.000000
835.568359	189.200000
835.602722	183.800000
835.637207	193.700000
835.671692	186.100000
835.706055	208.400000
835.740540	193.300000
835.774902	195.600000
835.809387	193.300000
835.843811	186.300000
835.878235	199.600000
835.912659	186.900000
835.947083	188.900000
835.981506	192.400000
836.015930	184.800000
836.050354	198.000000
836.084778	201.000000
836.119202	197.700000
836.153625	205.200000
836.187988	187.800000
836.222473	188.800000
836.256897	193.600000
836.291260	192.200000
836.325684	194.300000
836.360046	189.200000
836.394470	191.000000
836.428894	199.200000
836.463318	188.500000
836.497681	196.600000
836.532104	198.800000
836.566467	193.400000
836.600891	190.400000
836.635315	197.000000
836.669678	195.400000
836.704102	196.100000
836.738525	193.900000
836.772888	183.100000
836.807251	188.600000
836.841675	195.100000
836.876038	186.800000
836.910461	188.500000
836.944763	194.800000
836.979187	187.600000
837.013611	197.800000
837.047974	185.900000
837.082336	202.900000
837.116699	196.700000
837.151062	190.900000
837.185486	186.500000
837.219849	190.800000
837.254211	196.500000
837.288574	192.100000
837.322937	188.400000
837.357300	179.600000
837.391663	204.000000
837.426086	197.400000
837.460388	193.200000
837.494751	198.100000
837.529114	191.300000
837.563477	196.100000
837.597839	194.300000
837.632141	192.200000
837.666565	190.300000
837.700928	195.900000
837.735229	196.600000
837.769592	194.300000
837.803955	198.200000
837.838257	190.800000
837.872620	190.100000
837.906982	200.000000
837.941284	194.000000
837.975647	192.700000
838.010010	198.200000
838.044312	190.500000
838.078674	189.800000
838.112976	193.100000
838.147339	195.100000
838.181702	192.800000
838.216003	202.400000
838.250366	193.400000
838.284668	194.900000
838.318970	184.400000
838.353333	192.700000
838.387634	190.200000
838.421936	192.300000
838.456299	193.600000
838.490601	201.100000
838.524902	194.200000
838.559265	196.500000
838.593567	194.100000
838.627869	185.700000
838.662170	195.100000
838.696472	184.900000
838.730774	187.600000
838.765137	197.400000
838.799377	176.300000
838.833740	191.100000
838.868042	199.400000
838.902283	183.700000
838.936646	199.500000
838.970947	193.800000
839.005188	197.000000
839.039551	185.400000
839.073792	201.100000
839.108093	189.300000
839.142395	202.600000
839.176697	185.900000
839.210937	192.200000
839.245300	203.900000
839.279541	186.400000
839.313843	189.400000
839.348145	196.000000
839.382385	197.900000
839.416687	197.600000
839.450989	195.700000
839.485229	191.200000
839.519531	186.900000
839.553833	199.200000
839.588013	191.800000
839.622314	193.300000
839.656555	195.800000
839.690857	190.700000
839.725159	185.100000
839.759460	191.300000
839.793640	189.200000
839.827942	191.700000
839.862183	187.700000
839.896423	193.700000
839.930725	202.000000
839.964966	199.900000
839.999207	198.600000
840.033508	199.600000
840.067688	189.000000
840.101990	201.100000
840.136230	191.300000
840.170471	199.400000
840.204712	188.000000
840.238953	188.900000
840.273193	193.700000
840.307434	196.000000
840.341736	188.200000
840.375916	185.300000
840.410217	190.200000
840.444397	197.300000
840.478638	195.500000
840.512878	198.900000
840.547119	193.200000
840.581360	196.000000
840.615601	202.700000
840.649780	202.000000
840.684021	192.700000
840.718262	202.200000
840.752441	198.700000
840.786682	194.300000
840.820862	196.000000
840.855103	199.600000
840.889343	193.700000
840.923584	198.300000
840.957764	195.300000
840.992004	194.200000
841.026184	206.800000
841.060425	191.800000
841.094666	189.600000
841.128845	197.700000
841.163025	194.700000
841.197266	196.300000
841.231445	194.200000
841.265686	193.700000
841.299866	189.400000
841.334045	202.900000
841.368286	191.800000
841.402405	200.400000
841.436646	196.700000
841.470825	189.500000
841.505005	190.800000
841.539185	187.900000
841.573425	189.300000
841.607544	192.400000
841.641785	193.000000
841.675964	186.300000
841.710144	194.100000
841.744324	189.700000
841.778503	191.800000
841.812683	188.500000
841.846863	202.100000
841.881042	198.700000
841.915222	190.000000
841.949402	208.200000
841.983521	182.500000
842.017700	191.800000
842.051880	193.100000
842.086060	194.800000
842.120239	192.200000
842.154419	191.600000
842.188538	193.800000
842.222717	190.100000
842.256897	202.500000
842.291016	191.000000
842.325195	194.900000
842.359375	204.100000
842.393494	199.200000
842.427673	193.100000
842.461853	196.300000
842.495911	201.500000
842.530090	194.500000
842.564209	193.200000
842.598389	195.000000
842.632568	194.100000
842.666626	198.400000
842.700806	190.900000
842.734985	190.600000
842.769043	196.400000
842.803223	191.200000
842.837402	192.100000
842.871460	190.200000
842.905640	202.500000
842.939697	188.700000
842.973877	194.600000
843.007996	198.500000
843.042175	201.300000
843.076233	190.000000
843.110413	195.400000
843.144470	200.700000
843.178589	196.700000
843.212769	189.900000
843.246826	197.300000
843.280945	191.000000
843.315125	189.900000
843.349182	188.300000
843.383301	201.300000
843.417419	203.600000
843.451538	193.400000
843.485657	191.700000
843.519714	191.500000
843.553833	193.900000
843.587952	190.400000
843.622070	188.300000
843.656128	195.900000
843.690247	192.800000
843.724304	191.700000
843.758423	195.400000
843.792542	191.000000
843.826599	192.700000
843.860718	191.700000
843.894836	186.700000
843.928894	195.400000
843.963013	196.100000
843.997070	187.600000
844.031128	187.700000
844.065247	198.600000
844.099304	198.900000
844.133362	194.300000
844.167480	197.100000
844.201599	200.200000
844.235596	195.300000
844.269714	196.500000
844.303711	195.600000
844.337830	186.000000
844.371948	197.100000
844.405945	192.500000
844.440063	188.800000
844.474121	207.700000
844.508118	193.700000
844.542236	192.500000
844.576294	192.800000
844.610352	187.300000
844.644409	193.200000
844.678406	185.300000
844.712524	197.600000
844.746582	199.600000
844.780640	194.100000
844.814636	192.300000
844.848755	204.500000
844.882751	192.100000
844.916809	197.300000
844.950867	194.900000
844.984863	200.300000
845.018921	191.900000
845.052979	190.000000
845.086975	193.800000
845.121033	187.800000
845.155090	188.100000
845.189087	200.900000
845.223145	191.500000
845.257141	193.900000
845.291199	197.000000
845.325256	201.300000
845.359253	193.000000
845.393250	203.800000
845.427307	193.200000
845.461304	195.100000
845.495361	194.100000
845.529358	204.700000
845.563354	191.800000
845.597412	187.700000
845.631409	201.300000
845.665405	199.300000
845.699463	198.600000
845.733459	191.500000
845.767456	199.900000
845.801453	192.700000
845.835449	200.800000
845.869446	198.400000
845.903503	198.600000
845.937439	190.600000
845.971497	200.400000
846.005493	187.900000
846.039429	198.600000
846.073486	202.600000
846.107483	191.300000
846.141418	193.400000
846.175476	192.700000
846.209473	200.300000
846.243408	188.200000
846.277405	195.200000
846.311401	189.100000
846.345337	195.000000
846.379395	200.000000
846.413330	191.400000
846.447327	201.700000
846.481323	187.300000
846.515259	190.600000
846.549255	193.200000
846.583252	196.400000
846.617187	187.700000
846.651184	195.000000
846.685120	190.500000
846.719055	200.400000
846.753052	199.500000
846.786987	198.300000
846.820984	186.300000
846.854980	199.900000
846.888916	188.700000
846.922852	195.700000
846.956848	203.400000
846.990723	189.200000
847.024719	194.200000
847.058716	193.500000
847.092590	201.200000
847.126587	195.500000
847.160522	191.300000
847.194458	198.000000
847.228455	190.500000
847.262390	188.700000
847.296265	192.100000
847.330261	199.100000
847.364136	192.600000
847.398132	189.500000
847.432068	194.900000
847.466003	193.500000
847.499939	192.600000
847.533875	195.500000
847.567749	192.900000
847.601746	191.100000
847.635681	198.700000
847.669556	185.200000
847.703491	198.900000
847.737427	207.800000
847.771301	188.700000
847.805237	195.800000
847.839233	194.600000
847.873108	193.400000
847.907043	192.400000
847.940918	200.100000
847.974854	195.100000
848.008789	198.000000
848.042664	194.500000
848.076538	197.900000
848.110474	193.500000
848.144348	194.600000
848.178284	188.300000
848.212219	194.500000
848.246094	192.400000
848.279968	195.400000
848.313904	196.900000
848.347778	196.100000
848.381653	192.800000
848.415588	189.500000
848.449463	190.900000
848.483337	198.300000
848.517212	198.300000
848.551086	194.700000
848.585022	190.300000
848.618835	202.200000
848.652771	191.900000
848.686646	190.200000
848.720520	202.100000
848.754395	194.000000
848.788330	197.400000
848.822144	199.100000
848.856018	193.500000
848.889954	204.700000
848.923767	190.400000
848.957642	191.300000
848.991577	199.200000
849.025391	192.200000
849.059265	193.400000
849.093079	191.600000
849.126953	188.400000
849.160828	200.600000
849.194641	194.500000
849.228577	192.500000
849.262451	193.900000
849.296265	192.300000
849.330139	187.300000
849.364014	193.600000
849.397827	197.800000
849.431702	195.200000
849.465515	199.200000
849.499329	185.300000
849.533203	188.600000
849.567078	183.300000
849.600891	196.600000
849.634766	192.400000
849.668518	198.100000
849.702393	193.400000
849.736267	186.200000
849.770020	207.300000
849.803894	197.600000
849.837769	192.500000
849.871521	193.000000
849.905396	198.700000
849.939270	189.600000
849.973022	192.200000
850.006897	197.700000
850.040710	196.200000
850.074524	197.900000
850.108337	192.300000
850.142151	198.100000
850.175964	199.300000
850.209778	194.000000
850.243530	180.700000
850.277405	199.900000
850.311218	195.100000
850.344971	190.500000
850.378845	202.100000
850.412659	190.000000
850.446411	194.600000
850.480225	194.200000
850.514038	199.700000
850.547791	196.600000
850.581665	194.000000
850.615417	190.900000
850.649231	195.400000
850.683044	194.100000
850.716858	193.100000
850.750610	194.900000
850.784424	198.700000
850.818176	190.200000
850.851929	191.200000
850.885742	191.400000
850.919495	194.200000
850.953308	201.700000
850.987122	202.100000
851.020874	188.700000
851.054626	185.600000
851.088440	196.900000
851.122192	196.300000
851.156006	193.600000
851.189697	192.800000
851.223511	187.600000
851.257263	197.700000
851.291077	196.600000
851.324829	192.000000
851.358582	191.300000
851.392334	190.400000
851.426086	192.700000
851.459900	200.600000
851.493591	194.600000
851.527344	195.300000
851.561157	192.900000
851.594849	196.200000
851.628662	196.500000
851.662415	201.700000
851.696106	195.800000
851.729858	199.800000
851.763611	189.600000
851.797363	195.600000
851.831116	189.900000
851.864868	196.600000
851.898560	198.100000
851.932312	192.100000
851.966064	196.600000
851.999817	194.700000
852.033569	193.200000
852.067261	199.000000
852.101013	190.500000
852.134766	193.400000
852.168457	183.800000
852.202209	199.600000
852.235901	190.400000
852.269592	197.400000
852.303345	203.500000
852.337036	197.200000
852.370789	194.100000
852.404541	198.900000
852.438171	191.300000
852.471924	194.000000
852.505676	189.100000
852.539307	196.900000
852.573059	189.800000
852.606812	192.900000
852.640442	193.000000
852.674194	200.400000
852.707886	204.100000
852.741577	202.100000
852.775269	188.300000
852.809021	195.400000
852.842651	196.700000
852.876404	197.600000
852.910034	194.600000
852.943787	199.800000
852.977478	195.300000
853.011108	191.000000
853.044861	190.000000
853.078552	201.000000
853.112183	196.200000
853.145874	196.000000
853.179626	185.500000
853.213257	196.100000
853.246948	192.200000
853.280640	203.000000
853.314270	193.500000
853.347961	200.500000
853.381653	196.500000
853.415283	197.200000
853.448975	190.900000
853.482605	193.800000
853.516296	193.600000
853.549988	187.100000
853.583618	196.200000
853.617310	194.900000
853.651001	195.700000
853.684631	189.600000
853.718323	191.500000
853.751953	202.300000
853.785583	185.900000
853.819275	198.700000
853.852966	195.000000
853.886536	185.300000
853.920227	188.600000
853.953918	198.900000
853.987488	192.400000
854.021179	196.900000
854.054749	202.200000
854.088440	195.500000
854.122131	189.200000
854.155701	197.400000
854.189331	190.100000
854.223022	197.200000
854.256592	197.000000
854.290283	189.600000
854.323914	199.100000
854.357483	196.200000
854.391174	196.100000
854.424744	202.900000
854.458374	195.900000
854.492065	204.600000
854.525696	192.400000
854.559265	201.100000
854.592896	205.400000
854.626465	194.900000
854.660095	194.900000
854.693787	195.400000
854.727356	194.100000
854.760986	199.000000
854.794617	195.500000
854.828186	193.700000
854.861816	197.300000
854.895447	195.200000
854.929016	196.600000
854.962585	197.500000
854.996155	201.900000
855.029785	197.600000
855.063416	196.500000
855.097046	199.200000
855.130615	189.100000
855.164185	201.500000
855.197754	195.000000
855.231384	198.200000
855.264954	192.500000
855.298523	199.800000
855.332153	194.400000
855.365723	204.400000
855.399292	191.600000
855.432922	193.100000
855.466492	197.400000
855.500061	190.900000
855.533630	191.200000
855.567200	199.000000
855.600769	200.300000
855.634338	197.800000
855.667969	196.100000
855.701477	191.200000
855.735046	190.200000
855.768616	185.600000
855.802185	196.600000
855.835754	211.200000
855.869324	186.400000
855.902893	193.200000
855.936401	199.600000
855.969971	194.700000
856.003540	187.200000
856.037109	199.300000
856.070618	194.200000
856.104187	188.300000
856.137695	192.000000
856.171265	184.200000
856.204834	193.300000
856.238403	198.700000
856.271912	192.400000
856.305481	196.100000
856.338989	187.700000
856.372559	197.700000
856.406128	194.600000
856.439636	198.600000
856.473145	191.900000
856.506653	200.000000
856.540222	193.800000
856.573792	202.600000
856.607300	197.900000
856.640808	188.100000
856.674377	195.300000
856.707825	223.300000
856.741394	199.300000
856.774902	192.000000
856.808472	186.100000
856.841980	196.700000
856.875488	204.200000
856.908936	187.600000
856.942505	193.500000
856.976013	193.800000
857.009521	189.900000
857.043030	195.600000
857.076477	192.800000
857.110046	199.900000
857.143555	195.300000
857.177063	199.400000
857.210571	192.600000
857.244080	187.300000
857.277527	198.400000
857.311035	193.300000
857.344543	197.400000
857.378052	193.700000
857.411499	198.800000
857.445068	203.600000
857.478516	193.300000
857.512024	187.700000
857.545532	192.300000
857.578979	195.600000
857.612427	195.000000
857.645874	190.400000
857.679382	195.300000
857.712891	197.900000
857.746399	193.600000
857.779846	200.300000
857.813354	198.100000
857.846741	194.000000
857.880249	191.300000
857.913757	195.200000
857.947266	196.300000
857.980652	197.000000
858.014160	188.900000
858.047546	193.300000
858.081055	192.000000
858.114563	202.500000
858.147949	188.800000
858.181458	198.400000
858.214844	192.800000
858.248352	185.900000
858.281799	200.700000
858.315308	207.000000
858.348694	196.900000
858.382141	202.300000
858.415588	198.000000
858.449036	199.700000
858.482483	197.200000
858.515930	191.000000
858.549377	195.500000
858.582825	202.600000
858.616211	197.200000
858.649658	198.200000
858.683105	189.300000
858.716553	192.100000
858.750000	188.200000
858.783386	192.600000
858.816833	186.400000
858.850281	196.200000
858.883728	197.600000
858.917114	193.600000
858.950562	204.000000
858.983948	203.400000
859.017395	199.500000
859.050781	193.200000
859.084167	191.600000
859.117615	187.500000
859.151062	197.000000
859.184448	191.200000
859.217834	190.700000
859.251282	192.100000
859.284668	190.000000
859.318054	184.700000
859.351440	191.700000
859.384888	202.200000
859.418274	186.500000
859.451721	185.100000
859.485046	197.200000
859.518494	194.400000
859.551819	190.300000
859.585266	196.600000
859.618652	196.400000
859.652039	188.500000
859.685425	189.600000
859.718811	187.000000
859.752197	183.900000
859.785583	201.200000
859.819031	201.900000
859.852356	197.100000
859.885742	190.700000
859.919067	192.100000
859.952454	192.600000
859.985901	199.200000
860.019287	191.300000
860.052612	0.000000
860.085999	0.000000
860.119324	0.000000
860.152710	0.000000
860.186096	0.000000
860.219421	0.000000
860.252808	0.000000
860.286133	0.000000
860.319519	0.000000
860.352905	0.000000
860.386292	0.000000
860.419617	0.000000
860.452942	0.000000
860.486267	0.000000
860.519653	0.000000
860.553040	0.000000
860.586365	0.000000
860.619690	0.000000
860.653076	0.000000
860.686340	0.000000
860.719727	0.000000
860.753113	0.000000
860.786377	0.000000
860.819763	0.000000
860.853027	0.000000
860.886414	0.000000
860.919739	0.000000
860.953125	0.000000
860.986389	0.000000
861.019714	0.000000
861.053040	0.000000
861.086365	0.000000
861.119690	0.000000
861.153076	0.000000
861.186340	0.000000
861.219666	0.000000
861.252930	0.000000
861.286316	0.000000
861.319641	0.000000
861.352905	0.000000
861.386230	0.000000
861.419495	0.000000
861.452820	0.000000
861.486145	0.000000
861.519470	0.000000
861.552734	0.000000
861.586060	0.000000
861.619324	0.000000
861.652649	0.000000
861.685974	0.000000
861.719238	0.000000
861.752563	0.000000
861.785828	0.000000
861.819092	0.000000
861.852417	0.000000
861.885742	0.000000
861.918945	0.000000
861.952271	0.000000
861.985535	0.000000
862.018799	0.000000
862.052124	0.000000
862.085449	0.000000
862.118652	0.000000
862.151978	0.000000
862.185181	0.000000
862.218506	0.000000
862.251770	0.000000
862.285034	0.000000
862.318298	0.000000
862.351562	0.000000
862.384827	0.000000
862.418091	0.000000
862.451355	0.000000
862.484619	0.000000
862.517883	0.000000
862.551086	0.000000
862.584351	0.000000
862.617676	0.000000
862.650940	0.000000
862.684143	0.000000
862.717407	0.000000
862.750610	0.000000
862.783875	0.000000
862.817139	0.000000
862.850342	0.000000
862.883606	0.000000
862.916870	0.000000
862.950073	0.000000
862.983337	0.000000
863.016602	0.000000
863.049805	0.000000
863.083069	0.000000
863.116211	0.000000
863.149475	0.000000
863.182739	0.000000
863.216003	0.000000
863.249146	0.000000
863.282410	0.000000
863.315613	0.000000
863.348816	0.000000
863.382080	0.000000
863.415222	0.000000
863.448486	0.000000
863.481689	0.000000
863.514893	0.000000
863.548157	0.000000
863.581360	0.000000
863.614502	0.000000
863.647766	0.000000
863.680908	0.000000
863.714172	0.000000
863.747375	0.000000
863.780579	0.000000
863.813721	0.000000
863.846985	0.000000
863.880127	0.000000
863.913330	0.000000
863.946533	0.000000
863.979675	0.000000
864.012939	0.000000
