Model Number: SPM-001-M   
Serial Number: 10090201
Firmware Version: 004.17.6
Exposure Time: 500000.000000us
Data Taken on: 10-03-2021 12:11:19.485
Wavelength	Amplitude
733.770752	0.000000
733.808716	0.000000
733.846619	0.000000
733.884583	0.000000
733.922546	0.000000
733.960449	0.000000
733.998413	0.000000
734.036377	0.000000
734.074219	0.000000
734.112183	0.000000
734.150085	0.000000
734.188049	0.000000
734.226013	0.000000
734.263916	0.000000
734.301819	0.000000
734.339783	0.000000
734.377686	0.000000
734.415588	0.000000
734.453552	0.000000
734.491455	0.000000
734.529419	0.000000
734.567322	0.000000
734.605225	0.000000
734.643127	0.000000
734.681091	0.000000
734.718994	0.000000
734.756897	0.000000
734.794800	0.000000
734.832703	0.000000
734.870667	0.000000
734.908508	0.000000
734.946472	0.000000
734.984375	0.000000
735.022278	0.000000
735.060181	0.000000
735.098083	0.000000
735.135986	0.000000
735.173889	0.000000
735.211792	0.000000
735.249695	0.000000
735.287598	0.000000
735.325439	0.000000
735.363403	0.000000
735.401306	0.000000
735.439148	0.000000
735.477051	0.000000
735.515015	0.000000
735.552856	0.000000
735.590759	0.000000
735.628662	0.000000
735.666504	0.000000
735.704407	0.000000
735.742310	0.000000
735.780212	0.000000
735.818115	0.000000
735.856018	0.000000
735.893860	0.000000
735.931763	0.000000
735.969604	0.000000
736.007507	0.000000
736.045410	0.000000
736.083252	0.000000
736.121094	0.000000
736.158997	0.000000
736.196838	0.000000
736.234741	0.000000
736.272644	0.000000
736.310486	0.000000
736.348389	0.000000
736.386230	0.000000
736.424072	0.000000
736.461975	0.000000
736.499878	0.000000
736.537720	0.000000
736.575562	0.000000
736.613403	0.000000
736.651306	0.000000
736.689148	0.000000
736.726990	0.000000
736.764893	0.000000
736.802734	0.000000
736.840576	0.000000
736.878418	0.000000
736.916321	0.000000
736.954102	0.000000
736.992004	0.000000
737.029846	0.000000
737.067688	0.000000
737.105530	0.000000
737.143372	0.000000
737.181213	0.000000
737.219116	0.000000
737.256897	0.000000
737.294739	0.000000
737.332642	0.000000
737.370422	0.000000
737.408325	0.000000
737.446167	0.000000
737.483948	0.000000
737.521790	0.000000
737.559692	0.000000
737.597473	0.000000
737.635315	0.000000
737.673157	0.000000
737.710999	0.000000
737.748840	0.000000
737.786621	0.000000
737.824463	0.000000
737.862305	0.000000
737.900085	0.000000
737.937927	0.000000
737.975769	0.000000
738.013550	0.000000
738.051392	0.000000
738.089233	0.000000
738.127014	0.000000
738.164856	0.000000
738.202698	0.000000
738.240479	0.000000
738.278320	0.000000
738.316162	0.000000
738.353943	0.000000
738.391785	0.000000
738.429565	0.000000
738.467407	0.000000
738.505188	0.000000
738.542969	0.000000
738.580811	0.000000
738.618652	0.000000
738.656372	0.000000
738.694214	0.000000
738.732056	0.000000
738.769836	0.000000
738.807617	0.000000
738.845459	0.000000
738.883240	0.000000
738.921021	0.000000
738.958862	0.000000
738.996582	0.000000
739.034424	0.000000
739.072205	0.000000
739.109985	0.000000
739.147827	0.000000
739.185547	0.000000
739.223389	0.000000
739.261169	0.000000
739.298889	0.000000
739.336731	0.000000
739.374512	0.000000
739.412292	0.000000
739.450073	0.000000
739.487854	0.000000
739.525635	0.000000
739.563416	0.000000
739.601135	0.000000
739.638977	0.000000
739.676758	0.000000
739.714478	0.000000
739.752258	0.000000
739.790100	0.000000
739.827820	0.000000
739.865601	0.000000
739.903381	0.000000
739.941101	0.000000
739.978882	196.100000
740.016724	190.000000
740.054443	196.800000
740.092224	188.900000
740.130005	188.100000
740.167725	189.300000
740.205505	188.700000
740.243225	199.800000
740.281006	193.400000
740.318787	184.900000
740.356506	198.100000
740.394287	198.800000
740.432068	188.300000
740.469727	187.000000
740.507507	196.200000
740.545288	192.100000
740.583008	195.000000
740.620789	193.300000
740.658569	183.700000
740.696228	192.400000
740.734009	198.800000
740.771790	181.400000
740.809509	196.300000
740.847229	189.000000
740.884949	188.100000
740.922729	185.800000
740.960449	191.100000
740.998169	188.100000
741.035950	188.200000
741.073669	194.300000
741.111389	194.000000
741.149170	203.700000
741.186890	203.200000
741.224609	197.600000
741.262329	193.300000
741.300110	203.000000
741.337769	187.700000
741.375549	186.100000
741.413208	194.100000
741.450989	189.200000
741.488708	190.800000
741.526367	190.300000
741.564148	195.700000
741.601868	196.900000
741.639526	191.200000
741.677307	193.900000
741.715027	194.200000
741.752686	189.300000
741.790466	201.800000
741.828186	195.900000
741.865845	188.200000
741.903564	184.100000
741.941345	191.900000
741.979004	189.000000
742.016724	195.600000
742.054382	193.000000
742.092102	198.200000
742.129822	184.700000
742.167480	190.100000
742.205200	190.800000
742.242920	194.400000
742.280640	196.000000
742.318359	189.500000
742.356079	189.100000
742.393738	196.000000
742.431396	189.800000
742.469116	196.300000
742.506775	181.700000
742.544495	195.800000
742.582214	197.000000
742.619873	192.100000
742.657593	199.500000
742.695251	197.300000
742.732971	192.300000
742.770630	195.200000
742.808289	191.900000
742.846008	192.000000
742.883728	195.700000
742.921326	192.300000
742.959045	190.000000
742.996765	192.900000
743.034424	192.500000
743.072083	189.700000
743.109802	192.700000
743.147400	186.300000
743.185120	193.700000
743.222839	191.400000
743.260437	198.600000
743.298157	193.700000
743.335754	184.000000
743.373474	191.600000
743.411133	183.000000
743.448792	192.200000
743.486450	192.600000
743.524170	185.500000
743.561768	192.800000
743.599487	199.700000
743.637146	204.300000
743.674744	190.600000
743.712463	190.300000
743.750122	192.800000
743.787720	196.000000
743.825439	187.500000
743.863037	190.700000
743.900696	192.200000
743.938416	217.600000
743.976013	191.300000
744.013672	201.900000
744.051331	196.900000
744.088928	201.100000
744.126587	198.400000
744.164307	194.200000
744.201904	188.900000
744.239563	196.400000
744.277222	194.900000
744.314819	192.100000
744.352478	198.800000
744.390137	194.200000
744.427734	194.500000
744.465393	189.800000
744.502991	188.500000
744.540649	196.100000
744.578308	193.100000
744.615906	187.900000
744.653564	181.200000
744.691223	197.300000
744.728821	185.300000
744.766418	191.900000
744.804077	194.700000
744.841675	190.300000
744.879333	184.900000
744.916992	193.100000
744.954529	190.300000
744.992187	199.400000
745.029785	191.400000
745.067444	188.400000
745.105042	194.300000
745.142639	194.800000
745.180298	202.300000
745.217896	190.800000
745.255493	191.900000
745.293152	196.100000
745.330750	196.800000
745.368347	200.100000
745.405945	195.800000
745.443604	193.300000
745.481140	196.600000
745.518799	189.800000
745.556396	195.900000
745.593994	196.900000
745.631592	191.700000
745.669189	186.400000
745.706787	195.200000
745.744385	188.100000
745.781982	193.900000
745.819580	189.600000
745.857178	191.700000
745.894775	192.400000
745.932373	194.300000
745.969971	193.600000
746.007568	184.200000
746.045166	201.700000
746.082764	199.100000
746.120300	195.900000
746.157898	197.200000
746.195557	192.500000
746.233093	186.800000
746.270691	196.500000
746.308228	196.600000
746.345825	198.100000
746.383423	197.000000
746.420959	188.600000
746.458557	190.300000
746.496155	189.100000
746.533691	192.400000
746.571289	187.800000
746.608887	193.300000
746.646423	195.000000
746.684021	194.100000
746.721619	190.200000
746.759155	194.100000
746.796753	186.300000
746.834351	185.800000
746.871826	188.200000
746.909424	200.700000
746.946960	194.300000
746.984558	191.500000
747.022156	191.100000
747.059631	199.000000
747.097229	195.500000
747.134827	190.600000
747.172363	199.000000
747.209900	193.300000
747.247498	188.000000
747.285034	200.100000
747.322571	200.200000
747.360168	191.800000
747.397644	185.900000
747.435242	196.700000
747.472778	200.100000
747.510315	189.200000
747.547913	191.300000
747.585388	200.700000
747.622925	192.300000
747.660522	183.800000
747.697998	188.400000
747.735596	192.000000
747.773132	189.700000
747.810669	191.900000
747.848206	196.500000
747.885742	186.600000
747.923279	187.800000
747.960815	196.100000
747.998352	193.400000
748.035889	198.200000
748.073425	198.600000
748.110901	188.600000
748.148437	189.300000
748.185974	192.500000
748.223511	203.300000
748.261047	193.500000
748.298584	193.700000
748.336060	192.800000
748.373596	196.100000
748.411133	211.400000
748.448608	188.900000
748.486145	195.300000
748.523682	201.000000
748.561218	197.500000
748.598755	194.100000
748.636292	197.300000
748.673706	190.800000
748.711243	198.000000
748.748718	194.100000
748.786255	190.800000
748.823792	193.000000
748.861267	188.400000
748.898804	194.600000
748.936340	195.200000
748.973816	190.500000
749.011292	198.500000
749.048828	194.500000
749.086304	198.300000
749.123840	204.700000
749.161316	187.600000
749.198792	202.700000
749.236328	199.300000
749.273743	193.900000
749.311279	191.600000
749.348816	193.700000
749.386230	194.400000
749.423767	181.000000
749.461304	196.100000
749.498718	195.400000
749.536255	201.300000
749.573730	206.700000
749.611206	198.300000
749.648682	193.200000
749.686218	192.300000
749.723633	197.300000
749.761169	191.200000
749.798645	189.200000
749.836060	192.700000
749.873596	191.700000
749.911011	193.900000
749.948547	200.500000
749.986023	193.000000
750.023437	191.700000
750.060913	185.900000
750.098450	187.000000
750.135864	194.500000
750.173340	192.600000
750.210815	197.700000
750.248291	188.900000
750.285767	193.100000
750.323242	200.000000
750.360657	195.300000
750.398132	188.400000
750.435608	196.400000
750.473022	188.500000
750.510498	187.800000
750.547974	189.600000
750.585449	190.800000
750.622925	181.500000
750.660339	201.900000
750.697815	194.000000
750.735291	191.900000
750.772644	194.200000
750.810120	191.600000
750.847595	195.400000
750.885010	188.600000
750.922485	202.900000
750.959961	191.200000
750.997375	200.700000
751.034851	196.700000
751.072266	197.500000
751.109680	186.300000
751.147156	199.600000
751.184570	195.400000
751.221985	195.200000
751.259460	184.200000
751.296875	193.300000
751.334290	192.900000
751.371765	198.100000
751.409180	196.900000
751.446594	199.400000
751.484070	196.000000
751.521423	196.300000
751.558899	193.900000
751.596375	201.400000
751.633728	202.200000
751.671204	209.000000
751.708618	188.600000
751.746033	194.500000
751.783447	188.500000
751.820801	191.100000
751.858276	195.500000
751.895691	192.400000
751.933105	191.800000
751.970520	188.600000
752.007935	190.900000
752.045349	197.900000
752.082764	193.700000
752.120178	192.200000
752.157532	188.900000
752.195007	191.100000
752.232422	196.100000
752.269775	200.100000
752.307190	196.300000
752.344543	189.100000
752.382019	192.100000
752.419434	192.100000
752.456787	194.800000
752.494202	198.000000
752.531616	195.000000
752.568970	197.100000
752.606384	194.800000
752.643799	195.400000
752.681152	202.700000
752.718567	196.700000
752.755981	186.700000
752.793335	195.900000
752.830750	185.100000
752.868164	199.400000
752.905518	188.700000
752.942932	197.500000
752.980225	188.600000
753.017639	198.800000
753.055054	191.500000
753.092407	196.600000
753.129822	201.600000
753.167175	204.300000
753.204529	193.300000
753.241943	188.900000
753.279358	189.100000
753.316650	197.200000
753.354065	197.900000
753.391479	198.200000
753.428772	203.000000
753.466187	198.300000
753.503479	188.300000
753.540894	192.900000
753.578308	188.900000
753.615601	187.700000
753.653015	194.500000
753.690369	191.600000
753.727722	190.200000
753.765076	185.300000
753.802490	187.500000
753.839783	184.600000
753.877136	191.300000
753.914551	209.400000
753.951843	188.700000
753.989258	196.600000
754.026611	195.300000
754.063904	194.400000
754.101257	187.100000
754.138611	184.100000
754.175964	193.500000
754.213318	204.600000
754.250610	186.500000
754.288025	190.300000
754.325378	186.600000
754.362671	200.200000
754.400024	190.600000
754.437378	202.500000
754.474670	203.100000
754.512085	190.600000
754.549438	194.100000
754.586731	192.300000
754.624084	192.100000
754.661438	188.100000
754.698730	201.900000
754.736084	190.900000
754.773376	191.600000
754.810730	196.200000
754.848083	192.500000
754.885315	197.700000
754.922668	186.100000
754.960022	189.200000
754.997314	197.600000
755.034668	195.600000
755.072021	194.400000
755.109253	192.600000
755.146606	201.400000
755.183960	194.000000
755.221252	203.700000
755.258545	201.500000
755.295898	200.500000
755.333191	203.500000
755.370544	197.700000
755.407776	195.400000
755.445129	195.900000
755.482422	200.300000
755.519714	192.400000
755.557068	188.700000
755.594360	186.200000
755.631653	200.900000
755.668945	204.500000
755.706299	197.800000
755.743530	206.800000
755.780884	204.400000
755.818176	203.500000
755.855408	201.700000
755.892761	199.100000
755.930054	197.700000
755.967346	199.600000
756.004639	201.200000
756.041870	198.100000
756.079224	202.200000
756.116516	194.300000
756.153748	202.400000
756.191040	204.200000
756.228394	201.000000
756.265625	195.000000
756.302917	199.200000
756.340210	195.100000
756.377441	204.000000
756.414795	205.800000
756.452087	199.000000
756.489319	192.800000
756.526611	202.700000
756.563843	203.100000
756.601135	211.100000
756.638428	208.800000
756.675659	198.800000
756.712952	205.700000
756.750244	203.400000
756.787476	201.300000
756.824768	208.300000
756.862061	199.400000
756.899292	248.400000
756.936584	206.800000
756.973816	211.400000
757.011047	214.700000
757.048340	202.600000
757.085632	203.000000
757.122864	219.200000
757.160156	200.900000
757.197327	204.800000
757.234619	208.000000
757.271912	202.100000
757.309082	208.700000
757.346375	200.300000
757.383667	210.000000
757.420837	204.500000
757.458130	204.500000
757.495422	202.400000
757.532593	205.800000
757.569885	197.400000
757.607117	199.600000
757.644348	205.600000
757.681580	219.000000
757.718811	193.200000
757.756042	206.500000
757.793335	203.900000
757.830505	208.900000
757.867798	203.100000
757.905029	202.900000
757.942200	209.500000
757.979492	201.100000
758.016724	204.000000
758.053894	204.500000
758.091187	225.400000
758.128418	207.100000
758.165588	207.800000
758.202820	220.200000
758.240112	208.200000
758.277283	218.100000
758.314514	209.000000
758.351685	203.800000
758.388916	217.800000
758.426147	215.200000
758.463379	219.100000
758.500610	212.200000
758.537842	209.600000
758.575012	215.700000
758.612244	206.000000
758.649475	222.400000
758.686646	204.600000
758.723877	218.100000
758.761108	219.700000
758.798279	210.100000
758.835510	213.700000
758.872742	216.200000
758.909851	213.800000
758.947083	214.300000
758.984253	213.800000
759.021484	217.000000
759.058716	217.800000
759.095886	216.600000
759.133057	211.300000
759.170288	216.400000
759.207458	209.200000
759.244690	225.200000
759.281860	222.800000
759.319031	213.200000
759.356262	211.700000
759.393433	213.100000
759.430603	213.100000
759.467773	214.400000
759.505005	220.200000
759.542175	220.100000
759.579346	213.500000
759.616516	215.000000
759.653687	216.800000
759.690918	211.800000
759.728027	216.900000
759.765259	215.700000
759.802429	219.100000
759.839539	218.500000
759.876770	221.700000
759.913940	225.000000
759.951111	217.300000
759.988281	217.100000
760.025452	215.200000
760.062561	212.900000
760.099792	225.900000
760.136963	221.000000
760.174072	215.800000
760.211243	212.600000
760.248413	212.400000
760.285583	214.000000
760.322754	228.800000
760.359863	225.800000
760.397034	226.100000
760.434204	218.800000
760.471375	219.900000
760.508545	217.000000
760.545715	219.100000
760.582825	214.700000
760.619995	224.700000
760.657166	213.100000
760.694275	227.400000
760.731445	224.300000
760.768555	223.500000
760.805664	224.900000
760.842834	224.300000
760.879944	225.900000
760.917114	224.100000
760.954285	222.000000
760.991394	215.600000
761.028564	228.600000
761.065674	227.800000
761.102783	220.500000
761.139954	229.200000
761.177124	228.800000
761.214172	232.100000
761.251343	224.100000
761.288452	225.500000
761.325562	229.000000
761.362732	223.200000
761.399841	225.500000
761.436951	230.600000
761.474121	223.100000
761.511169	229.100000
761.548340	234.000000
761.585449	233.200000
761.622559	235.500000
761.659668	231.500000
761.696838	237.000000
761.733887	234.400000
761.771057	232.000000
761.808167	234.000000
761.845276	238.200000
761.882385	246.700000
761.919434	234.800000
761.956604	256.600000
761.993713	232.600000
762.030762	242.600000
762.067871	237.100000
762.105042	237.300000
762.142090	244.300000
762.179199	239.500000
762.216309	243.800000
762.253418	253.600000
762.290527	249.000000
762.327637	246.200000
762.364685	236.600000
762.401794	245.500000
762.438904	243.100000
762.475952	238.400000
762.513062	237.400000
762.550110	239.000000
762.587219	254.500000
762.624329	253.700000
762.661377	246.100000
762.698486	246.300000
762.735596	246.100000
762.772644	240.600000
762.809753	238.300000
762.846863	245.800000
762.883911	251.100000
762.921021	251.600000
762.958069	250.800000
762.995117	257.600000
763.032227	257.000000
763.069336	248.200000
763.106323	243.100000
763.143433	243.500000
763.180481	250.100000
763.217590	250.300000
763.254639	247.600000
763.291687	252.000000
763.328735	259.700000
763.365845	251.300000
763.402893	250.900000
763.439941	253.800000
763.477051	258.600000
763.514038	259.000000
763.551147	252.100000
763.588196	255.500000
763.625244	252.200000
763.662292	263.300000
763.699402	266.300000
763.736389	260.100000
763.773499	270.100000
763.810486	262.900000
763.847534	262.000000
763.884644	264.700000
763.921631	258.500000
763.958679	273.600000
763.995728	261.600000
764.032776	271.100000
764.069824	257.000000
764.106873	267.000000
764.143860	273.300000
764.180969	265.100000
764.218018	274.800000
764.255005	265.200000
764.292053	268.300000
764.329102	278.900000
764.366089	278.800000
764.403137	275.700000
764.440125	266.200000
764.477173	270.400000
764.514221	271.000000
764.551208	270.800000
764.588257	264.600000
764.625305	277.500000
764.662292	282.800000
764.699341	287.400000
764.736389	279.300000
764.773376	294.600000
764.810425	280.600000
764.847473	287.700000
764.884399	283.800000
764.921448	292.100000
764.958435	288.600000
764.995483	278.500000
765.032532	296.700000
765.069458	282.200000
765.106506	283.800000
765.143555	281.200000
765.180481	284.000000
765.217529	293.700000
765.254578	278.500000
765.291504	288.400000
765.328552	285.800000
765.365540	283.400000
765.402527	297.500000
765.439575	283.100000
765.476501	277.100000
765.513550	280.900000
765.550537	285.500000
765.587463	294.600000
765.624512	285.500000
765.661499	278.200000
765.698486	295.500000
765.735474	284.500000
765.772461	288.500000
765.809448	297.400000
765.846436	294.900000
765.883423	297.800000
765.920410	291.600000
765.957397	288.700000
765.994385	294.700000
766.031311	303.500000
766.068359	296.000000
766.105286	296.300000
766.142273	303.000000
766.179260	297.800000
766.216187	292.100000
766.253174	289.400000
766.290161	299.000000
766.327148	302.700000
766.364136	302.700000
766.401123	318.400000
766.438049	296.600000
766.475037	311.700000
766.512024	307.200000
766.548950	323.000000
766.585937	316.700000
766.622864	312.000000
766.659790	311.900000
766.696777	300.000000
766.733704	318.800000
766.770691	309.600000
766.807678	326.800000
766.844604	319.100000
766.881531	319.800000
766.918518	327.000000
766.955444	328.700000
766.992432	320.300000
767.029358	325.700000
767.066284	328.800000
767.103271	326.400000
767.140198	355.500000
767.177124	342.800000
767.214050	334.800000
767.251038	335.000000
767.287964	333.600000
767.324890	330.200000
767.361816	336.000000
767.398743	341.400000
767.435730	336.500000
767.472595	340.200000
767.509583	347.300000
767.546509	334.900000
767.583374	344.400000
767.620361	335.600000
767.657288	341.600000
767.694214	342.400000
767.731140	342.000000
767.768066	343.800000
767.804993	348.500000
767.841919	341.000000
767.878845	348.100000
767.915710	357.500000
767.952698	349.300000
767.989563	353.100000
768.026489	356.300000
768.063416	349.100000
768.100281	349.000000
768.137207	365.300000
768.174133	360.200000
768.211060	362.100000
768.247986	361.300000
768.284912	360.200000
768.321777	364.000000
768.358704	361.500000
768.395630	365.000000
768.432495	359.200000
768.469421	368.100000
768.506348	373.000000
768.543152	381.000000
768.580078	377.600000
768.616943	377.800000
768.653870	380.700000
768.690796	380.700000
768.727661	376.400000
768.764587	380.500000
768.801453	374.500000
768.838318	385.400000
768.875244	384.700000
768.912109	389.300000
768.948975	382.100000
768.985901	386.000000
769.022766	384.600000
769.059631	393.500000
769.096558	386.200000
769.133362	388.300000
769.170288	388.800000
769.207214	391.200000
769.244019	397.800000
769.280945	395.200000
769.317810	402.100000
769.354675	401.300000
769.391541	408.100000
769.428406	402.900000
769.465271	416.400000
769.502136	403.300000
769.539062	408.200000
769.575867	406.900000
769.612732	408.600000
769.649597	416.500000
769.686462	418.300000
769.723328	411.700000
769.760193	412.000000
769.797058	416.100000
769.833923	426.100000
769.870728	419.500000
769.907593	424.800000
769.944519	421.800000
769.981323	426.000000
770.018188	427.200000
770.055054	423.100000
770.091858	423.800000
770.128723	439.300000
770.165588	443.300000
770.202393	426.200000
770.239258	440.200000
770.276062	433.400000
770.312927	434.600000
770.349792	443.400000
770.386597	441.100000
770.423462	450.800000
770.460327	458.300000
770.497131	441.700000
770.533997	435.000000
770.570862	451.700000
770.607605	452.700000
770.644470	446.200000
770.681335	449.400000
770.718140	449.000000
770.754944	438.800000
770.791809	440.700000
770.828613	444.700000
770.865479	445.800000
770.902222	457.100000
770.939087	449.400000
770.975952	439.800000
771.012695	445.300000
771.049561	463.900000
771.086365	452.000000
771.123169	447.100000
771.159973	452.200000
771.196838	454.000000
771.233582	455.400000
771.270447	457.000000
771.307251	456.900000
771.344055	456.900000
771.380859	459.400000
771.417664	452.000000
771.454468	463.300000
771.491272	463.800000
771.528076	463.000000
771.564880	462.300000
771.601685	474.000000
771.638428	462.100000
771.675293	469.900000
771.712097	460.100000
771.748840	479.400000
771.785645	467.300000
771.822449	470.100000
771.859253	474.800000
771.896057	471.700000
771.932861	487.400000
771.969604	476.000000
772.006409	470.300000
772.043213	486.400000
772.079956	483.800000
772.116760	473.300000
772.153503	480.400000
772.190308	490.900000
772.227112	482.200000
772.263855	480.000000
772.300659	485.100000
772.337463	494.000000
772.374207	487.100000
772.411011	482.200000
772.447754	487.500000
772.484497	503.000000
772.521301	499.100000
772.558105	499.700000
772.594849	499.900000
772.631592	507.700000
772.668396	507.400000
772.705139	514.600000
772.741882	512.900000
772.778625	522.500000
772.815430	527.200000
772.852173	523.000000
772.888916	527.500000
772.925720	532.900000
772.962463	541.600000
772.999207	534.400000
773.035950	540.900000
773.072754	540.500000
773.109436	536.700000
773.146240	540.400000
773.182922	540.300000
773.219727	553.100000
773.256470	547.400000
773.293152	535.800000
773.329956	542.600000
773.366699	549.600000
773.403381	540.300000
773.440186	553.300000
773.476929	553.300000
773.513611	547.700000
773.550354	548.900000
773.587158	550.400000
773.623840	548.800000
773.660583	560.800000
773.697327	575.900000
773.734009	565.200000
773.770813	564.300000
773.807495	563.600000
773.844238	564.900000
773.880981	584.600000
773.917664	579.100000
773.954407	585.600000
773.991150	574.200000
774.027832	582.300000
774.064575	574.400000
774.101318	586.900000
774.138000	592.800000
774.174744	586.000000
774.211487	589.300000
774.248108	582.300000
774.284851	579.500000
774.321594	594.800000
774.358276	600.000000
774.395020	612.900000
774.431702	606.400000
774.468384	598.900000
774.505127	595.800000
774.541809	610.800000
774.578491	625.700000
774.615234	627.200000
774.651917	615.200000
774.688599	619.600000
774.725342	628.800000
774.762024	627.200000
774.798706	633.900000
774.835449	634.600000
774.872070	641.300000
774.908813	640.300000
774.945496	634.100000
774.982178	636.900000
775.018860	644.400000
775.055542	641.500000
775.092224	644.900000
775.128967	651.500000
775.165588	651.400000
775.202271	641.300000
775.239014	654.400000
775.275635	657.300000
775.312317	658.500000
775.349060	659.200000
775.385681	656.900000
775.422363	649.500000
775.459045	657.500000
775.495667	663.700000
775.532410	672.200000
775.569092	671.000000
775.605713	671.300000
775.642395	666.800000
775.679016	673.100000
775.715698	677.200000
775.752380	683.700000
775.789001	673.000000
775.825684	673.800000
775.862366	676.900000
775.898987	687.400000
775.935669	675.600000
775.972351	700.000000
776.008972	700.200000
776.045654	694.900000
776.082336	687.400000
776.118958	689.300000
776.155640	694.600000
776.192322	706.500000
776.228882	708.700000
776.265564	703.200000
776.302185	697.100000
776.338867	706.900000
776.375488	691.300000
776.412109	709.100000
776.448792	716.600000
776.485413	719.300000
776.522034	708.400000
776.558716	699.300000
776.595337	701.100000
776.631958	708.800000
776.668579	710.300000
776.705261	714.500000
776.741882	712.100000
776.778503	707.100000
776.815186	702.800000
776.851746	713.200000
776.888367	713.700000
776.924988	724.200000
776.961609	712.900000
776.998291	714.500000
777.034851	699.600000
777.071472	719.000000
777.108154	716.600000
777.144714	728.300000
777.181335	726.300000
777.218018	718.700000
777.254578	726.300000
777.291199	719.800000
777.327759	731.800000
777.364380	738.700000
777.401062	745.400000
777.437622	755.600000
777.474243	741.300000
777.510864	749.800000
777.547424	743.800000
777.584045	750.900000
777.620667	752.300000
777.657227	756.400000
777.693848	762.800000
777.730469	780.200000
777.767029	766.900000
777.803650	770.700000
777.840271	765.700000
777.876831	761.900000
777.913452	775.500000
777.950012	754.100000
777.986633	755.300000
778.023193	753.200000
778.059753	754.500000
778.096375	759.100000
778.132996	771.800000
778.169556	756.700000
778.206116	763.400000
778.242737	757.400000
778.279297	774.500000
778.315857	766.200000
778.352478	774.500000
778.389038	784.000000
778.425598	784.600000
778.462219	795.600000
778.498718	795.100000
778.535339	803.100000
778.571838	802.700000
778.608459	816.300000
778.645020	806.700000
778.681580	820.800000
778.718140	824.400000
778.754761	814.800000
778.791260	820.400000
778.827881	833.600000
778.864441	830.600000
778.900940	837.000000
778.937561	835.400000
778.974121	832.700000
779.010620	823.000000
779.047241	826.300000
779.083801	837.300000
779.120300	837.800000
779.156860	841.700000
779.193359	839.200000
779.229980	846.700000
779.266541	853.200000
779.303040	859.900000
779.339600	845.900000
779.376160	843.400000
779.412659	853.000000
779.449219	842.700000
779.485779	855.200000
779.522278	855.700000
779.558838	863.100000
779.595398	865.800000
779.631897	867.400000
779.668457	854.900000
779.705017	870.600000
779.741516	861.700000
779.778076	860.300000
779.814575	866.300000
779.851074	876.700000
779.887634	866.100000
779.924133	875.900000
779.960693	866.600000
779.997253	878.900000
780.033691	882.500000
780.070251	881.600000
780.106812	898.400000
780.143250	897.400000
780.179810	890.400000
780.216370	894.900000
780.252808	908.600000
780.289368	918.500000
780.325867	919.700000
780.362366	922.200000
780.398865	928.500000
780.435364	917.400000
780.471863	930.800000
780.508423	931.300000
780.544861	939.700000
780.581421	946.100000
780.617920	938.000000
780.654419	935.800000
780.690918	946.000000
780.727417	957.000000
780.763916	952.700000
780.800415	959.000000
780.836914	941.200000
780.873352	951.100000
780.909912	943.400000
780.946411	948.400000
780.982849	960.500000
781.019348	978.800000
781.055786	970.600000
781.092346	965.800000
781.128845	978.600000
781.165283	982.600000
781.201782	983.300000
781.238281	991.700000
781.274719	999.600000
781.311218	982.800000
781.347717	996.600000
781.384155	983.400000
781.420654	989.500000
781.457092	1000.000000
781.493591	997.900000
781.530090	989.100000
781.566528	994.500000
781.602966	995.200000
781.639465	994.500000
781.675903	992.900000
781.712402	1002.300000
781.748901	1009.700000
781.785278	1001.400000
781.821777	1008.000000
781.858276	1001.600000
781.894714	1023.400000
781.931152	1011.800000
781.967651	1019.200000
782.004089	1007.600000
782.040527	1018.200000
782.076965	1012.500000
782.113403	1024.200000
782.149902	1025.600000
782.186340	1016.800000
782.222778	1031.000000
782.259277	1017.100000
782.295654	1011.600000
782.332092	1024.300000
782.368591	1015.600000
782.404968	1006.700000
782.441467	1018.700000
782.477905	1012.400000
782.514282	1009.700000
782.550781	1038.100000
782.587219	1034.800000
782.623596	1031.700000
782.660095	1034.300000
782.696472	1039.200000
782.732910	1039.100000
782.769348	1054.200000
782.805786	1068.900000
782.842224	1059.000000
782.878662	1054.800000
782.915039	1060.700000
782.951477	1055.900000
782.987915	1051.900000
783.024292	1056.700000
783.060730	1054.800000
783.097168	1045.400000
783.133545	1039.100000
783.169983	1030.900000
783.206421	1027.700000
783.242798	1028.700000
783.279236	1014.800000
783.315613	1009.000000
783.352051	1007.500000
783.388489	995.200000
783.424866	988.200000
783.461304	996.600000
783.497681	1001.400000
783.534058	997.100000
783.570496	992.000000
783.606934	988.300000
783.643250	996.000000
783.679687	1002.300000
783.716125	996.900000
783.752441	1008.400000
783.788879	1028.200000
783.825317	1032.900000
783.861633	1037.800000
783.898071	1039.600000
783.934448	1063.400000
783.970825	1075.400000
784.007263	1073.000000
784.043579	1067.800000
784.080017	1073.300000
784.116394	1060.000000
784.152710	1045.100000
784.189148	1031.400000
784.225525	1004.000000
784.261902	956.600000
784.298279	912.300000
784.334656	873.500000
784.371033	825.500000
784.407410	794.100000
784.443787	740.900000
784.480164	692.300000
784.516541	650.900000
784.552856	633.400000
784.589233	611.600000
784.625610	603.300000
784.661987	636.600000
784.698364	634.900000
784.734741	644.100000
784.771057	666.700000
784.807434	696.400000
784.843811	740.900000
784.880127	766.000000
784.916504	825.200000
784.952881	858.000000
784.989197	885.600000
785.025574	915.300000
785.061951	954.600000
785.098267	1011.600000
785.134644	1029.300000
785.170959	1049.800000
785.207275	1070.800000
785.243652	1087.600000
785.279968	1086.400000
785.316345	1100.300000
785.352722	1111.600000
785.388977	1120.200000
785.425354	1101.500000
785.461731	1077.400000
785.498047	1079.800000
785.534363	1075.100000
785.570679	1077.000000
785.606995	1078.900000
785.643372	1084.400000
785.679687	1075.500000
785.716003	1057.000000
785.752380	1058.300000
785.788635	1065.700000
785.825012	1085.900000
785.861328	1103.100000
785.897644	1080.200000
785.933960	1098.800000
785.970337	1108.300000
786.006592	1122.300000
786.042908	1136.700000
786.079285	1152.900000
786.115540	1160.800000
786.151855	1157.600000
786.188171	1154.900000
786.224487	1157.000000
786.260803	1156.700000
786.297119	1176.400000
786.333435	1176.800000
786.369751	1172.600000
786.406006	1171.100000
786.442322	1154.000000
786.478638	1146.200000
786.514954	1165.300000
786.551270	1162.600000
786.587585	1175.500000
786.623840	1164.200000
786.660156	1151.700000
786.696472	1136.000000
786.732727	1131.500000
786.769043	1137.000000
786.805298	1123.600000
786.841614	1132.000000
786.877930	1133.500000
786.914124	1118.400000
786.950439	1132.300000
786.986755	1143.200000
787.023010	1163.100000
787.059326	1166.000000
787.095642	1165.000000
787.131836	1179.800000
787.168152	1166.000000
787.204468	1175.700000
787.240723	1202.500000
787.276978	1213.200000
787.313293	1216.000000
787.349548	1219.200000
787.385803	1217.200000
787.422058	1211.300000
787.458313	1213.500000
787.494629	1217.600000
787.530823	1213.600000
787.567139	1200.700000
787.603455	1193.500000
787.639648	1173.900000
787.675903	1178.500000
787.712219	1182.600000
787.748413	1180.100000
787.784729	1184.600000
787.820984	1174.500000
787.857178	1159.800000
787.893494	1149.700000
787.929749	1149.900000
787.965942	1158.400000
788.002258	1170.800000
788.038452	1179.600000
788.074707	1166.700000
788.110962	1168.700000
788.147217	1164.800000
788.183472	1175.100000
788.219727	1193.200000
788.255920	1204.000000
788.292175	1204.700000
788.328430	1204.600000
788.364624	1183.900000
788.400879	1174.400000
788.437134	1183.300000
788.473328	1188.700000
788.509583	1184.800000
788.545837	1181.100000
788.582031	1165.500000
788.618286	1155.600000
788.654480	1156.400000
788.690735	1167.000000
788.726990	1186.200000
788.763184	1184.600000
788.799377	1195.100000
788.835632	1178.100000
788.871826	1199.400000
788.908081	1203.500000
788.944336	1196.600000
788.980469	1213.900000
789.016724	1209.200000
789.052979	1205.200000
789.089111	1187.100000
789.125366	1184.500000
789.161621	1170.800000
789.197754	1193.700000
789.234009	1178.100000
789.270142	1168.700000
789.306396	1155.900000
789.342590	1138.200000
789.378784	1116.500000
789.414978	1120.200000
789.451233	1141.000000
789.487366	1135.200000
789.523621	1141.100000
789.559814	1126.600000
789.595947	1122.000000
789.632202	1130.200000
789.668335	1144.000000
789.704529	1162.900000
789.740784	1186.200000
789.776917	1183.400000
789.813110	1170.200000
789.849304	1186.900000
789.885498	1188.900000
789.921692	1206.200000
789.957886	1213.500000
789.994019	1217.400000
790.030212	1204.700000
790.066406	1202.900000
790.102539	1197.300000
790.138733	1209.100000
790.174927	1206.200000
790.211060	1222.000000
790.247253	1196.300000
790.283386	1187.700000
790.319580	1178.500000
790.355774	1161.300000
790.391907	1167.300000
790.428101	1191.900000
790.464294	1191.600000
790.500427	1191.100000
790.536621	1175.400000
790.572754	1156.700000
790.608887	1160.200000
790.645081	1165.500000
790.681274	1189.800000
790.717346	1184.900000
790.753540	1148.900000
790.789734	1069.000000
790.825867	1013.600000
790.862000	1012.400000
790.898132	1048.800000
790.934265	1114.000000
790.970459	1170.700000
791.006592	1189.400000
791.042725	1191.100000
791.078918	1179.600000
791.114990	1188.400000
791.151184	1195.900000
791.187317	1218.900000
791.223389	1210.100000
791.259583	1196.000000
791.295715	1207.100000
791.331848	1206.100000
791.367981	1225.900000
791.404114	1227.500000
791.440247	1227.700000
791.476379	1227.800000
791.512451	1203.900000
791.548584	1209.000000
791.584778	1203.900000
791.620850	1227.600000
791.656982	1232.300000
791.693115	1226.600000
791.729187	1223.500000
791.765381	1205.000000
791.801514	1201.600000
791.837585	1210.600000
791.873718	1215.000000
791.909851	1232.000000
791.945923	1235.200000
791.982056	1204.700000
792.018188	1199.900000
792.054260	1201.000000
792.090393	1204.800000
792.126465	1203.200000
792.162598	1213.900000
792.198669	1195.800000
792.234741	1188.600000
792.270874	1180.300000
792.307007	1165.600000
792.343079	1175.600000
792.379150	1191.200000
792.415283	1170.700000
792.451355	1176.800000
792.487488	1156.100000
792.523560	1151.600000
792.559631	1155.200000
792.595764	1151.800000
792.631836	1160.700000
792.667908	1166.000000
792.703979	1148.300000
792.740051	1144.300000
792.776184	1152.200000
792.812256	1152.700000
792.848328	1162.700000
792.884399	1174.200000
792.920471	1167.200000
792.956543	1157.300000
792.992615	1156.900000
793.028748	1152.600000
793.064758	1159.200000
793.100830	1184.600000
793.136963	1193.800000
793.172974	1179.800000
793.209045	1176.800000
793.245178	1189.600000
793.281189	1174.200000
793.317261	1184.000000
793.353271	1183.500000
793.389404	1192.000000
793.425476	1183.900000
793.461487	1164.600000
793.497559	1161.400000
793.533630	1170.600000
793.569641	1172.400000
793.605713	1174.700000
793.641785	1178.500000
793.677795	1184.100000
793.713867	1170.600000
793.749878	1176.000000
793.785950	1190.600000
793.822021	1196.800000
793.858032	1181.400000
793.894104	1195.400000
793.930176	1178.000000
793.966187	1181.700000
794.002258	1168.500000
794.038269	1175.400000
794.074280	1171.000000
794.110352	1192.100000
794.146423	1164.600000
794.182373	1159.000000
794.218445	1149.000000
794.254517	1137.200000
794.290466	1127.000000
794.326538	1134.200000
794.362549	1133.200000
794.398560	1142.400000
794.434631	1140.400000
794.470581	1115.300000
794.506653	1108.600000
794.542664	1108.800000
794.578674	1112.100000
794.614685	1106.900000
794.650757	1099.100000
794.686707	1096.800000
794.722778	1091.200000
794.758789	1096.000000
794.794739	1100.700000
794.830811	1130.700000
794.866821	1145.000000
794.902771	1134.500000
794.938843	1126.400000
794.974792	1126.600000
795.010803	1126.700000
795.046814	1124.900000
795.082825	1111.700000
795.118835	1128.200000
795.154846	1106.200000
795.190796	1109.800000
795.226807	1081.000000
795.262817	1090.100000
795.298767	1093.500000
795.334778	1092.100000
795.370850	1080.400000
795.406799	1083.800000
795.442810	1063.600000
795.478821	1060.800000
795.514709	1066.400000
795.550720	1086.500000
795.586670	1064.800000
795.622681	1065.300000
795.658691	1062.700000
795.694641	1056.500000
795.730652	1045.600000
795.766663	1057.700000
795.802551	1054.100000
795.838562	1072.000000
795.874573	1059.600000
795.910522	1055.100000
795.946472	1047.400000
795.982483	1049.500000
796.018433	1053.800000
796.054382	1064.700000
796.090393	1052.500000
796.126282	1042.900000
796.162292	1031.700000
796.198242	1023.000000
796.234192	1026.400000
796.270203	1025.500000
796.306091	1030.700000
796.342041	1044.100000
796.378052	1029.300000
796.413940	1024.400000
796.449951	1025.100000
796.485901	1025.900000
796.521790	1026.700000
796.557800	1041.800000
796.593689	1038.100000
796.629639	1025.700000
796.665649	1022.400000
796.701599	1016.000000
796.737488	1017.500000
796.773437	1027.500000
796.809387	1022.600000
796.845337	1022.700000
796.881287	1010.800000
796.917175	991.500000
796.953125	995.300000
796.989075	1006.600000
797.024963	1012.800000
797.060913	1006.900000
797.096863	1008.300000
797.132751	1002.200000
797.168701	985.600000
797.204590	989.200000
797.240540	994.000000
797.276489	999.600000
797.312439	1003.200000
797.348328	993.800000
797.384277	984.500000
797.420166	977.700000
797.456055	978.000000
797.492004	974.900000
797.527893	983.800000
797.563843	984.300000
797.599731	970.100000
797.635620	960.100000
797.671570	971.800000
797.707520	968.500000
797.743347	966.400000
797.779297	983.600000
797.815125	972.000000
797.851074	960.800000
797.887024	951.700000
797.922913	942.000000
797.958801	963.900000
797.994690	960.600000
798.030579	963.600000
798.066467	964.700000
798.102356	949.000000
798.138245	943.700000
798.174133	939.400000
798.210083	953.300000
798.245911	959.000000
798.281799	964.200000
798.317749	952.600000
798.353577	942.500000
798.389465	934.700000
798.425293	933.000000
798.461243	928.400000
798.497131	938.100000
798.532959	941.700000
798.568848	942.300000
798.604736	929.100000
798.640564	916.400000
798.676453	916.900000
798.712402	925.400000
798.748230	930.100000
798.784119	922.900000
798.820007	928.100000
798.855835	921.500000
798.891724	914.600000
798.927551	911.100000
798.963379	919.000000
798.999268	918.300000
799.035095	912.700000
799.070984	903.000000
799.106873	892.600000
799.142700	905.400000
799.178528	898.400000
799.214417	895.900000
799.250244	912.900000
799.286133	904.000000
799.321960	895.400000
799.357788	890.900000
799.393677	891.500000
799.429504	889.200000
799.465332	894.100000
799.501221	901.100000
799.537048	894.300000
799.572876	888.100000
799.608704	886.100000
799.644531	892.700000
799.680359	891.400000
799.716248	898.800000
799.752014	902.600000
799.787903	892.400000
799.823730	889.700000
799.859558	878.600000
799.895386	883.900000
799.931213	884.600000
799.967041	878.200000
800.002869	872.400000
800.038696	881.200000
800.074463	858.500000
800.110352	864.500000
800.146179	854.800000
800.181946	866.100000
800.217773	865.800000
800.253540	862.300000
800.289429	856.100000
800.325256	855.900000
800.361023	847.000000
800.396851	850.300000
800.432678	847.100000
800.468445	842.500000
800.504272	834.400000
800.540100	820.400000
800.575867	819.800000
800.611694	828.800000
800.647461	822.200000
800.683289	820.800000
800.719116	823.700000
800.754883	818.800000
800.790649	801.000000
800.826477	790.600000
800.862244	815.100000
800.898071	798.300000
800.933838	792.000000
800.969604	792.200000
801.005432	792.100000
801.041199	792.700000
801.076965	781.900000
801.112793	777.500000
801.148560	768.500000
801.184326	769.700000
801.220154	769.400000
801.255859	758.100000
801.291687	757.800000
801.327454	753.000000
801.363281	753.400000
801.398987	751.100000
801.434814	752.100000
801.470520	761.100000
801.506287	745.300000
801.542114	741.100000
801.577820	742.700000
801.613647	745.500000
801.649414	741.400000
801.685120	736.000000
801.720886	741.400000
801.756714	730.400000
801.792419	722.000000
801.828186	717.500000
801.863892	724.200000
801.899719	715.100000
801.935486	713.000000
801.971252	719.000000
802.006958	713.600000
802.042725	707.200000
802.078430	706.900000
802.114197	703.600000
802.149963	719.000000
802.185669	704.700000
802.221436	701.700000
802.257202	702.100000
802.292908	696.500000
802.328674	706.500000
802.364441	705.400000
802.400146	701.300000
802.435913	692.700000
802.471558	689.100000
802.507324	683.900000
802.543091	676.300000
802.578796	689.900000
802.614502	692.100000
802.650269	693.200000
802.685974	675.300000
802.721741	681.700000
802.757446	685.400000
802.793152	681.700000
802.828918	688.700000
802.864624	683.500000
802.900330	683.700000
802.936035	679.900000
802.971802	673.300000
803.007446	670.300000
803.043213	661.900000
803.078857	668.900000
803.114624	656.900000
803.150330	660.800000
803.185974	653.700000
803.221741	653.900000
803.257446	659.000000
803.293152	659.300000
803.328857	652.200000
803.364563	646.600000
803.400208	639.800000
803.435974	651.500000
803.471680	643.000000
803.507324	637.100000
803.543030	648.000000
803.578735	646.600000
803.614441	634.800000
803.650146	641.000000
803.685791	625.400000
803.721497	630.900000
803.757202	620.700000
803.792847	630.200000
803.828552	621.300000
803.864258	621.700000
803.899902	621.200000
803.935608	603.200000
803.971313	610.900000
804.006958	610.800000
804.042664	605.900000
804.078308	611.500000
804.113953	603.900000
804.149658	612.900000
804.185364	600.900000
804.221008	610.700000
804.256714	598.700000
804.292297	595.600000
804.328003	591.500000
804.363708	586.000000
804.399292	585.600000
804.434998	588.200000
804.470703	577.800000
804.506287	593.900000
804.541992	584.800000
804.577637	588.500000
804.613281	577.000000
804.648926	571.900000
804.684570	576.800000
804.720215	573.700000
804.755920	574.400000
804.791565	569.000000
804.827209	572.400000
804.862854	568.600000
804.898437	561.000000
804.934143	564.000000
804.969788	562.400000
805.005371	563.500000
805.041077	564.300000
805.076721	562.700000
805.112305	554.900000
805.147949	553.600000
805.183655	552.100000
805.219238	554.400000
805.254883	550.600000
805.290466	558.700000
805.326111	550.300000
805.361755	540.100000
805.397400	545.400000
805.432983	551.100000
805.468628	549.600000
805.504211	555.600000
805.539856	550.000000
805.575500	555.000000
805.611084	542.800000
805.646729	531.900000
805.682373	538.300000
805.717957	549.900000
805.753601	550.700000
805.789246	533.800000
805.824768	540.300000
805.860413	544.900000
805.895996	532.500000
805.931641	532.800000
805.967224	539.100000
806.002869	530.100000
806.038452	542.000000
806.074036	534.800000
806.109619	524.800000
806.145264	518.400000
806.180847	522.500000
806.216431	516.500000
806.252014	524.400000
806.287659	522.000000
806.323181	530.700000
806.358826	525.900000
806.394409	506.600000
806.429993	510.800000
806.465576	522.400000
806.501160	505.200000
806.536743	498.500000
806.572327	510.300000
806.607910	505.600000
806.643494	504.700000
806.679077	501.600000
806.714661	503.200000
806.750244	501.200000
806.785828	493.200000
806.821350	495.300000
806.856934	502.200000
806.892517	497.600000
806.928101	491.100000
806.963684	489.900000
806.999268	499.900000
807.034790	480.200000
807.070374	486.100000
807.105896	479.800000
807.141479	478.200000
807.177063	486.000000
807.212585	476.700000
807.248169	476.100000
807.283752	482.000000
807.319275	475.800000
807.354858	473.700000
807.390381	471.400000
807.425903	469.800000
807.461487	465.500000
807.497070	459.900000
807.532593	461.900000
807.568115	461.900000
807.603699	457.100000
807.639221	451.500000
807.674744	458.400000
807.710266	460.900000
807.745850	461.800000
807.781372	453.500000
807.816895	450.800000
807.852417	455.000000
807.888000	447.900000
807.923523	447.400000
807.959045	449.400000
807.994629	438.900000
808.030090	437.400000
808.065613	444.600000
808.101135	445.700000
808.136658	443.000000
808.172241	439.100000
808.207764	436.700000
808.243225	434.300000
808.278809	429.200000
808.314270	437.500000
808.349792	424.200000
808.385315	422.300000
808.420837	428.900000
808.456360	432.700000
808.491882	429.800000
808.527344	425.500000
808.562866	434.300000
808.598389	425.600000
808.633850	419.200000
808.669434	416.700000
808.704895	427.500000
808.740417	431.800000
808.775940	420.800000
808.811462	417.000000
808.846924	411.100000
808.882385	404.100000
808.917847	405.000000
808.953369	408.100000
808.988892	399.500000
809.024353	410.200000
809.059875	408.800000
809.095398	405.700000
809.130798	400.100000
809.166321	397.700000
809.201843	396.400000
809.237305	400.800000
809.272766	405.200000
809.308228	392.400000
809.343750	389.700000
809.379211	391.300000
809.414734	390.800000
809.450134	400.500000
809.485657	381.700000
809.521118	390.200000
809.556580	388.200000
809.592102	385.700000
809.627502	381.700000
809.663025	381.300000
809.698486	378.400000
809.733887	373.100000
809.769409	376.900000
809.804871	367.700000
809.840271	368.700000
809.875793	371.200000
809.911194	374.800000
809.946655	368.100000
809.982178	364.400000
810.017639	368.400000
810.053040	365.300000
810.088501	364.400000
810.123901	363.600000
810.159424	359.100000
810.194885	355.500000
810.230286	362.000000
810.265747	353.500000
810.301208	350.800000
810.336609	354.000000
810.372070	348.700000
810.407532	350.600000
810.442932	352.600000
810.478394	356.100000
810.513794	349.700000
810.549255	349.700000
810.584717	347.800000
810.620117	341.400000
810.655518	349.600000
810.690979	345.200000
810.726379	344.500000
810.761841	332.500000
810.797302	337.500000
810.832642	336.500000
810.868103	345.600000
810.903564	334.400000
810.938904	342.100000
810.974365	328.000000
811.009827	333.800000
811.045166	329.600000
811.080627	321.900000
811.115967	330.300000
811.151428	337.400000
811.186829	327.900000
811.222229	329.000000
811.257629	323.500000
811.293091	328.600000
811.328430	333.300000
811.363892	328.600000
811.399292	329.800000
811.434631	323.800000
811.470093	329.000000
811.505493	318.900000
811.540833	321.600000
811.576294	326.100000
811.611694	320.900000
811.647034	315.300000
811.682434	318.400000
811.717773	319.100000
811.753235	326.900000
811.788635	318.100000
811.823975	320.000000
811.859375	328.200000
811.894775	312.800000
811.930115	315.200000
811.965515	314.800000
812.000916	318.700000
812.036255	312.600000
812.071655	317.100000
812.106995	308.700000
812.142395	310.300000
812.177795	319.300000
812.213196	315.000000
812.248474	316.800000
812.283875	306.800000
812.319214	309.200000
812.354614	309.000000
812.390015	306.600000
812.425293	307.300000
812.460693	307.700000
812.496094	304.200000
812.531433	297.400000
812.566772	297.200000
812.602173	301.700000
812.637451	301.900000
812.672852	296.700000
812.708191	304.000000
812.743530	296.600000
812.778931	287.900000
812.814270	292.100000
812.849609	301.200000
812.884949	293.400000
812.920227	288.100000
812.955627	304.800000
812.990967	294.600000
813.026306	289.500000
813.061646	280.100000
813.096985	277.600000
813.132324	275.800000
813.167664	281.600000
813.203003	286.400000
813.238281	272.800000
813.273682	275.400000
813.308960	270.600000
813.344299	274.900000
813.379639	282.200000
813.414978	274.500000
813.450256	273.800000
813.485596	279.300000
813.520874	270.900000
813.556213	274.900000
813.591614	280.100000
813.626831	268.900000
813.662170	273.200000
813.697510	284.500000
813.732788	266.700000
813.768127	273.100000
813.803467	274.000000
813.838745	269.500000
813.874084	271.000000
813.909363	272.400000
813.944641	272.200000
813.979980	262.100000
814.015320	266.100000
814.050598	263.300000
814.085876	267.700000
814.121155	265.400000
814.156494	262.500000
814.191772	262.000000
814.227051	260.000000
814.262390	263.900000
814.297668	263.900000
814.332947	263.100000
814.368225	256.200000
814.403564	258.100000
814.438782	255.900000
814.474121	259.200000
814.509338	256.300000
814.544617	263.500000
814.579956	253.100000
814.615173	263.300000
814.650513	262.100000
814.685791	253.000000
814.721008	256.400000
814.756348	253.800000
814.791626	250.200000
814.826843	252.200000
814.862122	252.800000
814.897400	249.100000
814.932678	253.600000
814.967957	254.000000
815.003235	250.400000
815.038452	243.100000
815.073730	243.700000
815.108948	252.800000
815.144226	251.300000
815.179504	255.700000
815.214722	239.200000
815.250000	238.700000
815.285278	248.100000
815.320496	240.000000
815.355774	245.600000
815.391052	246.700000
815.426270	242.400000
815.461487	241.200000
815.496765	238.100000
815.531982	231.800000
815.567261	239.700000
815.602539	246.300000
815.637695	242.100000
815.672974	245.100000
815.708191	243.400000
815.743408	244.100000
815.778687	237.400000
815.813904	247.800000
815.849121	229.900000
815.884399	231.500000
815.919556	231.300000
815.954834	232.100000
815.990051	237.400000
816.025269	239.500000
816.060486	230.000000
816.095703	229.900000
816.130920	232.800000
816.166199	230.600000
816.201416	233.400000
816.236572	241.400000
816.271851	229.300000
816.307007	236.500000
816.342224	225.400000
816.377441	230.300000
816.412659	222.900000
816.447876	234.100000
816.483093	228.300000
816.518250	229.100000
816.553467	225.800000
816.588745	230.900000
816.623901	221.100000
816.659119	218.300000
816.694275	223.800000
816.729492	221.500000
816.764709	256.600000
816.799927	217.600000
816.835083	223.900000
816.870300	219.200000
816.905457	222.400000
816.940674	224.800000
816.975830	219.300000
817.010986	217.400000
817.046204	219.100000
817.081421	215.800000
817.116577	215.000000
817.151733	223.500000
817.186951	224.200000
817.222107	220.000000
817.257324	221.500000
817.292419	219.500000
817.327637	212.500000
817.362854	217.900000
817.398010	212.300000
817.433167	213.900000
817.468323	212.600000
817.503479	213.500000
817.538635	222.400000
817.573853	219.100000
817.608948	217.000000
817.644165	211.600000
817.679321	210.900000
817.714478	210.600000
817.749634	215.700000
817.784790	226.900000
817.819946	223.200000
817.855103	202.500000
817.890198	213.200000
817.925415	204.000000
817.960571	212.800000
817.995667	212.200000
818.030823	213.900000
818.066040	206.900000
818.101135	211.600000
818.136292	209.800000
818.171448	204.200000
818.206543	209.700000
818.241699	213.400000
818.276855	209.500000
818.311951	208.700000
818.347107	205.100000
818.382263	211.500000
818.417358	215.700000
818.452515	218.100000
818.487610	216.300000
818.522766	206.000000
818.557922	215.400000
818.593018	213.900000
818.628113	211.100000
818.663269	204.000000
818.698364	208.600000
818.733521	206.800000
818.768677	209.900000
818.803711	202.600000
818.838867	203.000000
818.874023	207.600000
818.909058	201.900000
818.944214	202.900000
818.979370	209.700000
819.014404	208.400000
819.049561	203.100000
819.084595	208.700000
819.119751	198.800000
819.154846	209.000000
819.189941	203.700000
819.225037	198.600000
819.260193	194.700000
819.295227	198.200000
819.330322	194.200000
819.365479	193.000000
819.400513	227.500000
819.435608	191.400000
819.470764	190.700000
819.505798	193.500000
819.540894	197.600000
819.575989	195.700000
819.611084	206.300000
819.646179	203.500000
819.681213	202.500000
819.716309	196.900000
819.751404	197.600000
819.786438	203.100000
819.821533	195.500000
819.856628	199.700000
819.891663	201.900000
819.926758	207.800000
819.961853	205.400000
819.996887	195.500000
820.031982	201.900000
820.067017	196.900000
820.102112	226.900000
820.137207	197.100000
820.172302	213.700000
820.207275	194.800000
820.242371	195.800000
820.277405	195.800000
820.312500	199.400000
820.347534	199.100000
820.382568	203.300000
820.417664	194.600000
820.452759	196.400000
820.487732	193.300000
820.522827	195.800000
820.557861	192.100000
820.592896	195.500000
820.627930	196.800000
820.662964	193.900000
820.698059	198.100000
820.733093	194.100000
820.768127	199.700000
820.803162	196.500000
820.838196	192.900000
820.873230	195.200000
820.908264	195.700000
820.943298	191.400000
820.978333	200.300000
821.013367	196.500000
821.048401	201.000000
821.083435	201.300000
821.118469	187.700000
821.153503	200.400000
821.188477	197.100000
821.223511	187.300000
821.258484	195.900000
821.293579	196.400000
821.328613	187.600000
821.363647	193.300000
821.398621	189.400000
821.433655	190.100000
821.468628	207.200000
821.503662	192.700000
821.538696	197.100000
821.573669	189.000000
821.608704	198.800000
821.643677	190.100000
821.678650	199.100000
821.713684	202.800000
821.748718	192.100000
821.783691	192.700000
821.818726	195.700000
821.853638	196.300000
821.888672	192.000000
821.923706	193.300000
821.958618	192.200000
821.993652	191.500000
822.028687	199.800000
822.063599	200.800000
822.098633	196.900000
822.133667	187.900000
822.168579	194.500000
822.203613	195.100000
822.238586	190.600000
822.273560	196.600000
822.308533	191.400000
822.343567	190.200000
822.378479	191.700000
822.413452	191.900000
822.448425	188.800000
822.483398	198.200000
822.518372	199.400000
822.553345	190.200000
822.588318	200.700000
822.623291	192.100000
822.658203	192.000000
822.693237	194.100000
822.728210	188.700000
822.763123	195.700000
822.798096	188.700000
822.833069	193.800000
822.867981	193.900000
822.902954	196.600000
822.937927	196.400000
822.972900	204.700000
823.007874	184.500000
823.042725	197.700000
823.077698	206.200000
823.112671	189.900000
823.147583	192.400000
823.182556	197.000000
823.217529	197.200000
823.252441	191.600000
823.287415	207.500000
823.322388	195.400000
823.357239	193.500000
823.392212	200.100000
823.427185	196.000000
823.462097	189.200000
823.497009	197.800000
823.531982	192.500000
823.566895	193.800000
823.601807	188.300000
823.636719	191.800000
823.671631	197.800000
823.706604	192.000000
823.741455	196.700000
823.776428	186.800000
823.811340	198.400000
823.846252	199.900000
823.881165	202.800000
823.916138	195.200000
823.950989	204.000000
823.985901	190.100000
824.020813	195.500000
824.055725	191.800000
824.090637	190.100000
824.125610	194.800000
824.160461	195.600000
824.195374	196.200000
824.230225	198.700000
824.265198	185.400000
824.300110	189.700000
824.334961	204.900000
824.369873	184.300000
824.404785	195.500000
824.439636	200.800000
824.474548	184.600000
824.509460	183.000000
824.544312	199.100000
824.579224	195.600000
824.614075	196.000000
824.648987	191.900000
824.683899	193.000000
824.718811	189.500000
824.753662	200.300000
824.788574	198.200000
824.823364	193.900000
824.858276	191.500000
824.893188	199.700000
824.928040	200.000000
824.962952	196.900000
824.997803	196.800000
825.032654	195.500000
825.067566	196.300000
825.102417	192.100000
825.137268	192.100000
825.172119	194.600000
825.206970	190.500000
825.241882	192.100000
825.276733	189.600000
825.311646	192.100000
825.346436	186.600000
825.381348	189.300000
825.416138	194.300000
825.450989	189.300000
825.485901	184.700000
825.520691	185.800000
825.555542	186.600000
825.590454	192.600000
825.625244	184.400000
825.660095	200.100000
825.695007	196.000000
825.729797	191.200000
825.764648	188.700000
825.799438	191.300000
825.834290	193.800000
825.869202	185.900000
825.903992	194.200000
825.938843	188.900000
825.973694	187.500000
826.008484	204.700000
826.043335	188.200000
826.078186	182.900000
826.112976	200.400000
826.147827	197.600000
826.182678	202.700000
826.217468	184.600000
826.252319	196.300000
826.287109	187.700000
826.321899	200.700000
826.356750	191.300000
826.391541	188.300000
826.426392	198.200000
826.461182	192.000000
826.495972	186.600000
826.530823	185.300000
826.565613	192.800000
826.600403	187.900000
826.635254	196.000000
826.670044	185.300000
826.704834	184.900000
826.739685	187.700000
826.774475	193.500000
826.809265	193.200000
826.844055	190.500000
826.878906	199.200000
826.913635	193.300000
826.948425	194.600000
826.983215	194.100000
827.018005	198.100000
827.052856	190.900000
827.087585	196.600000
827.122375	183.600000
827.157227	190.600000
827.191956	204.100000
827.226746	187.800000
827.261536	195.900000
827.296265	187.200000
827.331116	188.800000
827.365906	195.100000
827.400635	188.200000
827.435425	184.100000
827.470215	198.200000
827.504944	190.100000
827.539734	196.600000
827.574463	192.800000
827.609253	198.800000
827.644043	192.300000
827.678772	198.200000
827.713562	189.200000
827.748352	190.300000
827.783081	187.800000
827.817871	193.200000
827.852600	187.400000
827.887329	195.100000
827.922119	181.300000
827.956848	195.100000
827.991638	205.900000
828.026367	193.900000
828.061157	192.700000
828.095886	193.000000
828.130615	206.800000
828.165344	183.200000
828.200073	192.100000
828.234863	190.000000
828.269592	191.500000
828.304321	196.400000
828.339111	192.400000
828.373779	187.500000
828.408569	198.600000
828.443298	196.600000
828.477966	189.800000
828.512756	194.400000
828.547424	187.000000
828.582214	192.300000
828.616943	190.300000
828.651672	191.300000
828.686340	198.000000
828.721130	189.600000
828.755798	190.800000
828.790527	192.000000
828.825256	193.200000
828.859924	192.900000
828.894714	199.200000
828.929443	201.300000
828.964111	189.100000
828.998840	195.200000
829.033569	189.000000
829.068237	190.400000
829.102966	189.300000
829.137634	193.600000
829.172363	192.300000
829.207092	192.200000
829.241821	189.300000
829.276489	183.700000
829.311157	192.800000
829.345825	190.400000
829.380554	197.600000
829.415283	187.900000
829.449951	185.000000
829.484619	200.900000
829.519348	198.800000
829.554016	192.600000
829.588745	191.300000
829.623413	185.600000
829.658081	203.000000
829.692749	185.600000
829.727417	197.300000
829.762146	194.000000
829.796814	188.900000
829.831482	190.500000
829.866150	193.500000
829.900879	188.300000
829.935486	195.400000
829.970154	190.800000
830.004883	203.600000
830.039490	192.000000
830.074219	188.300000
830.108887	192.600000
830.143494	191.600000
830.178223	185.900000
830.212891	189.900000
830.247498	192.100000
830.282166	199.900000
830.316772	198.300000
830.351501	189.600000
830.386169	191.600000
830.420776	191.800000
830.455444	191.400000
830.490112	189.500000
830.524719	183.600000
830.559387	194.400000
830.594055	194.500000
830.628662	191.200000
830.663330	190.800000
830.697998	200.000000
830.732605	192.300000
830.767273	193.800000
830.801941	191.700000
830.836487	201.800000
830.871155	193.700000
830.905762	195.200000
830.940430	185.400000
830.975098	187.700000
831.009644	192.800000
831.044312	199.200000
831.078979	194.100000
831.113525	184.200000
831.148193	191.300000
831.182861	190.600000
831.217407	195.000000
831.252075	209.600000
831.286621	188.800000
831.321289	188.700000
831.355896	192.300000
831.390564	199.700000
831.425110	192.500000
831.459778	198.800000
831.494324	205.200000
831.528931	195.000000
831.563599	196.600000
831.598145	185.100000
831.632751	191.500000
831.667419	189.800000
831.701965	195.200000
831.736572	194.700000
831.771179	185.800000
831.805786	190.100000
831.840393	199.100000
831.874939	183.600000
831.909546	197.500000
831.944153	183.400000
831.978760	191.800000
832.013306	187.800000
832.047913	199.000000
832.082458	198.800000
832.117065	188.000000
832.151672	201.000000
832.186218	193.100000
832.220825	195.500000
832.255432	184.500000
832.289978	189.000000
832.324585	193.900000
832.359192	194.200000
832.393677	190.900000
832.428284	193.700000
832.462830	190.700000
832.497437	190.800000
832.531982	194.600000
832.566589	190.800000
832.601135	194.200000
832.635681	184.400000
832.670227	192.800000
832.704773	199.300000
832.739380	194.300000
832.773926	192.600000
832.808472	187.300000
832.843079	192.600000
832.877563	194.100000
832.912170	190.100000
832.946716	184.700000
832.981201	198.900000
833.015808	195.000000
833.050293	192.000000
833.084839	187.600000
833.119446	190.700000
833.153992	195.700000
833.188477	191.700000
833.223022	187.300000
833.257568	194.000000
833.292114	198.800000
833.326660	203.600000
833.361145	189.200000
833.395691	184.300000
833.430237	190.900000
833.464783	196.400000
833.499329	188.200000
833.533875	185.700000
833.568359	195.800000
833.602905	199.400000
833.637390	195.800000
833.671875	189.300000
833.706421	190.900000
833.740906	188.500000
833.775452	182.400000
833.809998	189.900000
833.844482	197.900000
833.879028	191.900000
833.913513	189.800000
833.947998	194.000000
833.982544	188.100000
834.017090	189.700000
834.051514	180.200000
834.086060	196.100000
834.120544	190.800000
834.155029	193.200000
834.189575	190.100000
834.223999	194.600000
834.258545	192.300000
834.293030	193.000000
834.327515	192.700000
834.362000	188.200000
834.396545	195.900000
834.430969	191.500000
834.465454	195.700000
834.500000	183.900000
834.534424	194.300000
834.568970	182.900000
834.603455	184.100000
834.637878	187.600000
834.672363	193.200000
834.706909	192.400000
834.741333	193.000000
834.775818	184.200000
834.810242	189.100000
834.844727	191.800000
834.879211	191.600000
834.913635	192.300000
834.948181	193.100000
834.982666	191.200000
835.017090	191.300000
835.051575	195.400000
835.086060	188.700000
835.120483	194.000000
835.154907	196.800000
835.189331	189.700000
835.223816	194.300000
835.258301	187.100000
835.292786	186.500000
835.327209	196.400000
835.361694	187.800000
835.396057	188.700000
835.430542	195.800000
835.465027	192.900000
835.499390	186.900000
835.533875	212.000000
835.568359	189.000000
835.602722	183.300000
835.637207	193.200000
835.671692	186.600000
835.706055	208.600000
835.740540	193.500000
835.774902	194.400000
835.809387	192.900000
835.843811	185.800000
835.878235	200.100000
835.912659	185.100000
835.947083	189.500000
835.981506	191.500000
836.015930	184.900000
836.050354	196.100000
836.084778	201.300000
836.119202	196.400000
836.153625	204.700000
836.187988	187.900000
836.222473	188.300000
836.256897	193.700000
836.291260	192.300000
836.325684	195.300000
836.360046	189.900000
836.394470	189.600000
836.428894	198.200000
836.463318	188.200000
836.497681	198.100000
836.532104	199.200000
836.566467	193.200000
836.600891	190.300000
836.635315	197.300000
836.669678	193.400000
836.704102	196.600000
836.738525	192.600000
836.772888	183.800000
836.807251	188.700000
836.841675	195.000000
836.876038	186.400000
836.910461	188.900000
836.944763	194.700000
836.979187	187.400000
837.013611	196.700000
837.047974	185.100000
837.082336	203.000000
837.116699	196.300000
837.151062	190.700000
837.185486	186.000000
837.219849	189.800000
837.254211	195.300000
837.288574	190.200000
837.322937	186.600000
837.357300	179.400000
837.391663	205.300000
837.426086	197.300000
837.460388	191.900000
837.494751	197.900000
837.529114	189.800000
837.563477	197.500000
837.597839	195.400000
837.632141	191.900000
837.666565	188.500000
837.700928	193.800000
837.735229	193.900000
837.769592	194.400000
837.803955	198.400000
837.838257	190.400000
837.872620	188.400000
837.906982	200.200000
837.941284	193.000000
837.975647	192.700000
838.010010	197.500000
838.044312	190.000000
838.078674	188.600000
838.112976	193.300000
838.147339	196.600000
838.181702	192.800000
838.216003	202.700000
838.250366	193.700000
838.284668	194.400000
838.318970	184.800000
838.353333	190.800000
838.387634	191.800000
838.421936	192.100000
838.456299	194.000000
838.490601	200.900000
838.524902	195.700000
838.559265	196.600000
838.593567	197.200000
838.627869	186.200000
838.662170	195.600000
838.696472	185.600000
838.730774	189.100000
838.765137	196.900000
838.799377	178.000000
838.833740	193.200000
838.868042	197.800000
838.902283	183.800000
838.936646	197.600000
838.970947	194.200000
839.005188	198.100000
839.039551	185.500000
839.073792	198.700000
839.108093	189.000000
839.142395	200.800000
839.176697	186.800000
839.210937	192.400000
839.245300	204.000000
839.279541	185.200000
839.313843	191.000000
839.348145	194.200000
839.382385	197.400000
839.416687	198.300000
839.450989	196.100000
839.485229	190.600000
839.519531	188.600000
839.553833	197.800000
839.588013	192.800000
839.622314	193.100000
839.656555	196.200000
839.690857	192.800000
839.725159	186.200000
839.759460	190.800000
839.793640	190.400000
839.827942	189.700000
839.862183	188.100000
839.896423	194.400000
839.930725	201.500000
839.964966	199.500000
839.999207	201.200000
840.033508	200.300000
840.067688	190.000000
840.101990	200.800000
840.136230	192.100000
840.170471	200.400000
840.204712	189.000000
840.238953	187.800000
840.273193	194.100000
840.307434	196.000000
840.341736	187.500000
840.375916	185.500000
840.410217	189.300000
840.444397	197.200000
840.478638	196.500000
840.512878	199.500000
840.547119	194.500000
840.581360	194.800000
840.615601	201.500000
840.649780	201.200000
840.684021	192.400000
840.718262	200.800000
840.752441	197.800000
840.786682	194.600000
840.820862	193.200000
840.855103	199.800000
840.889343	192.500000
840.923584	198.400000
840.957764	192.800000
840.992004	195.300000
841.026184	206.900000
841.060425	191.400000
841.094666	188.700000
841.128845	195.800000
841.163025	193.600000
841.197266	196.700000
841.231445	193.600000
841.265686	193.500000
841.299866	188.200000
841.334045	201.000000
841.368286	192.000000
841.402405	201.400000
841.436646	196.900000
841.470825	189.000000
841.505005	192.100000
841.539185	188.800000
841.573425	187.500000
841.607544	193.900000
841.641785	192.100000
841.675964	187.500000
841.710144	192.500000
841.744324	189.000000
841.778503	191.600000
841.812683	188.800000
841.846863	201.900000
841.881042	200.500000
841.915222	190.400000
841.949402	208.100000
841.983521	184.100000
842.017700	191.000000
842.051880	193.200000
842.086060	194.600000
842.120239	193.400000
842.154419	191.000000
842.188538	192.100000
842.222717	189.100000
842.256897	203.000000
842.291016	191.700000
842.325195	194.600000
842.359375	204.500000
842.393494	200.500000
842.427673	192.200000
842.461853	196.800000
842.495911	200.900000
842.530090	196.800000
842.564209	192.100000
842.598389	193.800000
842.632568	193.600000
842.666626	199.000000
842.700806	190.200000
842.734985	190.700000
842.769043	195.300000
842.803223	191.100000
842.837402	190.200000
842.871460	190.900000
842.905640	201.200000
842.939697	187.600000
842.973877	194.800000
843.007996	199.500000
843.042175	200.900000
843.076233	191.200000
843.110413	194.000000
843.144470	202.600000
843.178589	197.000000
843.212769	190.100000
843.246826	195.800000
843.280945	190.900000
843.315125	190.500000
843.349182	190.200000
843.383301	200.900000
843.417419	206.400000
843.451538	192.500000
843.485657	193.200000
843.519714	190.800000
843.553833	195.100000
843.587952	191.300000
843.622070	189.700000
843.656128	197.300000
843.690247	192.700000
843.724304	190.600000
843.758423	194.500000
843.792542	192.000000
843.826599	193.000000
843.860718	190.100000
843.894836	185.100000
843.928894	193.000000
843.963013	195.600000
843.997070	189.600000
844.031128	186.400000
844.065247	197.800000
844.099304	198.200000
844.133362	195.300000
844.167480	196.000000
844.201599	200.600000
844.235596	194.700000
844.269714	195.100000
844.303711	195.400000
844.337830	186.600000
844.371948	195.100000
844.405945	193.600000
844.440063	187.400000
844.474121	207.100000
844.508118	191.900000
844.542236	192.000000
844.576294	191.800000
844.610352	188.500000
844.644409	192.700000
844.678406	185.300000
844.712524	198.700000
844.746582	199.700000
844.780640	192.700000
844.814636	195.800000
844.848755	204.700000
844.882751	191.600000
844.916809	198.400000
844.950867	195.200000
844.984863	201.400000
845.018921	192.400000
845.052979	189.700000
845.086975	195.200000
845.121033	188.100000
845.155090	189.300000
845.189087	200.900000
845.223145	191.700000
845.257141	193.300000
845.291199	197.400000
845.325256	200.900000
845.359253	195.100000
845.393250	203.900000
845.427307	192.600000
845.461304	195.700000
845.495361	195.100000
845.529358	205.100000
845.563354	190.800000
845.597412	189.800000
845.631409	200.300000
845.665405	201.100000
845.699463	197.600000
845.733459	191.300000
845.767456	200.300000
845.801453	192.500000
845.835449	200.100000
845.869446	197.400000
845.903503	198.700000
845.937439	190.200000
845.971497	200.300000
846.005493	188.100000
846.039429	197.700000
846.073486	202.900000
846.107483	192.000000
846.141418	192.900000
846.175476	191.900000
846.209473	201.600000
846.243408	190.100000
846.277405	195.000000
846.311401	188.400000
846.345337	194.400000
846.379395	199.700000
846.413330	191.300000
846.447327	201.300000
846.481323	189.300000
846.515259	189.800000
846.549255	195.800000
846.583252	195.400000
846.617187	188.600000
846.651184	196.400000
846.685120	193.000000
846.719055	201.900000
846.753052	199.700000
846.786987	198.300000
846.820984	187.400000
846.854980	199.700000
846.888916	188.900000
846.922852	195.600000
846.956848	203.200000
846.990723	190.000000
847.024719	195.900000
847.058716	192.800000
847.092590	200.000000
847.126587	195.800000
847.160522	190.700000
847.194458	197.300000
847.228455	189.800000
847.262390	188.000000
847.296265	192.100000
847.330261	199.500000
847.364136	192.100000
847.398132	191.100000
847.432068	193.200000
847.466003	192.900000
847.499939	191.900000
847.533875	196.900000
847.567749	190.400000
847.601746	192.100000
847.635681	196.500000
847.669556	185.200000
847.703491	199.400000
847.737427	209.300000
847.771301	187.600000
847.805237	195.900000
847.839233	194.000000
847.873108	193.400000
847.907043	191.200000
847.940918	199.900000
847.974854	195.600000
848.008789	197.500000
848.042664	193.300000
848.076538	197.800000
848.110474	193.200000
848.144348	195.300000
848.178284	186.800000
848.212219	194.300000
848.246094	191.800000
848.279968	196.300000
848.313904	197.500000
848.347778	194.400000
848.381653	193.600000
848.415588	190.300000
848.449463	191.100000
848.483337	195.600000
848.517212	197.900000
848.551086	194.000000
848.585022	191.000000
848.618835	202.800000
848.652771	191.300000
848.686646	189.700000
848.720520	202.700000
848.754395	192.000000
848.788330	197.000000
848.822144	197.700000
848.856018	193.000000
848.889954	201.900000
848.923767	189.000000
848.957642	189.700000
848.991577	197.100000
849.025391	191.200000
849.059265	193.100000
849.093079	190.300000
849.126953	188.800000
849.160828	199.700000
849.194641	195.500000
849.228577	190.300000
849.262451	193.300000
849.296265	190.900000
849.330139	188.700000
849.364014	194.000000
849.397827	197.500000
849.431702	192.400000
849.465515	198.500000
849.499329	183.900000
849.533203	188.500000
849.567078	183.400000
849.600891	198.600000
849.634766	193.300000
849.668518	199.400000
849.702393	194.300000
849.736267	186.900000
849.770020	206.000000
849.803894	198.000000
849.837769	193.700000
849.871521	193.300000
849.905396	200.300000
849.939270	189.800000
849.973022	192.200000
850.006897	197.500000
850.040710	197.700000
850.074524	197.200000
850.108337	192.700000
850.142151	198.500000
850.175964	201.900000
850.209778	193.800000
850.243530	180.900000
850.277405	198.700000
850.311218	193.900000
850.344971	191.200000
850.378845	201.500000
850.412659	190.900000
850.446411	195.100000
850.480225	192.600000
850.514038	199.500000
850.547791	194.900000
850.581665	194.000000
850.615417	190.000000
850.649231	194.800000
850.683044	193.000000
850.716858	192.200000
850.750610	192.800000
850.784424	198.900000
850.818176	189.800000
850.851929	190.800000
850.885742	190.200000
850.919495	193.600000
850.953308	199.400000
850.987122	202.800000
851.020874	186.800000
851.054626	185.900000
851.088440	196.200000
851.122192	197.100000
851.156006	193.400000
851.189697	193.700000
851.223511	188.100000
851.257263	198.500000
851.291077	197.500000
851.324829	191.800000
851.358582	190.900000
851.392334	190.600000
851.426086	192.000000
851.459900	202.400000
851.493591	192.300000
851.527344	195.400000
851.561157	193.700000
851.594849	196.500000
851.628662	196.600000
851.662415	201.700000
851.696106	198.000000
851.729858	199.500000
851.763611	188.000000
851.797363	194.400000
851.831116	190.500000
851.864868	195.800000
851.898560	196.200000
851.932312	190.600000
851.966064	196.300000
851.999817	193.300000
852.033569	193.600000
852.067261	199.500000
852.101013	190.100000
852.134766	194.500000
852.168457	182.300000
852.202209	197.400000
852.235901	191.000000
852.269592	196.400000
852.303345	203.900000
852.337036	196.400000
852.370789	194.500000
852.404541	196.800000
852.438171	190.700000
852.471924	191.900000
852.505676	188.900000
852.539307	196.100000
852.573059	190.300000
852.606812	191.200000
852.640442	193.000000
852.674194	199.100000
852.707886	206.300000
852.741577	201.700000
852.775269	188.200000
852.809021	194.200000
852.842651	197.300000
852.876404	199.400000
852.910034	196.500000
852.943787	199.700000
852.977478	196.200000
853.011108	191.100000
853.044861	191.300000
853.078552	199.200000
853.112183	197.500000
853.145874	195.600000
853.179626	185.000000
853.213257	195.800000
853.246948	190.000000
853.280640	201.500000
853.314270	194.000000
853.347961	201.100000
853.381653	195.900000
853.415283	198.500000
853.448975	190.300000
853.482605	195.400000
853.516296	192.200000
853.549988	189.500000
853.583618	194.600000
853.617310	196.300000
853.651001	197.500000
853.684631	189.500000
853.718323	190.900000
853.751953	202.700000
853.785583	184.700000
853.819275	199.100000
853.852966	193.400000
853.886536	186.100000
853.920227	187.500000
853.953918	199.200000
853.987488	192.100000
854.021179	198.400000
854.054749	201.500000
854.088440	196.000000
854.122131	189.200000
854.155701	198.500000
854.189331	189.300000
854.223022	196.900000
854.256592	196.300000
854.290283	190.600000
854.323914	196.900000
854.357483	198.100000
854.391174	196.100000
854.424744	204.900000
854.458374	195.800000
854.492065	205.000000
854.525696	197.200000
854.559265	200.100000
854.592896	204.700000
854.626465	195.400000
854.660095	195.500000
854.693787	195.300000
854.727356	192.400000
854.760986	197.700000
854.794617	195.500000
854.828186	192.800000
854.861816	196.500000
854.895447	195.900000
854.929016	195.300000
854.962585	197.200000
854.996155	202.400000
855.029785	195.300000
855.063416	196.700000
855.097046	198.600000
855.130615	189.100000
855.164185	199.900000
855.197754	194.900000
855.231384	198.700000
855.264954	192.200000
855.298523	198.400000
855.332153	195.600000
855.365723	202.400000
855.399292	189.000000
855.432922	194.200000
855.466492	197.200000
855.500061	188.500000
855.533630	191.400000
855.567200	197.400000
855.600769	199.300000
855.634338	198.900000
855.667969	195.900000
855.701477	189.800000
855.735046	191.300000
855.768616	183.900000
855.802185	196.700000
855.835754	208.700000
855.869324	186.600000
855.902893	192.000000
855.936401	201.200000
855.969971	196.100000
856.003540	187.600000
856.037109	197.500000
856.070618	194.200000
856.104187	188.300000
856.137695	191.700000
856.171265	184.400000
856.204834	195.400000
856.238403	200.200000
856.271912	192.100000
856.305481	195.200000
856.338989	187.700000
856.372559	197.200000
856.406128	194.900000
856.439636	199.600000
856.473145	192.600000
856.506653	200.900000
856.540222	194.700000
856.573792	202.300000
856.607300	197.900000
856.640808	189.200000
856.674377	194.900000
856.707825	223.200000
856.741394	199.100000
856.774902	191.500000
856.808472	185.600000
856.841980	198.800000
856.875488	203.300000
856.908936	187.000000
856.942505	192.100000
856.976013	195.300000
857.009521	188.400000
857.043030	193.900000
857.076477	191.500000
857.110046	200.000000
857.143555	195.000000
857.177063	199.600000
857.210571	191.500000
857.244080	188.200000
857.277527	197.600000
857.311035	192.500000
857.344543	197.200000
857.378052	192.900000
857.411499	197.600000
857.445068	205.100000
857.478516	193.600000
857.512024	189.000000
857.545532	192.100000
857.578979	196.900000
857.612427	194.200000
857.645874	192.700000
857.679382	195.800000
857.712891	197.700000
857.746399	192.600000
857.779846	200.300000
857.813354	199.600000
857.846741	193.700000
857.880249	190.500000
857.913757	197.000000
857.947266	197.700000
857.980652	197.700000
858.014160	191.200000
858.047546	193.300000
858.081055	194.100000
858.114563	203.300000
858.147949	188.100000
858.181458	197.800000
858.214844	192.800000
858.248352	185.200000
858.281799	199.300000
858.315308	206.900000
858.348694	199.400000
858.382141	203.400000
858.415588	198.100000
858.449036	200.200000
858.482483	198.000000
858.515930	190.100000
858.549377	194.700000
858.582825	201.800000
858.616211	198.500000
858.649658	196.300000
858.683105	189.300000
858.716553	190.700000
858.750000	188.500000
858.783386	191.800000
858.816833	186.900000
858.850281	194.100000
858.883728	196.900000
858.917114	192.600000
858.950562	203.100000
858.983948	203.000000
859.017395	197.900000
859.050781	192.600000
859.084167	190.700000
859.117615	187.400000
859.151062	197.600000
859.184448	190.600000
859.217834	193.100000
859.251282	192.800000
859.284668	190.100000
859.318054	184.800000
859.351440	193.900000
859.384888	202.100000
859.418274	186.900000
859.451721	185.500000
859.485046	196.600000
859.518494	196.000000
859.551819	191.200000
859.585266	196.100000
859.618652	197.300000
859.652039	187.100000
859.685425	189.500000
859.718811	187.100000
859.752197	182.600000
859.785583	201.600000
859.819031	202.700000
859.852356	196.400000
859.885742	189.700000
859.919067	193.400000
859.952454	192.600000
859.985901	200.000000
860.019287	190.800000
860.052612	0.000000
860.085999	0.000000
860.119324	0.000000
860.152710	0.000000
860.186096	0.000000
860.219421	0.000000
860.252808	0.000000
860.286133	0.000000
860.319519	0.000000
860.352905	0.000000
860.386292	0.000000
860.419617	0.000000
860.452942	0.000000
860.486267	0.000000
860.519653	0.000000
860.553040	0.000000
860.586365	0.000000
860.619690	0.000000
860.653076	0.000000
860.686340	0.000000
860.719727	0.000000
860.753113	0.000000
860.786377	0.000000
860.819763	0.000000
860.853027	0.000000
860.886414	0.000000
860.919739	0.000000
860.953125	0.000000
860.986389	0.000000
861.019714	0.000000
861.053040	0.000000
861.086365	0.000000
861.119690	0.000000
861.153076	0.000000
861.186340	0.000000
861.219666	0.000000
861.252930	0.000000
861.286316	0.000000
861.319641	0.000000
861.352905	0.000000
861.386230	0.000000
861.419495	0.000000
861.452820	0.000000
861.486145	0.000000
861.519470	0.000000
861.552734	0.000000
861.586060	0.000000
861.619324	0.000000
861.652649	0.000000
861.685974	0.000000
861.719238	0.000000
861.752563	0.000000
861.785828	0.000000
861.819092	0.000000
861.852417	0.000000
861.885742	0.000000
861.918945	0.000000
861.952271	0.000000
861.985535	0.000000
862.018799	0.000000
862.052124	0.000000
862.085449	0.000000
862.118652	0.000000
862.151978	0.000000
862.185181	0.000000
862.218506	0.000000
862.251770	0.000000
862.285034	0.000000
862.318298	0.000000
862.351562	0.000000
862.384827	0.000000
862.418091	0.000000
862.451355	0.000000
862.484619	0.000000
862.517883	0.000000
862.551086	0.000000
862.584351	0.000000
862.617676	0.000000
862.650940	0.000000
862.684143	0.000000
862.717407	0.000000
862.750610	0.000000
862.783875	0.000000
862.817139	0.000000
862.850342	0.000000
862.883606	0.000000
862.916870	0.000000
862.950073	0.000000
862.983337	0.000000
863.016602	0.000000
863.049805	0.000000
863.083069	0.000000
863.116211	0.000000
863.149475	0.000000
863.182739	0.000000
863.216003	0.000000
863.249146	0.000000
863.282410	0.000000
863.315613	0.000000
863.348816	0.000000
863.382080	0.000000
863.415222	0.000000
863.448486	0.000000
863.481689	0.000000
863.514893	0.000000
863.548157	0.000000
863.581360	0.000000
863.614502	0.000000
863.647766	0.000000
863.680908	0.000000
863.714172	0.000000
863.747375	0.000000
863.780579	0.000000
863.813721	0.000000
863.846985	0.000000
863.880127	0.000000
863.913330	0.000000
863.946533	0.000000
863.979675	0.000000
864.012939	0.000000
