Model Number: SPM-001-M   
Serial Number: 10090201
Firmware Version: 004.17.6
Exposure Time: 500000.000000us
Data Taken on: 10-03-2021 12:11:48.963
Wavelength	Amplitude
733.770752	0.000000
733.808716	0.000000
733.846619	0.000000
733.884583	0.000000
733.922546	0.000000
733.960449	0.000000
733.998413	0.000000
734.036377	0.000000
734.074219	0.000000
734.112183	0.000000
734.150085	0.000000
734.188049	0.000000
734.226013	0.000000
734.263916	0.000000
734.301819	0.000000
734.339783	0.000000
734.377686	0.000000
734.415588	0.000000
734.453552	0.000000
734.491455	0.000000
734.529419	0.000000
734.567322	0.000000
734.605225	0.000000
734.643127	0.000000
734.681091	0.000000
734.718994	0.000000
734.756897	0.000000
734.794800	0.000000
734.832703	0.000000
734.870667	0.000000
734.908508	0.000000
734.946472	0.000000
734.984375	0.000000
735.022278	0.000000
735.060181	0.000000
735.098083	0.000000
735.135986	0.000000
735.173889	0.000000
735.211792	0.000000
735.249695	0.000000
735.287598	0.000000
735.325439	0.000000
735.363403	0.000000
735.401306	0.000000
735.439148	0.000000
735.477051	0.000000
735.515015	0.000000
735.552856	0.000000
735.590759	0.000000
735.628662	0.000000
735.666504	0.000000
735.704407	0.000000
735.742310	0.000000
735.780212	0.000000
735.818115	0.000000
735.856018	0.000000
735.893860	0.000000
735.931763	0.000000
735.969604	0.000000
736.007507	0.000000
736.045410	0.000000
736.083252	0.000000
736.121094	0.000000
736.158997	0.000000
736.196838	0.000000
736.234741	0.000000
736.272644	0.000000
736.310486	0.000000
736.348389	0.000000
736.386230	0.000000
736.424072	0.000000
736.461975	0.000000
736.499878	0.000000
736.537720	0.000000
736.575562	0.000000
736.613403	0.000000
736.651306	0.000000
736.689148	0.000000
736.726990	0.000000
736.764893	0.000000
736.802734	0.000000
736.840576	0.000000
736.878418	0.000000
736.916321	0.000000
736.954102	0.000000
736.992004	0.000000
737.029846	0.000000
737.067688	0.000000
737.105530	0.000000
737.143372	0.000000
737.181213	0.000000
737.219116	0.000000
737.256897	0.000000
737.294739	0.000000
737.332642	0.000000
737.370422	0.000000
737.408325	0.000000
737.446167	0.000000
737.483948	0.000000
737.521790	0.000000
737.559692	0.000000
737.597473	0.000000
737.635315	0.000000
737.673157	0.000000
737.710999	0.000000
737.748840	0.000000
737.786621	0.000000
737.824463	0.000000
737.862305	0.000000
737.900085	0.000000
737.937927	0.000000
737.975769	0.000000
738.013550	0.000000
738.051392	0.000000
738.089233	0.000000
738.127014	0.000000
738.164856	0.000000
738.202698	0.000000
738.240479	0.000000
738.278320	0.000000
738.316162	0.000000
738.353943	0.000000
738.391785	0.000000
738.429565	0.000000
738.467407	0.000000
738.505188	0.000000
738.542969	0.000000
738.580811	0.000000
738.618652	0.000000
738.656372	0.000000
738.694214	0.000000
738.732056	0.000000
738.769836	0.000000
738.807617	0.000000
738.845459	0.000000
738.883240	0.000000
738.921021	0.000000
738.958862	0.000000
738.996582	0.000000
739.034424	0.000000
739.072205	0.000000
739.109985	0.000000
739.147827	0.000000
739.185547	0.000000
739.223389	0.000000
739.261169	0.000000
739.298889	0.000000
739.336731	0.000000
739.374512	0.000000
739.412292	0.000000
739.450073	0.000000
739.487854	0.000000
739.525635	0.000000
739.563416	0.000000
739.601135	0.000000
739.638977	0.000000
739.676758	0.000000
739.714478	0.000000
739.752258	0.000000
739.790100	0.000000
739.827820	0.000000
739.865601	0.000000
739.903381	0.000000
739.941101	0.000000
739.978882	197.100000
740.016724	192.600000
740.054443	197.900000
740.092224	190.000000
740.130005	189.000000
740.167725	189.600000
740.205505	189.800000
740.243225	198.900000
740.281006	193.000000
740.318787	186.300000
740.356506	200.100000
740.394287	198.200000
740.432068	188.100000
740.469727	186.200000
740.507507	198.300000
740.545288	191.600000
740.583008	194.700000
740.620789	192.600000
740.658569	184.300000
740.696228	192.200000
740.734009	198.500000
740.771790	180.800000
740.809509	197.400000
740.847229	186.700000
740.884949	188.800000
740.922729	185.200000
740.960449	190.200000
740.998169	187.100000
741.035950	189.000000
741.073669	195.200000
741.111389	193.800000
741.149170	203.000000
741.186890	203.700000
741.224609	196.000000
741.262329	195.600000
741.300110	202.900000
741.337769	187.800000
741.375549	187.500000
741.413208	194.200000
741.450989	188.500000
741.488708	190.600000
741.526367	191.200000
741.564148	196.000000
741.601868	197.600000
741.639526	193.800000
741.677307	194.500000
741.715027	195.100000
741.752686	188.500000
741.790466	199.800000
741.828186	197.000000
741.865845	187.500000
741.903564	183.000000
741.941345	192.300000
741.979004	188.800000
742.016724	195.100000
742.054382	192.600000
742.092102	200.100000
742.129822	186.000000
742.167480	190.800000
742.205200	191.200000
742.242920	194.700000
742.280640	197.800000
742.318359	189.000000
742.356079	190.700000
742.393738	196.100000
742.431396	192.200000
742.469116	196.100000
742.506775	182.200000
742.544495	194.700000
742.582214	197.000000
742.619873	191.600000
742.657593	202.100000
742.695251	197.900000
742.732971	190.700000
742.770630	195.000000
742.808289	192.300000
742.846008	192.700000
742.883728	196.000000
742.921326	192.700000
742.959045	189.900000
742.996765	193.700000
743.034424	192.200000
743.072083	190.300000
743.109802	192.600000
743.147400	186.800000
743.185120	195.700000
743.222839	192.500000
743.260437	197.700000
743.298157	194.900000
743.335754	184.600000
743.373474	190.800000
743.411133	185.900000
743.448792	192.400000
743.486450	192.400000
743.524170	185.300000
743.561768	194.600000
743.599487	199.100000
743.637146	204.300000
743.674744	191.700000
743.712463	190.500000
743.750122	193.900000
743.787720	195.700000
743.825439	189.400000
743.863037	190.100000
743.900696	192.700000
743.938416	216.900000
743.976013	192.200000
744.013672	201.100000
744.051331	198.100000
744.088928	201.200000
744.126587	198.900000
744.164307	194.800000
744.201904	189.400000
744.239563	196.500000
744.277222	194.300000
744.314819	192.000000
744.352478	199.200000
744.390137	194.900000
744.427734	195.600000
744.465393	189.800000
744.502991	188.100000
744.540649	195.900000
744.578308	194.700000
744.615906	187.000000
744.653564	182.700000
744.691223	197.900000
744.728821	185.400000
744.766418	193.500000
744.804077	196.900000
744.841675	189.300000
744.879333	185.500000
744.916992	192.400000
744.954529	190.200000
744.992187	200.200000
745.029785	191.400000
745.067444	188.600000
745.105042	194.300000
745.142639	195.800000
745.180298	202.800000
745.217896	191.600000
745.255493	192.600000
745.293152	197.800000
745.330750	196.700000
745.368347	200.900000
745.405945	197.400000
745.443604	193.700000
745.481140	197.000000
745.518799	192.100000
745.556396	197.200000
745.593994	197.900000
745.631592	192.000000
745.669189	188.400000
745.706787	195.000000
745.744385	188.200000
745.781982	195.500000
745.819580	190.100000
745.857178	193.000000
745.894775	193.500000
745.932373	193.600000
745.969971	193.300000
746.007568	184.400000
746.045166	202.000000
746.082764	199.300000
746.120300	197.100000
746.157898	196.000000
746.195557	192.800000
746.233093	186.300000
746.270691	197.100000
746.308228	195.400000
746.345825	198.300000
746.383423	195.600000
746.420959	186.700000
746.458557	192.000000
746.496155	191.300000
746.533691	192.500000
746.571289	189.000000
746.608887	193.500000
746.646423	195.400000
746.684021	195.500000
746.721619	191.100000
746.759155	194.800000
746.796753	187.300000
746.834351	187.000000
746.871826	190.000000
746.909424	200.800000
746.946960	194.800000
746.984558	192.100000
747.022156	192.100000
747.059631	199.700000
747.097229	196.000000
747.134827	192.400000
747.172363	200.800000
747.209900	195.700000
747.247498	188.600000
747.285034	201.800000
747.322571	200.800000
747.360168	191.400000
747.397644	186.400000
747.435242	198.300000
747.472778	200.400000
747.510315	190.500000
747.547913	190.800000
747.585388	200.100000
747.622925	193.100000
747.660522	183.900000
747.697998	189.500000
747.735596	192.500000
747.773132	190.100000
747.810669	193.100000
747.848206	196.700000
747.885742	187.300000
747.923279	187.600000
747.960815	195.400000
747.998352	193.300000
748.035889	199.100000
748.073425	197.700000
748.110901	188.200000
748.148437	189.100000
748.185974	194.100000
748.223511	204.600000
748.261047	194.500000
748.298584	195.000000
748.336060	191.600000
748.373596	196.100000
748.411133	212.300000
748.448608	188.100000
748.486145	197.400000
748.523682	201.300000
748.561218	199.700000
748.598755	194.000000
748.636292	197.600000
748.673706	191.500000
748.711243	200.400000
748.748718	195.700000
748.786255	192.900000
748.823792	192.800000
748.861267	188.800000
748.898804	195.800000
748.936340	195.700000
748.973816	191.700000
749.011292	198.300000
749.048828	196.100000
749.086304	197.400000
749.123840	205.600000
749.161316	187.100000
749.198792	203.700000
749.236328	199.200000
749.273743	193.500000
749.311279	191.300000
749.348816	195.500000
749.386230	193.600000
749.423767	180.500000
749.461304	194.500000
749.498718	193.300000
749.536255	201.300000
749.573730	205.400000
749.611206	199.000000
749.648682	192.300000
749.686218	193.200000
749.723633	197.600000
749.761169	190.900000
749.798645	187.600000
749.836060	192.900000
749.873596	191.900000
749.911011	193.100000
749.948547	200.800000
749.986023	193.700000
750.023437	193.200000
750.060913	187.000000
750.098450	188.300000
750.135864	193.000000
750.173340	193.600000
750.210815	199.100000
750.248291	189.200000
750.285767	195.000000
750.323242	200.900000
750.360657	195.000000
750.398132	188.800000
750.435608	198.100000
750.473022	189.600000
750.510498	189.500000
750.547974	190.500000
750.585449	191.700000
750.622925	182.600000
750.660339	201.400000
750.697815	193.200000
750.735291	193.900000
750.772644	193.600000
750.810120	193.600000
750.847595	195.700000
750.885010	188.500000
750.922485	201.900000
750.959961	192.100000
750.997375	199.500000
751.034851	198.400000
751.072266	198.200000
751.109680	186.300000
751.147156	199.200000
751.184570	196.300000
751.221985	195.100000
751.259460	184.100000
751.296875	193.100000
751.334290	193.600000
751.371765	198.200000
751.409180	196.900000
751.446594	199.500000
751.484070	196.200000
751.521423	196.900000
751.558899	195.500000
751.596375	202.300000
751.633728	200.600000
751.671204	207.600000
751.708618	188.600000
751.746033	193.900000
751.783447	187.000000
751.820801	189.700000
751.858276	196.900000
751.895691	193.800000
751.933105	191.800000
751.970520	190.400000
752.007935	191.800000
752.045349	198.700000
752.082764	194.800000
752.120178	192.700000
752.157532	189.800000
752.195007	191.300000
752.232422	197.600000
752.269775	199.300000
752.307190	196.500000
752.344543	189.100000
752.382019	192.600000
752.419434	192.500000
752.456787	194.700000
752.494202	197.700000
752.531616	196.700000
752.568970	197.400000
752.606384	195.600000
752.643799	196.300000
752.681152	202.800000
752.718567	197.700000
752.755981	185.900000
752.793335	196.200000
752.830750	185.700000
752.868164	200.200000
752.905518	189.200000
752.942932	198.400000
752.980225	187.300000
753.017639	198.600000
753.055054	191.300000
753.092407	196.600000
753.129822	201.100000
753.167175	203.100000
753.204529	192.900000
753.241943	190.800000
753.279358	188.000000
753.316650	199.300000
753.354065	197.200000
753.391479	197.600000
753.428772	203.100000
753.466187	198.500000
753.503479	187.500000
753.540894	192.100000
753.578308	189.700000
753.615601	187.700000
753.653015	194.600000
753.690369	192.300000
753.727722	189.000000
753.765076	188.400000
753.802490	188.800000
753.839783	184.800000
753.877136	190.900000
753.914551	208.800000
753.951843	188.600000
753.989258	196.800000
754.026611	194.700000
754.063904	195.700000
754.101257	189.000000
754.138611	185.600000
754.175964	193.800000
754.213318	205.400000
754.250610	186.100000
754.288025	189.700000
754.325378	188.600000
754.362671	198.400000
754.400024	192.400000
754.437378	201.900000
754.474670	204.300000
754.512085	189.700000
754.549438	194.500000
754.586731	191.400000
754.624084	192.800000
754.661438	189.300000
754.698730	201.700000
754.736084	191.500000
754.773376	191.400000
754.810730	198.000000
754.848083	192.900000
754.885315	198.200000
754.922668	187.000000
754.960022	187.800000
754.997314	199.100000
755.034668	195.000000
755.072021	195.200000
755.109253	192.600000
755.146606	202.700000
755.183960	193.300000
755.221252	204.800000
755.258545	202.300000
755.295898	200.600000
755.333191	203.300000
755.370544	199.700000
755.407776	195.800000
755.445129	196.800000
755.482422	201.200000
755.519714	194.200000
755.557068	189.500000
755.594360	187.800000
755.631653	201.800000
755.668945	205.900000
755.706299	199.700000
755.743530	208.600000
755.780884	204.700000
755.818176	203.200000
755.855408	203.300000
755.892761	200.300000
755.930054	198.300000
755.967346	199.800000
756.004639	201.500000
756.041870	198.700000
756.079224	203.600000
756.116516	194.600000
756.153748	202.600000
756.191040	206.700000
756.228394	201.300000
756.265625	194.100000
756.302917	199.000000
756.340210	196.100000
756.377441	204.300000
756.414795	206.000000
756.452087	200.100000
756.489319	192.800000
756.526611	201.700000
756.563843	200.600000
756.601135	211.200000
756.638428	209.000000
756.675659	200.700000
756.712952	205.700000
756.750244	204.600000
756.787476	201.800000
756.824768	208.400000
756.862061	198.600000
756.899292	248.500000
756.936584	206.000000
756.973816	212.600000
757.011047	214.400000
757.048340	203.200000
757.085632	203.000000
757.122864	218.700000
757.160156	201.900000
757.197327	205.500000
757.234619	207.600000
757.271912	202.500000
757.309082	210.200000
757.346375	199.700000
757.383667	211.800000
757.420837	206.100000
757.458130	206.300000
757.495422	203.200000
757.532593	208.500000
757.569885	198.500000
757.607117	202.200000
757.644348	206.900000
757.681580	218.300000
757.718811	193.600000
757.756042	205.700000
757.793335	202.100000
757.830505	209.700000
757.867798	203.900000
757.905029	202.300000
757.942200	208.700000
757.979492	202.800000
758.016724	204.800000
758.053894	204.700000
758.091187	226.200000
758.128418	208.300000
758.165588	205.800000
758.202820	218.900000
758.240112	209.300000
758.277283	217.900000
758.314514	208.800000
758.351685	204.900000
758.388916	217.500000
758.426147	215.500000
758.463379	218.000000
758.500610	212.100000
758.537842	209.600000
758.575012	216.700000
758.612244	204.000000
758.649475	221.800000
758.686646	202.400000
758.723877	217.800000
758.761108	218.900000
758.798279	212.800000
758.835510	213.400000
758.872742	218.900000
758.909851	213.800000
758.947083	215.900000
758.984253	214.300000
759.021484	218.700000
759.058716	216.700000
759.095886	217.600000
759.133057	213.000000
759.170288	217.400000
759.207458	209.400000
759.244690	225.200000
759.281860	223.400000
759.319031	213.900000
759.356262	211.800000
759.393433	212.900000
759.430603	214.000000
759.467773	213.900000
759.505005	220.700000
759.542175	219.500000
759.579346	214.500000
759.616516	215.700000
759.653687	218.500000
759.690918	211.400000
759.728027	217.200000
759.765259	217.100000
759.802429	219.700000
759.839539	219.300000
759.876770	222.900000
759.913940	226.400000
759.951111	216.800000
759.988281	217.200000
760.025452	213.700000
760.062561	214.100000
760.099792	226.200000
760.136963	219.100000
760.174072	216.200000
760.211243	212.900000
760.248413	214.800000
760.285583	213.500000
760.322754	230.100000
760.359863	224.300000
760.397034	225.900000
760.434204	218.300000
760.471375	219.200000
760.508545	218.300000
760.545715	217.800000
760.582825	215.200000
760.619995	225.700000
760.657166	213.300000
760.694275	227.800000
760.731445	223.200000
760.768555	224.100000
760.805664	226.100000
760.842834	224.100000
760.879944	226.100000
760.917114	225.200000
760.954285	222.300000
760.991394	216.600000
761.028564	229.700000
761.065674	227.700000
761.102783	221.100000
761.139954	228.700000
761.177124	229.700000
761.214172	232.600000
761.251343	222.600000
761.288452	224.700000
761.325562	231.100000
761.362732	223.600000
761.399841	226.000000
761.436951	230.000000
761.474121	224.300000
761.511169	227.900000
761.548340	232.800000
761.585449	232.600000
761.622559	233.800000
761.659668	231.900000
761.696838	238.200000
761.733887	234.200000
761.771057	229.500000
761.808167	233.300000
761.845276	238.300000
761.882385	247.100000
761.919434	234.400000
761.956604	254.200000
761.993713	231.100000
762.030762	242.800000
762.067871	236.700000
762.105042	235.000000
762.142090	244.600000
762.179199	240.200000
762.216309	242.700000
762.253418	254.200000
762.290527	249.500000
762.327637	246.700000
762.364685	236.500000
762.401794	246.800000
762.438904	243.700000
762.475952	239.600000
762.513062	238.900000
762.550110	238.200000
762.587219	254.400000
762.624329	253.900000
762.661377	246.700000
762.698486	247.600000
762.735596	246.000000
762.772644	239.600000
762.809753	237.400000
762.846863	245.700000
762.883911	250.500000
762.921021	250.800000
762.958069	248.800000
762.995117	258.400000
763.032227	258.600000
763.069336	248.500000
763.106323	246.100000
763.143433	244.300000
763.180481	252.400000
763.217590	250.900000
763.254639	248.700000
763.291687	251.100000
763.328735	258.000000
763.365845	252.300000
763.402893	250.700000
763.439941	254.900000
763.477051	259.300000
763.514038	260.600000
763.551147	252.700000
763.588196	254.600000
763.625244	255.300000
763.662292	262.300000
763.699402	265.900000
763.736389	261.700000
763.773499	272.000000
763.810486	264.700000
763.847534	260.400000
763.884644	263.000000
763.921631	259.400000
763.958679	270.000000
763.995728	259.900000
764.032776	272.000000
764.069824	257.100000
764.106873	265.100000
764.143860	274.500000
764.180969	265.600000
764.218018	272.800000
764.255005	266.700000
764.292053	268.400000
764.329102	280.200000
764.366089	278.900000
764.403137	276.900000
764.440125	266.400000
764.477173	271.000000
764.514221	273.000000
764.551208	268.500000
764.588257	266.300000
764.625305	279.000000
764.662292	284.200000
764.699341	287.400000
764.736389	278.000000
764.773376	295.400000
764.810425	280.700000
764.847473	288.500000
764.884399	283.100000
764.921448	290.700000
764.958435	289.300000
764.995483	278.900000
765.032532	295.500000
765.069458	281.000000
765.106506	283.100000
765.143555	280.800000
765.180481	284.900000
765.217529	292.500000
765.254578	277.600000
765.291504	290.600000
765.328552	285.600000
765.365540	282.300000
765.402527	298.500000
765.439575	282.600000
765.476501	279.900000
765.513550	281.200000
765.550537	286.900000
765.587463	294.100000
765.624512	285.600000
765.661499	278.000000
765.698486	296.100000
765.735474	284.400000
765.772461	286.800000
765.809448	297.700000
765.846436	295.400000
765.883423	298.100000
765.920410	293.200000
765.957397	289.700000
765.994385	295.200000
766.031311	302.500000
766.068359	296.800000
766.105286	298.500000
766.142273	303.400000
766.179260	299.700000
766.216187	295.000000
766.253174	290.400000
766.290161	300.000000
766.327148	303.100000
766.364136	304.400000
766.401123	320.600000
766.438049	297.500000
766.475037	311.200000
766.512024	307.600000
766.548950	321.300000
766.585937	316.600000
766.622864	312.000000
766.659790	311.400000
766.696777	303.500000
766.733704	319.500000
766.770691	310.500000
766.807678	327.300000
766.844604	319.800000
766.881531	320.100000
766.918518	325.700000
766.955444	329.100000
766.992432	321.100000
767.029358	324.700000
767.066284	329.800000
767.103271	327.300000
767.140198	354.200000
767.177124	344.000000
767.214050	332.600000
767.251038	332.700000
767.287964	332.200000
767.324890	330.600000
767.361816	336.000000
767.398743	341.700000
767.435730	334.300000
767.472595	341.000000
767.509583	347.400000
767.546509	334.900000
767.583374	341.700000
767.620361	335.600000
767.657288	342.500000
767.694214	341.800000
767.731140	343.300000
767.768066	345.200000
767.804993	348.700000
767.841919	339.600000
767.878845	349.600000
767.915710	359.100000
767.952698	352.300000
767.989563	354.600000
768.026489	356.600000
768.063416	350.200000
768.100281	350.100000
768.137207	364.700000
768.174133	364.100000
768.211060	363.100000
768.247986	362.300000
768.284912	361.800000
768.321777	362.900000
768.358704	362.000000
768.395630	364.500000
768.432495	358.300000
768.469421	370.300000
768.506348	374.400000
768.543152	380.100000
768.580078	376.500000
768.616943	380.700000
768.653870	379.500000
768.690796	377.800000
768.727661	376.300000
768.764587	381.400000
768.801453	374.900000
768.838318	385.500000
768.875244	385.600000
768.912109	388.600000
768.948975	384.300000
768.985901	385.300000
769.022766	386.600000
769.059631	392.100000
769.096558	387.400000
769.133362	391.900000
769.170288	391.600000
769.207214	390.000000
769.244019	397.200000
769.280945	395.200000
769.317810	404.300000
769.354675	396.200000
769.391541	410.200000
769.428406	403.400000
769.465271	415.900000
769.502136	404.100000
769.539062	406.900000
769.575867	407.100000
769.612732	406.500000
769.649597	415.900000
769.686462	419.500000
769.723328	411.900000
769.760193	411.200000
769.797058	417.000000
769.833923	424.300000
769.870728	418.900000
769.907593	422.100000
769.944519	423.800000
769.981323	424.500000
770.018188	427.000000
770.055054	422.900000
770.091858	423.000000
770.128723	437.300000
770.165588	444.400000
770.202393	427.700000
770.239258	439.100000
770.276062	434.500000
770.312927	435.500000
770.349792	443.700000
770.386597	440.500000
770.423462	448.700000
770.460327	456.500000
770.497131	440.700000
770.533997	433.800000
770.570862	452.600000
770.607605	451.600000
770.644470	446.500000
770.681335	450.100000
770.718140	449.700000
770.754944	439.000000
770.791809	439.600000
770.828613	446.300000
770.865479	446.100000
770.902222	456.100000
770.939087	449.600000
770.975952	441.400000
771.012695	445.300000
771.049561	463.300000
771.086365	449.500000
771.123169	449.900000
771.159973	450.000000
771.196838	453.800000
771.233582	455.100000
771.270447	456.700000
771.307251	459.500000
771.344055	453.700000
771.380859	459.900000
771.417664	452.800000
771.454468	460.400000
771.491272	461.200000
771.528076	465.100000
771.564880	463.700000
771.601685	472.000000
771.638428	463.500000
771.675293	469.800000
771.712097	459.000000
771.748840	477.900000
771.785645	470.800000
771.822449	476.000000
771.859253	476.100000
771.896057	472.000000
771.932861	485.100000
771.969604	478.400000
772.006409	470.200000
772.043213	488.100000
772.079956	484.200000
772.116760	474.200000
772.153503	479.900000
772.190308	490.000000
772.227112	486.100000
772.263855	481.300000
772.300659	486.800000
772.337463	494.000000
772.374207	482.200000
772.411011	480.600000
772.447754	486.300000
772.484497	507.700000
772.521301	500.500000
772.558105	498.900000
772.594849	500.400000
772.631592	505.900000
772.668396	505.900000
772.705139	515.700000
772.741882	512.400000
772.778625	527.600000
772.815430	529.400000
772.852173	521.700000
772.888916	532.200000
772.925720	534.900000
772.962463	543.400000
772.999207	536.900000
773.035950	542.100000
773.072754	546.500000
773.109436	539.200000
773.146240	543.300000
773.182922	541.000000
773.219727	553.000000
773.256470	548.900000
773.293152	533.400000
773.329956	540.100000
773.366699	550.000000
773.403381	543.800000
773.440186	553.300000
773.476929	556.200000
773.513611	548.700000
773.550354	547.900000
773.587158	551.700000
773.623840	547.700000
773.660583	561.500000
773.697327	576.300000
773.734009	565.400000
773.770813	563.500000
773.807495	561.500000
773.844238	566.000000
773.880981	583.000000
773.917664	581.400000
773.954407	585.700000
773.991150	579.700000
774.027832	582.800000
774.064575	575.300000
774.101318	589.000000
774.138000	592.100000
774.174744	586.600000
774.211487	591.700000
774.248108	577.900000
774.284851	578.200000
774.321594	594.600000
774.358276	601.200000
774.395020	611.200000
774.431702	607.000000
774.468384	598.000000
774.505127	593.400000
774.541809	608.900000
774.578491	622.200000
774.615234	627.400000
774.651917	618.100000
774.688599	621.600000
774.725342	628.800000
774.762024	628.400000
774.798706	634.700000
774.835449	634.300000
774.872070	644.400000
774.908813	638.000000
774.945496	632.300000
774.982178	634.900000
775.018860	644.300000
775.055542	644.100000
775.092224	645.100000
775.128967	654.200000
775.165588	647.600000
775.202271	639.200000
775.239014	658.500000
775.275635	657.100000
775.312317	654.300000
775.349060	660.800000
775.385681	658.500000
775.422363	648.300000
775.459045	660.200000
775.495667	662.200000
775.532410	670.900000
775.569092	669.100000
775.605713	668.600000
775.642395	667.000000
775.679016	673.000000
775.715698	679.300000
775.752380	682.500000
775.789001	676.300000
775.825684	671.500000
775.862366	672.700000
775.898987	690.500000
775.935669	677.500000
775.972351	700.300000
776.008972	697.600000
776.045654	695.000000
776.082336	690.100000
776.118958	692.000000
776.155640	698.600000
776.192322	706.100000
776.228882	708.400000
776.265564	705.600000
776.302185	702.800000
776.338867	708.300000
776.375488	694.200000
776.412109	708.000000
776.448792	714.600000
776.485413	721.000000
776.522034	710.200000
776.558716	702.700000
776.595337	702.700000
776.631958	710.900000
776.668579	710.000000
776.705261	719.800000
776.741882	710.800000
776.778503	713.200000
776.815186	705.800000
776.851746	713.600000
776.888367	717.000000
776.924988	725.200000
776.961609	716.800000
776.998291	716.900000
777.034851	704.000000
777.071472	720.700000
777.108154	719.700000
777.144714	729.700000
777.181335	728.400000
777.218018	724.500000
777.254578	726.000000
777.291199	726.100000
777.327759	734.800000
777.364380	740.500000
777.401062	745.400000
777.437622	756.200000
777.474243	741.800000
777.510864	753.600000
777.547424	749.500000
777.584045	751.500000
777.620667	756.600000
777.657227	759.200000
777.693848	759.000000
777.730469	777.100000
777.767029	768.800000
777.803650	774.900000
777.840271	767.600000
777.876831	762.500000
777.913452	771.500000
777.950012	751.800000
777.986633	760.400000
778.023193	759.700000
778.059753	758.200000
778.096375	762.000000
778.132996	773.400000
778.169556	761.400000
778.206116	760.800000
778.242737	765.100000
778.279297	773.200000
778.315857	764.500000
778.352478	774.000000
778.389038	783.900000
778.425598	786.600000
778.462219	798.100000
778.498718	795.700000
778.535339	804.000000
778.571838	808.500000
778.608459	816.400000
778.645020	811.100000
778.681580	825.300000
778.718140	825.900000
778.754761	819.500000
778.791260	826.300000
778.827881	837.700000
778.864441	834.200000
778.900940	835.500000
778.937561	837.300000
778.974121	838.400000
779.010620	822.000000
779.047241	826.300000
779.083801	840.300000
779.120300	840.700000
779.156860	847.600000
779.193359	841.000000
779.229980	842.600000
779.266541	849.400000
779.303040	856.000000
779.339600	846.100000
779.376160	840.700000
779.412659	849.800000
779.449219	844.600000
779.485779	857.600000
779.522278	858.200000
779.558838	864.400000
779.595398	867.400000
779.631897	868.100000
779.668457	860.900000
779.705017	873.400000
779.741516	862.600000
779.778076	857.700000
779.814575	867.900000
779.851074	880.800000
779.887634	874.300000
779.924133	881.000000
779.960693	868.200000
779.997253	879.800000
780.033691	883.900000
780.070251	883.800000
780.106812	900.300000
780.143250	898.200000
780.179810	898.000000
780.216370	899.300000
780.252808	906.700000
780.289368	920.100000
780.325867	921.400000
780.362366	923.100000
780.398865	929.800000
780.435364	916.900000
780.471863	938.300000
780.508423	935.700000
780.544861	946.100000
780.581421	946.300000
780.617920	934.300000
780.654419	936.700000
780.690918	949.600000
780.727417	956.100000
780.763916	951.400000
780.800415	961.200000
780.836914	942.800000
780.873352	950.700000
780.909912	941.300000
780.946411	950.700000
780.982849	958.500000
781.019348	975.300000
781.055786	967.800000
781.092346	964.700000
781.128845	978.700000
781.165283	981.600000
781.201782	984.200000
781.238281	988.800000
781.274719	996.400000
781.311218	983.400000
781.347717	995.300000
781.384155	986.800000
781.420654	991.400000
781.457092	1005.100000
781.493591	1000.900000
781.530090	990.200000
781.566528	988.300000
781.602966	997.900000
781.639465	999.800000
781.675903	994.000000
781.712402	1007.400000
781.748901	1012.100000
781.785278	999.500000
781.821777	1009.800000
781.858276	1008.600000
781.894714	1020.700000
781.931152	1011.100000
781.967651	1024.500000
782.004089	1011.200000
782.040527	1019.900000
782.076965	1020.000000
782.113403	1015.700000
782.149902	1023.900000
782.186340	1018.600000
782.222778	1038.600000
782.259277	1021.600000
782.295654	1014.300000
782.332092	1021.100000
782.368591	1014.700000
782.404968	1007.800000
782.441467	1014.600000
782.477905	1018.500000
782.514282	1011.200000
782.550781	1032.200000
782.587219	1032.700000
782.623596	1038.100000
782.660095	1037.200000
782.696472	1044.000000
782.732910	1043.600000
782.769348	1051.500000
782.805786	1066.100000
782.842224	1061.000000
782.878662	1057.300000
782.915039	1057.300000
782.951477	1057.800000
782.987915	1050.800000
783.024292	1062.500000
783.060730	1056.200000
783.097168	1043.700000
783.133545	1039.700000
783.169983	1030.600000
783.206421	1030.800000
783.242798	1025.800000
783.279236	1021.000000
783.315613	1015.800000
783.352051	1007.900000
783.388489	999.800000
783.424866	985.700000
783.461304	990.400000
783.497681	999.800000
783.534058	993.900000
783.570496	985.800000
783.606934	985.600000
783.643250	993.000000
783.679687	1000.800000
783.716125	999.400000
783.752441	1010.500000
783.788879	1032.900000
783.825317	1032.600000
783.861633	1039.400000
783.898071	1039.300000
783.934448	1059.500000
783.970825	1065.400000
784.007263	1067.100000
784.043579	1059.300000
784.080017	1055.200000
784.116394	1031.500000
784.152710	1020.600000
784.189148	1003.900000
784.225525	976.200000
784.261902	930.700000
784.298279	901.200000
784.334656	862.600000
784.371033	814.800000
784.407410	786.700000
784.443787	748.300000
784.480164	709.700000
784.516541	674.400000
784.552856	672.900000
784.589233	653.500000
784.625610	649.200000
784.661987	682.500000
784.698364	679.700000
784.734741	690.600000
784.771057	704.100000
784.807434	727.100000
784.843811	763.400000
784.880127	783.800000
784.916504	830.700000
784.952881	856.700000
784.989197	881.500000
785.025574	907.900000
785.061951	937.300000
785.098267	996.300000
785.134644	1008.600000
785.170959	1030.300000
785.207275	1052.300000
785.243652	1071.900000
785.279968	1072.000000
785.316345	1090.300000
785.352722	1104.100000
785.388977	1115.600000
785.425354	1098.500000
785.461731	1075.100000
785.498047	1071.100000
785.534363	1073.400000
785.570679	1075.200000
785.606995	1082.000000
785.643372	1089.900000
785.679687	1076.300000
785.716003	1060.400000
785.752380	1059.000000
785.788635	1066.200000
785.825012	1086.500000
785.861328	1100.400000
785.897644	1083.600000
785.933960	1103.600000
785.970337	1104.100000
786.006592	1122.700000
786.042908	1139.400000
786.079285	1154.800000
786.115540	1166.800000
786.151855	1167.400000
786.188171	1162.000000
786.224487	1160.300000
786.260803	1160.600000
786.297119	1174.800000
786.333435	1173.600000
786.369751	1165.500000
786.406006	1174.100000
786.442322	1155.800000
786.478638	1141.900000
786.514954	1167.800000
786.551270	1165.300000
786.587585	1177.700000
786.623840	1159.400000
786.660156	1151.500000
786.696472	1138.800000
786.732727	1134.500000
786.769043	1139.200000
786.805298	1125.500000
786.841614	1125.400000
786.877930	1136.100000
786.914124	1117.000000
786.950439	1134.100000
786.986755	1141.600000
787.023010	1160.400000
787.059326	1166.900000
787.095642	1165.500000
787.131836	1181.800000
787.168152	1165.900000
787.204468	1172.000000
787.240723	1197.200000
787.276978	1216.300000
787.313293	1217.200000
787.349548	1219.400000
787.385803	1217.500000
787.422058	1206.700000
787.458313	1215.400000
787.494629	1217.400000
787.530823	1217.900000
787.567139	1203.300000
787.603455	1194.100000
787.639648	1176.200000
787.675903	1175.300000
787.712219	1179.500000
787.748413	1175.100000
787.784729	1184.600000
787.820984	1177.000000
787.857178	1166.100000
787.893494	1154.400000
787.929749	1146.700000
787.965942	1159.700000
788.002258	1172.500000
788.038452	1176.600000
788.074707	1165.600000
788.110962	1173.400000
788.147217	1166.900000
788.183472	1172.100000
788.219727	1185.900000
788.255920	1202.500000
788.292175	1206.500000
788.328430	1201.900000
788.364624	1185.800000
788.400879	1173.800000
788.437134	1184.200000
788.473328	1186.200000
788.509583	1187.500000
788.545837	1181.000000
788.582031	1169.500000
788.618286	1157.400000
788.654480	1155.100000
788.690735	1169.900000
788.726990	1192.800000
788.763184	1184.200000
788.799377	1195.700000
788.835632	1182.000000
788.871826	1201.700000
788.908081	1203.000000
788.944336	1198.600000
788.980469	1218.100000
789.016724	1208.300000
789.052979	1208.200000
789.089111	1187.500000
789.125366	1189.700000
789.161621	1175.000000
789.197754	1190.100000
789.234009	1177.900000
789.270142	1166.800000
789.306396	1153.600000
789.342590	1143.000000
789.378784	1116.600000
789.414978	1115.900000
789.451233	1136.500000
789.487366	1136.700000
789.523621	1144.200000
789.559814	1130.300000
789.595947	1120.100000
789.632202	1130.500000
789.668335	1143.900000
789.704529	1157.400000
789.740784	1184.300000
789.776917	1184.300000
789.813110	1170.900000
789.849304	1182.800000
789.885498	1183.200000
789.921692	1210.000000
789.957886	1218.100000
789.994019	1222.900000
790.030212	1210.300000
790.066406	1205.800000
790.102539	1202.800000
790.138733	1209.800000
790.174927	1208.700000
790.211060	1219.000000
790.247253	1208.400000
790.283386	1194.000000
790.319580	1176.400000
790.355774	1162.900000
790.391907	1169.900000
790.428101	1190.700000
790.464294	1193.100000
790.500427	1198.800000
790.536621	1173.700000
790.572754	1162.100000
790.608887	1164.200000
790.645081	1173.000000
790.681274	1188.400000
790.717346	1179.000000
790.753540	1147.000000
790.789734	1071.600000
790.825867	1015.100000
790.862000	1014.400000
790.898132	1053.200000
790.934265	1112.400000
790.970459	1171.300000
791.006592	1189.900000
791.042725	1192.800000
791.078918	1186.000000
791.114990	1185.100000
791.151184	1199.000000
791.187317	1218.400000
791.223389	1210.500000
791.259583	1195.400000
791.295715	1203.200000
791.331848	1210.600000
791.367981	1230.200000
791.404114	1236.500000
791.440247	1229.100000
791.476379	1228.300000
791.512451	1210.600000
791.548584	1209.300000
791.584778	1206.000000
791.620850	1225.700000
791.656982	1226.400000
791.693115	1222.500000
791.729187	1221.300000
791.765381	1217.700000
791.801514	1212.400000
791.837585	1212.500000
791.873718	1222.700000
791.909851	1234.400000
791.945923	1242.800000
791.982056	1203.800000
792.018188	1204.800000
792.054260	1203.900000
792.090393	1210.900000
792.126465	1205.100000
792.162598	1216.800000
792.198669	1200.500000
792.234741	1200.100000
792.270874	1188.900000
792.307007	1172.000000
792.343079	1179.100000
792.379150	1188.600000
792.415283	1176.100000
792.451355	1179.000000
792.487488	1154.700000
792.523560	1153.600000
792.559631	1155.000000
792.595764	1150.600000
792.631836	1157.900000
792.667908	1170.300000
792.703979	1151.400000
792.740051	1149.600000
792.776184	1153.000000
792.812256	1152.600000
792.848328	1161.700000
792.884399	1173.700000
792.920471	1165.900000
792.956543	1163.000000
792.992615	1166.400000
793.028748	1155.100000
793.064758	1161.100000
793.100830	1185.000000
793.136963	1196.100000
793.172974	1186.100000
793.209045	1185.500000
793.245178	1191.800000
793.281189	1170.100000
793.317261	1181.800000
793.353271	1190.000000
793.389404	1192.400000
793.425476	1189.000000
793.461487	1168.400000
793.497559	1166.600000
793.533630	1173.800000
793.569641	1174.700000
793.605713	1181.200000
793.641785	1186.000000
793.677795	1186.300000
793.713867	1175.100000
793.749878	1178.800000
793.785950	1193.100000
793.822021	1195.800000
793.858032	1178.200000
793.894104	1197.600000
793.930176	1180.200000
793.966187	1181.800000
794.002258	1166.800000
794.038269	1177.000000
794.074280	1175.000000
794.110352	1197.000000
794.146423	1167.100000
794.182373	1160.300000
794.218445	1152.400000
794.254517	1148.500000
794.290466	1131.800000
794.326538	1136.000000
794.362549	1133.800000
794.398560	1145.300000
794.434631	1147.200000
794.470581	1119.900000
794.506653	1112.000000
794.542664	1116.200000
794.578674	1110.800000
794.614685	1111.000000
794.650757	1106.300000
794.686707	1101.800000
794.722778	1090.000000
794.758789	1100.500000
794.794739	1106.300000
794.830811	1129.600000
794.866821	1146.500000
794.902771	1136.600000
794.938843	1128.500000
794.974792	1130.500000
795.010803	1125.900000
795.046814	1127.700000
795.082825	1115.500000
795.118835	1127.900000
795.154846	1105.500000
795.190796	1106.900000
795.226807	1084.100000
795.262817	1091.400000
795.298767	1089.800000
795.334778	1092.400000
795.370850	1085.700000
795.406799	1086.300000
795.442810	1064.800000
795.478821	1065.100000
795.514709	1063.800000
795.550720	1084.200000
795.586670	1065.100000
795.622681	1071.200000
795.658691	1064.900000
795.694641	1061.000000
795.730652	1046.000000
795.766663	1052.400000
795.802551	1067.100000
795.838562	1078.200000
795.874573	1065.300000
795.910522	1056.300000
795.946472	1048.000000
795.982483	1056.800000
796.018433	1052.600000
796.054382	1064.600000
796.090393	1051.400000
796.126282	1037.900000
796.162292	1030.100000
796.198242	1021.000000
796.234192	1028.900000
796.270203	1025.400000
796.306091	1035.400000
796.342041	1053.600000
796.378052	1032.300000
796.413940	1026.500000
796.449951	1028.900000
796.485901	1032.000000
796.521790	1028.600000
796.557800	1046.600000
796.593689	1043.400000
796.629639	1028.000000
796.665649	1021.000000
796.701599	1022.900000
796.737488	1020.300000
796.773437	1029.700000
796.809387	1031.000000
796.845337	1023.600000
796.881287	1014.000000
796.917175	990.100000
796.953125	994.500000
796.989075	1011.300000
797.024963	1017.800000
797.060913	1013.300000
797.096863	1008.800000
797.132751	1001.000000
797.168701	982.200000
797.204590	992.900000
797.240540	998.900000
797.276489	1002.700000
797.312439	1002.900000
797.348328	997.800000
797.384277	989.700000
797.420166	982.800000
797.456055	984.200000
797.492004	975.600000
797.527893	987.700000
797.563843	990.700000
797.599731	981.500000
797.635620	965.700000
797.671570	973.400000
797.707520	969.100000
797.743347	973.200000
797.779297	980.500000
797.815125	974.900000
797.851074	965.900000
797.887024	956.700000
797.922913	948.900000
797.958801	957.100000
797.994690	956.600000
798.030579	968.600000
798.066467	970.700000
798.102356	954.100000
798.138245	947.500000
798.174133	943.600000
798.210083	952.600000
798.245911	959.300000
798.281799	964.600000
798.317749	955.500000
798.353577	946.700000
798.389465	940.100000
798.425293	941.600000
798.461243	931.100000
798.497131	939.400000
798.532959	939.100000
798.568848	942.900000
798.604736	935.700000
798.640564	917.800000
798.676453	917.100000
798.712402	925.700000
798.748230	936.800000
798.784119	925.700000
798.820007	930.300000
798.855835	925.100000
798.891724	916.800000
798.927551	911.900000
798.963379	922.900000
798.999268	920.200000
799.035095	914.400000
799.070984	904.000000
799.106873	896.100000
799.142700	911.500000
799.178528	897.900000
799.214417	895.800000
799.250244	910.200000
799.286133	904.100000
799.321960	897.900000
799.357788	893.000000
799.393677	894.400000
799.429504	895.000000
799.465332	893.400000
799.501221	904.700000
799.537048	899.700000
799.572876	886.200000
799.608704	888.500000
799.644531	896.300000
799.680359	890.400000
799.716248	895.800000
799.752014	903.900000
799.787903	895.700000
799.823730	894.500000
799.859558	883.900000
799.895386	882.600000
799.931213	884.000000
799.967041	876.600000
800.002869	867.900000
800.038696	884.800000
800.074463	858.100000
800.110352	864.300000
800.146179	858.400000
800.181946	865.900000
800.217773	867.900000
800.253540	865.400000
800.289429	852.700000
800.325256	856.200000
800.361023	848.600000
800.396851	848.200000
800.432678	849.100000
800.468445	848.500000
800.504272	838.000000
800.540100	826.200000
800.575867	821.600000
800.611694	827.200000
800.647461	823.900000
800.683289	823.600000
800.719116	827.400000
800.754883	817.700000
800.790649	797.500000
800.826477	794.300000
800.862244	815.200000
800.898071	795.400000
800.933838	795.900000
800.969604	790.700000
801.005432	787.400000
801.041199	792.400000
801.076965	788.100000
801.112793	778.100000
801.148560	767.300000
801.184326	773.900000
801.220154	773.900000
801.255859	762.200000
801.291687	759.000000
801.327454	751.600000
801.363281	752.000000
801.398987	748.300000
801.434814	751.600000
801.470520	764.900000
801.506287	746.200000
801.542114	736.800000
801.577820	741.300000
801.613647	744.300000
801.649414	736.600000
801.685120	738.300000
801.720886	745.900000
801.756714	735.700000
801.792419	719.800000
801.828186	716.500000
801.863892	727.000000
801.899719	716.300000
801.935486	714.800000
801.971252	726.600000
802.006958	713.600000
802.042725	709.100000
802.078430	706.700000
802.114197	705.500000
802.149963	722.000000
802.185669	708.700000
802.221436	702.400000
802.257202	703.900000
802.292908	700.600000
802.328674	708.100000
802.364441	706.700000
802.400146	703.700000
802.435913	696.700000
802.471558	694.900000
802.507324	686.400000
802.543091	676.300000
802.578796	694.700000
802.614502	694.400000
802.650269	693.800000
802.685974	677.200000
802.721741	683.800000
802.757446	686.700000
802.793152	682.300000
802.828918	689.100000
802.864624	686.300000
802.900330	679.300000
802.936035	677.600000
802.971802	674.000000
803.007446	671.800000
803.043213	663.800000
803.078857	671.900000
803.114624	659.200000
803.150330	666.500000
803.185974	651.600000
803.221741	651.900000
803.257446	661.000000
803.293152	664.500000
803.328857	651.700000
803.364563	651.400000
803.400208	641.700000
803.435974	652.600000
803.471680	644.000000
803.507324	636.500000
803.543030	644.600000
803.578735	645.600000
803.614441	632.400000
803.650146	642.200000
803.685791	632.700000
803.721497	632.100000
803.757202	620.500000
803.792847	632.600000
803.828552	623.800000
803.864258	627.600000
803.899902	620.900000
803.935608	602.900000
803.971313	612.700000
804.006958	612.300000
804.042664	607.500000
804.078308	612.300000
804.113953	604.800000
804.149658	611.300000
804.185364	601.600000
804.221008	609.100000
804.256714	604.100000
804.292297	601.100000
804.328003	594.400000
804.363708	588.500000
804.399292	586.900000
804.434998	589.100000
804.470703	579.200000
804.506287	594.900000
804.541992	586.900000
804.577637	589.900000
804.613281	577.700000
804.648926	573.700000
804.684570	579.100000
804.720215	571.500000
804.755920	575.300000
804.791565	572.900000
804.827209	575.400000
804.862854	565.600000
804.898437	563.500000
804.934143	562.900000
804.969788	562.600000
805.005371	563.400000
805.041077	564.100000
805.076721	566.400000
805.112305	554.800000
805.147949	554.800000
805.183655	553.600000
805.219238	554.600000
805.254883	552.700000
805.290466	559.600000
805.326111	552.600000
805.361755	545.500000
805.397400	547.300000
805.432983	551.200000
805.468628	553.700000
805.504211	559.100000
805.539856	552.500000
805.575500	557.800000
805.611084	547.200000
805.646729	531.100000
805.682373	539.500000
805.717957	548.500000
805.753601	547.200000
805.789246	530.300000
805.824768	543.000000
805.860413	544.900000
805.895996	528.500000
805.931641	533.400000
805.967224	540.100000
806.002869	532.400000
806.038452	542.500000
806.074036	536.400000
806.109619	521.300000
806.145264	522.100000
806.180847	522.000000
806.216431	518.300000
806.252014	524.500000
806.287659	520.600000
806.323181	534.600000
806.358826	526.100000
806.394409	507.600000
806.429993	507.400000
806.465576	524.900000
806.501160	510.000000
806.536743	498.900000
806.572327	510.600000
806.607910	505.200000
806.643494	504.900000
806.679077	502.700000
806.714661	502.600000
806.750244	504.700000
806.785828	498.100000
806.821350	497.200000
806.856934	500.800000
806.892517	496.700000
806.928101	491.600000
806.963684	491.000000
806.999268	499.200000
807.034790	480.600000
807.070374	485.100000
807.105896	481.800000
807.141479	476.400000
807.177063	486.400000
807.212585	475.600000
807.248169	477.300000
807.283752	483.800000
807.319275	474.900000
807.354858	475.800000
807.390381	470.400000
807.425903	470.200000
807.461487	467.600000
807.497070	464.800000
807.532593	463.300000
807.568115	460.000000
807.603699	458.300000
807.639221	451.500000
807.674744	456.000000
807.710266	461.700000
807.745850	462.700000
807.781372	453.700000
807.816895	450.300000
807.852417	454.700000
807.888000	452.700000
807.923523	445.900000
807.959045	452.000000
807.994629	439.100000
808.030090	437.600000
808.065613	443.800000
808.101135	447.900000
808.136658	443.800000
808.172241	439.700000
808.207764	436.800000
808.243225	431.300000
808.278809	429.300000
808.314270	440.800000
808.349792	425.500000
808.385315	423.700000
808.420837	428.800000
808.456360	433.200000
808.491882	433.500000
808.527344	428.100000
808.562866	436.200000
808.598389	429.300000
808.633850	422.700000
808.669434	418.300000
808.704895	426.700000
808.740417	430.100000
808.775940	422.700000
808.811462	420.100000
808.846924	411.200000
808.882385	406.200000
808.917847	404.200000
808.953369	409.900000
808.988892	402.200000
809.024353	412.900000
809.059875	408.900000
809.095398	406.600000
809.130798	399.900000
809.166321	400.900000
809.201843	398.700000
809.237305	399.500000
809.272766	406.900000
809.308228	391.400000
809.343750	391.000000
809.379211	392.000000
809.414734	391.400000
809.450134	400.200000
809.485657	384.100000
809.521118	389.600000
809.556580	389.200000
809.592102	385.100000
809.627502	383.300000
809.663025	380.400000
809.698486	379.300000
809.733887	373.700000
809.769409	378.100000
809.804871	366.800000
809.840271	372.000000
809.875793	373.300000
809.911194	378.100000
809.946655	366.100000
809.982178	364.100000
810.017639	370.500000
810.053040	365.900000
810.088501	364.000000
810.123901	363.700000
810.159424	360.100000
810.194885	356.400000
810.230286	358.800000
810.265747	354.600000
810.301208	350.000000
810.336609	355.300000
810.372070	347.300000
810.407532	349.900000
810.442932	352.700000
810.478394	355.300000
810.513794	353.300000
810.549255	351.100000
810.584717	348.300000
810.620117	340.300000
810.655518	347.900000
810.690979	347.300000
810.726379	347.000000
810.761841	337.400000
810.797302	337.700000
810.832642	334.000000
810.868103	348.200000
810.903564	335.200000
810.938904	342.600000
810.974365	330.200000
811.009827	334.500000
811.045166	329.700000
811.080627	323.600000
811.115967	330.700000
811.151428	337.500000
811.186829	330.300000
811.222229	329.700000
811.257629	321.000000
811.293091	327.900000
811.328430	333.700000
811.363892	327.700000
811.399292	332.600000
811.434631	324.100000
811.470093	329.700000
811.505493	319.500000
811.540833	323.500000
811.576294	328.400000
811.611694	321.400000
811.647034	317.200000
811.682434	318.900000
811.717773	320.000000
811.753235	325.500000
811.788635	319.300000
811.823975	320.300000
811.859375	326.600000
811.894775	314.600000
811.930115	315.800000
811.965515	316.100000
812.000916	320.300000
812.036255	311.400000
812.071655	319.200000
812.106995	310.200000
812.142395	310.300000
812.177795	318.300000
812.213196	315.900000
812.248474	316.200000
812.283875	306.600000
812.319214	310.900000
812.354614	310.400000
812.390015	307.400000
812.425293	307.500000
812.460693	307.900000
812.496094	304.000000
812.531433	299.100000
812.566772	300.700000
812.602173	302.000000
812.637451	303.100000
812.672852	297.900000
812.708191	303.300000
812.743530	295.800000
812.778931	288.400000
812.814270	294.000000
812.849609	302.000000
812.884949	294.700000
812.920227	288.300000
812.955627	303.700000
812.990967	294.500000
813.026306	291.200000
813.061646	280.600000
813.096985	278.500000
813.132324	276.200000
813.167664	281.600000
813.203003	286.800000
813.238281	272.700000
813.273682	274.600000
813.308960	272.400000
813.344299	275.400000
813.379639	282.400000
813.414978	275.600000
813.450256	273.300000
813.485596	277.900000
813.520874	270.200000
813.556213	275.200000
813.591614	278.900000
813.626831	268.700000
813.662170	275.700000
813.697510	284.900000
813.732788	269.200000
813.768127	271.300000
813.803467	275.500000
813.838745	269.200000
813.874084	272.000000
813.909363	271.900000
813.944641	273.100000
813.979980	262.500000
814.015320	266.900000
814.050598	263.800000
814.085876	269.800000
814.121155	267.900000
814.156494	263.900000
814.191772	266.200000
814.227051	260.900000
814.262390	263.500000
814.297668	263.200000
814.332947	265.000000
814.368225	257.100000
814.403564	260.100000
814.438782	255.700000
814.474121	257.700000
814.509338	254.200000
814.544617	265.200000
814.579956	253.800000
814.615173	265.100000
814.650513	261.400000
814.685791	252.700000
814.721008	255.800000
814.756348	256.800000
814.791626	251.900000
814.826843	252.600000
814.862122	253.100000
814.897400	249.100000
814.932678	251.700000
814.967957	253.600000
815.003235	249.400000
815.038452	245.300000
815.073730	243.900000
815.108948	254.400000
815.144226	249.400000
815.179504	257.200000
815.214722	239.000000
815.250000	239.500000
815.285278	246.200000
815.320496	241.700000
815.355774	245.000000
815.391052	247.000000
815.426270	242.600000
815.461487	241.400000
815.496765	237.600000
815.531982	232.100000
815.567261	241.300000
815.602539	248.700000
815.637695	242.400000
815.672974	245.100000
815.708191	244.100000
815.743408	245.700000
815.778687	236.300000
815.813904	246.600000
815.849121	229.400000
815.884399	232.600000
815.919556	231.800000
815.954834	233.700000
815.990051	236.300000
816.025269	240.100000
816.060486	230.800000
816.095703	230.400000
816.130920	237.100000
816.166199	229.500000
816.201416	235.800000
816.236572	239.600000
816.271851	229.500000
816.307007	236.500000
816.342224	225.500000
816.377441	229.400000
816.412659	220.400000
816.447876	233.400000
816.483093	228.200000
816.518250	229.900000
816.553467	223.600000
816.588745	231.900000
816.623901	223.500000
816.659119	217.500000
816.694275	223.700000
816.729492	219.600000
816.764709	258.500000
816.799927	217.200000
816.835083	222.900000
816.870300	217.600000
816.905457	222.200000
816.940674	225.500000
816.975830	218.600000
817.010986	217.100000
817.046204	219.900000
817.081421	217.100000
817.116577	215.500000
817.151733	224.200000
817.186951	225.300000
817.222107	221.800000
817.257324	221.800000
817.292419	221.500000
817.327637	213.300000
817.362854	218.800000
817.398010	211.600000
817.433167	215.100000
817.468323	214.300000
817.503479	214.500000
817.538635	223.700000
817.573853	219.100000
817.608948	216.100000
817.644165	211.500000
817.679321	210.500000
817.714478	210.400000
817.749634	215.600000
817.784790	228.100000
817.819946	221.500000
817.855103	202.500000
817.890198	213.100000
817.925415	204.700000
817.960571	213.300000
817.995667	212.400000
818.030823	213.600000
818.066040	207.500000
818.101135	212.100000
818.136292	211.900000
818.171448	205.700000
818.206543	209.200000
818.241699	211.700000
818.276855	211.200000
818.311951	209.700000
818.347107	204.300000
818.382263	213.600000
818.417358	216.700000
818.452515	216.000000
818.487610	217.100000
818.522766	206.300000
818.557922	218.300000
818.593018	211.700000
818.628113	211.000000
818.663269	205.100000
818.698364	208.500000
818.733521	206.600000
818.768677	212.200000
818.803711	202.100000
818.838867	204.100000
818.874023	208.100000
818.909058	204.400000
818.944214	202.000000
818.979370	209.800000
819.014404	207.300000
819.049561	204.600000
819.084595	209.800000
819.119751	200.000000
819.154846	209.400000
819.189941	205.500000
819.225037	200.600000
819.260193	196.800000
819.295227	197.500000
819.330322	193.500000
819.365479	194.700000
819.400513	227.500000
819.435608	192.500000
819.470764	190.700000
819.505798	194.200000
819.540894	199.000000
819.575989	196.000000
819.611084	205.700000
819.646179	205.900000
819.681213	200.900000
819.716309	197.900000
819.751404	196.400000
819.786438	203.100000
819.821533	193.800000
819.856628	199.700000
819.891663	203.100000
819.926758	208.900000
819.961853	206.300000
819.996887	195.700000
820.031982	202.400000
820.067017	198.000000
820.102112	225.400000
820.137207	196.300000
820.172302	214.500000
820.207275	194.800000
820.242371	195.400000
820.277405	193.800000
820.312500	199.100000
820.347534	201.000000
820.382568	202.600000
820.417664	195.900000
820.452759	197.000000
820.487732	194.600000
820.522827	195.900000
820.557861	193.300000
820.592896	194.200000
820.627930	197.200000
820.662964	194.400000
820.698059	199.700000
820.733093	195.400000
820.768127	199.700000
820.803162	196.500000
820.838196	192.100000
820.873230	197.900000
820.908264	196.900000
820.943298	192.600000
820.978333	201.900000
821.013367	196.400000
821.048401	200.400000
821.083435	202.400000
821.118469	188.500000
821.153503	200.300000
821.188477	197.100000
821.223511	188.300000
821.258484	194.800000
821.293579	196.100000
821.328613	189.100000
821.363647	193.900000
821.398621	189.000000
821.433655	192.200000
821.468628	206.400000
821.503662	192.400000
821.538696	197.800000
821.573669	189.400000
821.608704	198.200000
821.643677	191.600000
821.678650	198.700000
821.713684	203.400000
821.748718	193.200000
821.783691	195.100000
821.818726	196.400000
821.853638	196.400000
821.888672	194.700000
821.923706	195.800000
821.958618	190.900000
821.993652	192.800000
822.028687	199.700000
822.063599	201.600000
822.098633	196.400000
822.133667	192.100000
822.168579	195.100000
822.203613	195.600000
822.238586	191.100000
822.273560	198.400000
822.308533	191.200000
822.343567	192.400000
822.378479	193.200000
822.413452	194.500000
822.448425	190.000000
822.483398	199.800000
822.518372	198.800000
822.553345	190.800000
822.588318	202.200000
822.623291	193.400000
822.658203	190.600000
822.693237	194.200000
822.728210	188.700000
822.763123	194.600000
822.798096	189.500000
822.833069	194.700000
822.867981	194.000000
822.902954	195.500000
822.937927	198.700000
822.972900	205.900000
823.007874	186.400000
823.042725	197.300000
823.077698	206.700000
823.112671	189.900000
823.147583	193.400000
823.182556	196.500000
823.217529	197.300000
823.252441	190.800000
823.287415	208.100000
823.322388	195.400000
823.357239	194.700000
823.392212	201.900000
823.427185	197.000000
823.462097	190.900000
823.497009	196.800000
823.531982	190.600000
823.566895	194.800000
823.601807	190.500000
823.636719	191.600000
823.671631	198.800000
823.706604	192.000000
823.741455	196.500000
823.776428	188.000000
823.811340	198.200000
823.846252	201.400000
823.881165	202.700000
823.916138	196.500000
823.950989	204.300000
823.985901	192.000000
824.020813	195.500000
824.055725	192.500000
824.090637	190.500000
824.125610	195.800000
824.160461	195.200000
824.195374	196.400000
824.230225	198.700000
824.265198	186.300000
824.300110	191.700000
824.334961	204.600000
824.369873	183.900000
824.404785	196.000000
824.439636	201.100000
824.474548	185.300000
824.509460	184.400000
824.544312	199.100000
824.579224	196.600000
824.614075	197.000000
824.648987	194.300000
824.683899	193.400000
824.718811	190.600000
824.753662	201.100000
824.788574	198.100000
824.823364	195.900000
824.858276	191.500000
824.893188	200.200000
824.928040	199.700000
824.962952	197.300000
824.997803	198.600000
825.032654	193.900000
825.067566	197.500000
825.102417	191.700000
825.137268	193.400000
825.172119	193.100000
825.206970	191.100000
825.241882	191.500000
825.276733	190.400000
825.311646	191.000000
825.346436	188.600000
825.381348	190.400000
825.416138	194.600000
825.450989	190.300000
825.485901	186.000000
825.520691	185.700000
825.555542	188.400000
825.590454	193.600000
825.625244	186.700000
825.660095	200.500000
825.695007	199.000000
825.729797	192.300000
825.764648	190.100000
825.799438	192.800000
825.834290	193.900000
825.869202	186.700000
825.903992	194.800000
825.938843	189.500000
825.973694	187.900000
826.008484	204.800000
826.043335	187.100000
826.078186	184.300000
826.112976	198.500000
826.147827	198.000000
826.182678	202.200000
826.217468	184.600000
826.252319	197.300000
826.287109	188.400000
826.321899	199.300000
826.356750	191.100000
826.391541	188.400000
826.426392	198.900000
826.461182	192.700000
826.495972	187.100000
826.530823	183.300000
826.565613	193.400000
826.600403	186.500000
826.635254	196.000000
826.670044	183.600000
826.704834	185.100000
826.739685	188.100000
826.774475	194.500000
826.809265	193.200000
826.844055	191.300000
826.878906	199.600000
826.913635	195.300000
826.948425	195.700000
826.983215	196.100000
827.018005	197.700000
827.052856	191.200000
827.087585	195.800000
827.122375	187.400000
827.157227	192.800000
827.191956	205.200000
827.226746	187.100000
827.261536	197.100000
827.296265	186.100000
827.331116	190.900000
827.365906	196.200000
827.400635	189.400000
827.435425	183.500000
827.470215	198.800000
827.504944	190.500000
827.539734	197.500000
827.574463	191.600000
827.609253	200.300000
827.644043	192.600000
827.678772	196.700000
827.713562	190.200000
827.748352	192.000000
827.783081	188.800000
827.817871	192.300000
827.852600	187.400000
827.887329	193.300000
827.922119	183.300000
827.956848	195.900000
827.991638	205.600000
828.026367	194.700000
828.061157	192.500000
828.095886	192.400000
828.130615	206.600000
828.165344	183.800000
828.200073	193.000000
828.234863	190.800000
828.269592	191.700000
828.304321	196.800000
828.339111	193.000000
828.373779	189.100000
828.408569	198.000000
828.443298	197.700000
828.477966	190.300000
828.512756	193.600000
828.547424	188.200000
828.582214	190.300000
828.616943	191.300000
828.651672	192.100000
828.686340	197.600000
828.721130	191.100000
828.755798	191.000000
828.790527	193.000000
828.825256	194.400000
828.859924	193.800000
828.894714	200.000000
828.929443	201.400000
828.964111	189.200000
828.998840	195.400000
829.033569	189.200000
829.068237	191.800000
829.102966	189.500000
829.137634	193.600000
829.172363	193.900000
829.207092	194.100000
829.241821	189.200000
829.276489	183.200000
829.311157	193.400000
829.345825	191.800000
829.380554	196.400000
829.415283	187.900000
829.449951	185.800000
829.484619	200.500000
829.519348	200.500000
829.554016	192.400000
829.588745	192.700000
829.623413	186.100000
829.658081	202.000000
829.692749	186.600000
829.727417	197.500000
829.762146	194.500000
829.796814	187.700000
829.831482	192.100000
829.866150	193.800000
829.900879	189.000000
829.935486	195.000000
829.970154	191.700000
830.004883	203.200000
830.039490	193.000000
830.074219	189.000000
830.108887	193.000000
830.143494	191.500000
830.178223	188.000000
830.212891	190.400000
830.247498	192.800000
830.282166	201.800000
830.316772	198.600000
830.351501	190.300000
830.386169	191.600000
830.420776	191.300000
830.455444	194.400000
830.490112	190.100000
830.524719	184.700000
830.559387	195.400000
830.594055	195.500000
830.628662	192.400000
830.663330	192.800000
830.697998	200.900000
830.732605	192.400000
830.767273	194.700000
830.801941	191.800000
830.836487	201.300000
830.871155	193.900000
830.905762	195.200000
830.940430	185.700000
830.975098	187.700000
831.009644	194.100000
831.044312	200.900000
831.078979	193.500000
831.113525	182.500000
831.148193	191.900000
831.182861	189.700000
831.217407	194.000000
831.252075	209.500000
831.286621	189.700000
831.321289	188.900000
831.355896	191.700000
831.390564	199.900000
831.425110	191.700000
831.459778	198.800000
831.494324	205.900000
831.528931	196.300000
831.563599	195.200000
831.598145	186.200000
831.632751	192.200000
831.667419	190.700000
831.701965	194.700000
831.736572	197.500000
831.771179	185.800000
831.805786	190.400000
831.840393	198.800000
831.874939	184.400000
831.909546	197.200000
831.944153	186.000000
831.978760	192.400000
832.013306	189.000000
832.047913	201.000000
832.082458	201.100000
832.117065	188.400000
832.151672	201.100000
832.186218	193.400000
832.220825	196.100000
832.255432	183.900000
832.289978	189.600000
832.324585	194.400000
832.359192	194.000000
832.393677	190.000000
832.428284	194.300000
832.462830	190.800000
832.497437	191.900000
832.531982	194.600000
832.566589	191.100000
832.601135	194.800000
832.635681	183.500000
832.670227	191.600000
832.704773	199.200000
832.739380	195.300000
832.773926	192.600000
832.808472	188.800000
832.843079	192.200000
832.877563	195.200000
832.912170	189.200000
832.946716	184.100000
832.981201	198.200000
833.015808	195.300000
833.050293	191.400000
833.084839	188.100000
833.119446	189.600000
833.153992	196.600000
833.188477	191.800000
833.223022	187.900000
833.257568	192.900000
833.292114	198.600000
833.326660	203.500000
833.361145	189.600000
833.395691	184.900000
833.430237	191.200000
833.464783	194.600000
833.499329	188.500000
833.533875	186.600000
833.568359	196.600000
833.602905	198.800000
833.637390	197.600000
833.671875	188.800000
833.706421	192.200000
833.740906	187.900000
833.775452	182.900000
833.809998	191.800000
833.844482	199.700000
833.879028	193.900000
833.913513	190.600000
833.947998	194.900000
833.982544	189.100000
834.017090	188.200000
834.051514	182.500000
834.086060	195.900000
834.120544	191.500000
834.155029	194.900000
834.189575	190.500000
834.223999	194.900000
834.258545	193.600000
834.293030	193.400000
834.327515	191.800000
834.362000	189.400000
834.396545	195.900000
834.430969	191.800000
834.465454	196.600000
834.500000	183.900000
834.534424	195.800000
834.568970	182.300000
834.603455	182.300000
834.637878	189.100000
834.672363	191.800000
834.706909	192.200000
834.741333	192.400000
834.775818	184.900000
834.810242	188.300000
834.844727	192.800000
834.879211	189.800000
834.913635	192.900000
834.948181	193.300000
834.982666	193.300000
835.017090	190.300000
835.051575	196.500000
835.086060	187.900000
835.120483	197.500000
835.154907	196.800000
835.189331	191.700000
835.223816	194.900000
835.258301	187.400000
835.292786	187.700000
835.327209	198.400000
835.361694	189.000000
835.396057	188.900000
835.430542	195.100000
835.465027	194.400000
835.499390	187.600000
835.533875	212.800000
835.568359	191.900000
835.602722	185.800000
835.637207	194.100000
835.671692	186.300000
835.706055	208.000000
835.740540	193.800000
835.774902	195.200000
835.809387	193.800000
835.843811	185.900000
835.878235	199.000000
835.912659	186.400000
835.947083	188.500000
835.981506	192.500000
836.015930	184.200000
836.050354	197.700000
836.084778	201.300000
836.119202	197.400000
836.153625	205.800000
836.187988	188.900000
836.222473	188.400000
836.256897	193.200000
836.291260	190.700000
836.325684	194.300000
836.360046	189.800000
836.394470	191.400000
836.428894	197.900000
836.463318	188.400000
836.497681	195.500000
836.532104	199.100000
836.566467	193.000000
836.600891	191.800000
836.635315	198.800000
836.669678	196.200000
836.704102	196.800000
836.738525	193.600000
836.772888	183.200000
836.807251	189.900000
836.841675	194.600000
836.876038	187.200000
836.910461	188.800000
836.944763	195.500000
836.979187	188.600000
837.013611	198.700000
837.047974	185.900000
837.082336	204.900000
837.116699	195.200000
837.151062	192.300000
837.185486	187.500000
837.219849	190.800000
837.254211	196.100000
837.288574	192.400000
837.322937	188.100000
837.357300	181.100000
837.391663	206.900000
837.426086	197.500000
837.460388	193.400000
837.494751	198.000000
837.529114	189.500000
837.563477	197.100000
837.597839	193.400000
837.632141	190.900000
837.666565	188.800000
837.700928	193.800000
837.735229	196.000000
837.769592	194.900000
837.803955	197.400000
837.838257	191.000000
837.872620	189.400000
837.906982	198.800000
837.941284	193.100000
837.975647	192.600000
838.010010	199.900000
838.044312	189.300000
838.078674	190.500000
838.112976	192.400000
838.147339	196.300000
838.181702	191.400000
838.216003	202.300000
838.250366	193.900000
838.284668	194.500000
838.318970	184.400000
838.353333	193.400000
838.387634	191.600000
838.421936	193.000000
838.456299	193.900000
838.490601	200.700000
838.524902	196.700000
838.559265	198.200000
838.593567	195.900000
838.627869	186.700000
838.662170	195.600000
838.696472	187.300000
838.730774	188.500000
838.765137	198.000000
838.799377	178.200000
838.833740	194.100000
838.868042	198.600000
838.902283	184.100000
838.936646	199.100000
838.970947	194.600000
839.005188	198.600000
839.039551	185.700000
839.073792	199.200000
839.108093	191.700000
839.142395	201.500000
839.176697	185.700000
839.210937	193.000000
839.245300	203.500000
839.279541	185.800000
839.313843	189.900000
839.348145	195.700000
839.382385	196.800000
839.416687	197.100000
839.450989	196.800000
839.485229	191.700000
839.519531	187.900000
839.553833	198.600000
839.588013	191.700000
839.622314	193.300000
839.656555	195.900000
839.690857	193.600000
839.725159	186.300000
839.759460	191.600000
839.793640	190.300000
839.827942	191.300000
839.862183	187.600000
839.896423	194.100000
839.930725	203.000000
839.964966	200.700000
839.999207	200.300000
840.033508	200.200000
840.067688	190.600000
840.101990	203.600000
840.136230	192.800000
840.170471	201.700000
840.204712	189.900000
840.238953	188.700000
840.273193	195.300000
840.307434	198.700000
840.341736	188.500000
840.375916	187.300000
840.410217	189.300000
840.444397	197.900000
840.478638	194.900000
840.512878	200.300000
840.547119	194.100000
840.581360	196.300000
840.615601	203.900000
840.649780	203.200000
840.684021	191.800000
840.718262	201.700000
840.752441	198.900000
840.786682	193.100000
840.820862	194.900000
840.855103	200.400000
840.889343	194.600000
840.923584	196.700000
840.957764	195.700000
840.992004	194.700000
841.026184	206.300000
841.060425	191.500000
841.094666	189.500000
841.128845	195.800000
841.163025	194.600000
841.197266	195.200000
841.231445	194.600000
841.265686	193.700000
841.299866	189.000000
841.334045	201.100000
841.368286	191.300000
841.402405	200.800000
841.436646	197.100000
841.470825	190.300000
841.505005	192.700000
841.539185	189.700000
841.573425	190.500000
841.607544	192.100000
841.641785	194.900000
841.675964	187.900000
841.710144	192.800000
841.744324	190.500000
841.778503	192.700000
841.812683	188.100000
841.846863	204.300000
841.881042	199.900000
841.915222	191.400000
841.949402	209.100000
841.983521	183.900000
842.017700	192.200000
842.051880	194.800000
842.086060	196.300000
842.120239	193.500000
842.154419	191.600000
842.188538	194.100000
842.222717	190.000000
842.256897	203.800000
842.291016	192.600000
842.325195	196.900000
842.359375	203.900000
842.393494	203.300000
842.427673	193.300000
842.461853	195.100000
842.495911	201.200000
842.530090	195.700000
842.564209	191.900000
842.598389	194.900000
842.632568	193.600000
842.666626	196.600000
842.700806	189.200000
842.734985	190.600000
842.769043	197.300000
842.803223	191.300000
842.837402	191.600000
842.871460	191.800000
842.905640	200.700000
842.939697	189.600000
842.973877	195.400000
843.007996	197.300000
843.042175	202.100000
843.076233	189.800000
843.110413	195.800000
843.144470	203.900000
843.178589	197.900000
843.212769	191.500000
843.246826	198.600000
843.280945	192.000000
843.315125	191.600000
843.349182	189.500000
843.383301	199.900000
843.417419	206.100000
843.451538	194.800000
843.485657	191.500000
843.519714	192.100000
843.553833	195.500000
843.587952	192.600000
843.622070	190.800000
843.656128	196.800000
843.690247	191.300000
843.724304	192.100000
843.758423	195.700000
843.792542	191.300000
843.826599	193.600000
843.860718	191.200000
843.894836	186.900000
843.928894	193.300000
843.963013	195.600000
843.997070	189.900000
844.031128	187.800000
844.065247	198.800000
844.099304	198.500000
844.133362	195.200000
844.167480	196.600000
844.201599	200.300000
844.235596	195.800000
844.269714	194.600000
844.303711	196.100000
844.337830	184.500000
844.371948	197.000000
844.405945	193.700000
844.440063	188.200000
844.474121	207.000000
844.508118	192.200000
844.542236	191.600000
844.576294	192.700000
844.610352	188.700000
844.644409	192.500000
844.678406	184.100000
844.712524	198.100000
844.746582	200.800000
844.780640	193.500000
844.814636	193.700000
844.848755	206.500000
844.882751	192.500000
844.916809	200.400000
844.950867	195.100000
844.984863	202.900000
845.018921	193.700000
845.052979	190.500000
845.086975	196.300000
845.121033	188.800000
845.155090	189.200000
845.189087	201.700000
845.223145	192.900000
845.257141	194.800000
845.291199	197.500000
845.325256	202.400000
845.359253	194.400000
845.393250	205.800000
845.427307	193.200000
845.461304	196.300000
845.495361	195.000000
845.529358	205.000000
845.563354	191.600000
845.597412	189.400000
845.631409	201.600000
845.665405	201.200000
845.699463	199.000000
845.733459	191.700000
845.767456	200.600000
845.801453	193.500000
845.835449	200.800000
845.869446	197.100000
845.903503	197.500000
845.937439	189.300000
845.971497	200.600000
846.005493	187.000000
846.039429	197.900000
846.073486	203.100000
846.107483	193.600000
846.141418	194.700000
846.175476	193.700000
846.209473	201.500000
846.243408	191.800000
846.277405	195.000000
846.311401	188.200000
846.345337	193.900000
846.379395	199.500000
846.413330	190.100000
846.447327	203.000000
846.481323	187.500000
846.515259	191.400000
846.549255	194.200000
846.583252	197.000000
846.617187	189.200000
846.651184	197.600000
846.685120	192.500000
846.719055	202.700000
846.753052	200.500000
846.786987	198.800000
846.820984	188.700000
846.854980	201.600000
846.888916	188.800000
846.922852	197.100000
846.956848	202.600000
846.990723	189.800000
847.024719	194.800000
847.058716	192.000000
847.092590	201.400000
847.126587	195.400000
847.160522	190.700000
847.194458	197.900000
847.228455	189.800000
847.262390	188.300000
847.296265	191.600000
847.330261	200.200000
847.364136	191.600000
847.398132	190.900000
847.432068	194.600000
847.466003	193.400000
847.499939	193.700000
847.533875	196.900000
847.567749	192.500000
847.601746	192.000000
847.635681	198.000000
847.669556	184.800000
847.703491	198.900000
847.737427	209.100000
847.771301	189.700000
847.805237	194.700000
847.839233	195.100000
847.873108	194.100000
847.907043	193.400000
847.940918	200.500000
847.974854	196.200000
848.008789	198.000000
848.042664	194.600000
848.076538	197.800000
848.110474	194.200000
848.144348	195.100000
848.178284	187.800000
848.212219	194.100000
848.246094	192.900000
848.279968	195.300000
848.313904	198.700000
848.347778	193.900000
848.381653	192.800000
848.415588	190.300000
848.449463	190.900000
848.483337	196.900000
848.517212	199.400000
848.551086	194.200000
848.585022	191.700000
848.618835	202.500000
848.652771	192.700000
848.686646	189.100000
848.720520	203.200000
848.754395	193.600000
848.788330	198.600000
848.822144	198.500000
848.856018	193.300000
848.889954	205.600000
848.923767	189.500000
848.957642	190.800000
848.991577	198.900000
849.025391	191.300000
849.059265	192.800000
849.093079	190.400000
849.126953	187.700000
849.160828	200.400000
849.194641	194.000000
849.228577	191.400000
849.262451	192.900000
849.296265	191.500000
849.330139	188.400000
849.364014	194.000000
849.397827	197.000000
849.431702	193.300000
849.465515	198.000000
849.499329	185.500000
849.533203	187.700000
849.567078	184.300000
849.600891	198.300000
849.634766	193.400000
849.668518	198.400000
849.702393	194.400000
849.736267	187.300000
849.770020	205.700000
849.803894	196.400000
849.837769	194.500000
849.871521	192.500000
849.905396	200.900000
849.939270	189.700000
849.973022	193.500000
850.006897	198.400000
850.040710	197.200000
850.074524	197.600000
850.108337	193.500000
850.142151	197.600000
850.175964	201.700000
850.209778	193.000000
850.243530	181.900000
850.277405	199.500000
850.311218	192.900000
850.344971	191.500000
850.378845	201.700000
850.412659	190.600000
850.446411	195.100000
850.480225	192.300000
850.514038	199.600000
850.547791	195.800000
850.581665	193.100000
850.615417	190.600000
850.649231	195.200000
850.683044	193.200000
850.716858	192.900000
850.750610	194.400000
850.784424	197.700000
850.818176	190.300000
850.851929	191.600000
850.885742	190.000000
850.919495	193.600000
850.953308	200.000000
850.987122	202.600000
851.020874	189.200000
851.054626	185.100000
851.088440	198.300000
851.122192	197.900000
851.156006	194.600000
851.189697	192.800000
851.223511	190.100000
851.257263	197.500000
851.291077	197.500000
851.324829	193.900000
851.358582	190.400000
851.392334	191.800000
851.426086	192.900000
851.459900	200.900000
851.493591	194.400000
851.527344	194.500000
851.561157	194.600000
851.594849	197.500000
851.628662	197.200000
851.662415	202.800000
851.696106	196.700000
851.729858	199.700000
851.763611	187.600000
851.797363	195.100000
851.831116	189.800000
851.864868	196.400000
851.898560	197.700000
851.932312	191.100000
851.966064	196.900000
851.999817	194.400000
852.033569	193.500000
852.067261	199.100000
852.101013	190.700000
852.134766	192.200000
852.168457	183.500000
852.202209	198.400000
852.235901	188.900000
852.269592	197.900000
852.303345	203.300000
852.337036	198.100000
852.370789	193.400000
852.404541	197.300000
852.438171	188.900000
852.471924	192.200000
852.505676	187.300000
852.539307	197.500000
852.573059	190.400000
852.606812	192.100000
852.640442	192.000000
852.674194	198.900000
852.707886	205.200000
852.741577	202.200000
852.775269	187.400000
852.809021	196.400000
852.842651	196.000000
852.876404	198.400000
852.910034	195.400000
852.943787	200.200000
852.977478	197.500000
853.011108	192.200000
853.044861	191.400000
853.078552	201.700000
853.112183	196.500000
853.145874	197.400000
853.179626	185.100000
853.213257	197.500000
853.246948	193.500000
853.280640	202.900000
853.314270	194.900000
853.347961	202.100000
853.381653	197.300000
853.415283	198.100000
853.448975	191.000000
853.482605	196.000000
853.516296	194.400000
853.549988	188.400000
853.583618	195.700000
853.617310	196.200000
853.651001	196.600000
853.684631	190.400000
853.718323	191.800000
853.751953	201.700000
853.785583	185.700000
853.819275	198.700000
853.852966	194.800000
853.886536	183.900000
853.920227	189.200000
853.953918	200.700000
853.987488	192.600000
854.021179	197.900000
854.054749	202.000000
854.088440	195.700000
854.122131	190.500000
854.155701	197.100000
854.189331	191.000000
854.223022	197.600000
854.256592	198.300000
854.290283	189.700000
854.323914	199.000000
854.357483	197.600000
854.391174	196.200000
854.424744	203.700000
854.458374	197.100000
854.492065	205.400000
854.525696	197.600000
854.559265	201.100000
854.592896	206.200000
854.626465	194.700000
854.660095	197.200000
854.693787	197.200000
854.727356	194.200000
854.760986	198.800000
854.794617	196.500000
854.828186	193.200000
854.861816	198.200000
854.895447	195.000000
854.929016	197.600000
854.962585	196.800000
854.996155	202.700000
855.029785	198.000000
855.063416	197.100000
855.097046	199.000000
855.130615	189.100000
855.164185	200.600000
855.197754	195.300000
855.231384	197.700000
855.264954	193.400000
855.298523	198.400000
855.332153	194.200000
855.365723	202.000000
855.399292	190.000000
855.432922	192.900000
855.466492	196.500000
855.500061	189.800000
855.533630	190.600000
855.567200	197.700000
855.600769	198.800000
855.634338	198.400000
855.667969	195.200000
855.701477	189.700000
855.735046	190.400000
855.768616	185.600000
855.802185	196.200000
855.835754	208.200000
855.869324	185.500000
855.902893	192.000000
855.936401	201.200000
855.969971	196.100000
856.003540	187.100000
856.037109	199.500000
856.070618	193.900000
856.104187	188.600000
856.137695	190.800000
856.171265	185.500000
856.204834	194.200000
856.238403	202.100000
856.271912	191.400000
856.305481	196.700000
856.338989	188.600000
856.372559	198.000000
856.406128	195.200000
856.439636	200.200000
856.473145	192.700000
856.506653	201.900000
856.540222	194.900000
856.573792	202.400000
856.607300	198.600000
856.640808	188.100000
856.674377	195.600000
856.707825	223.300000
856.741394	198.100000
856.774902	190.300000
856.808472	185.700000
856.841980	197.200000
856.875488	202.300000
856.908936	186.100000
856.942505	193.300000
856.976013	193.100000
857.009521	189.600000
857.043030	194.900000
857.076477	192.700000
857.110046	199.600000
857.143555	194.600000
857.177063	200.600000
857.210571	192.100000
857.244080	188.300000
857.277527	197.100000
857.311035	192.400000
857.344543	197.700000
857.378052	193.900000
857.411499	200.100000
857.445068	204.000000
857.478516	192.800000
857.512024	188.100000
857.545532	193.200000
857.578979	194.500000
857.612427	194.700000
857.645874	190.900000
857.679382	197.100000
857.712891	198.600000
857.746399	193.200000
857.779846	200.300000
857.813354	199.900000
857.846741	194.800000
857.880249	191.100000
857.913757	195.800000
857.947266	198.000000
857.980652	198.600000
858.014160	192.700000
858.047546	193.800000
858.081055	194.900000
858.114563	202.500000
858.147949	189.300000
858.181458	198.400000
858.214844	193.600000
858.248352	185.400000
858.281799	199.900000
858.315308	207.900000
858.348694	197.900000
858.382141	203.000000
858.415588	198.100000
858.449036	199.500000
858.482483	196.900000
858.515930	190.400000
858.549377	194.500000
858.582825	200.900000
858.616211	196.300000
858.649658	197.500000
858.683105	189.400000
858.716553	190.800000
858.750000	188.600000
858.783386	192.800000
858.816833	185.700000
858.850281	196.100000
858.883728	195.600000
858.917114	192.200000
858.950562	201.800000
858.983948	204.300000
859.017395	197.500000
859.050781	194.100000
859.084167	190.700000
859.117615	188.300000
859.151062	196.800000
859.184448	192.400000
859.217834	191.700000
859.251282	194.400000
859.284668	190.000000
859.318054	184.700000
859.351440	191.800000
859.384888	202.600000
859.418274	187.100000
859.451721	186.800000
859.485046	197.100000
859.518494	197.000000
859.551819	190.600000
859.585266	198.000000
859.618652	197.400000
859.652039	189.200000
859.685425	189.000000
859.718811	187.600000
859.752197	183.800000
859.785583	203.100000
859.819031	201.400000
859.852356	197.100000
859.885742	190.200000
859.919067	193.900000
859.952454	191.600000
859.985901	198.800000
860.019287	192.900000
860.052612	0.000000
860.085999	0.000000
860.119324	0.000000
860.152710	0.000000
860.186096	0.000000
860.219421	0.000000
860.252808	0.000000
860.286133	0.000000
860.319519	0.000000
860.352905	0.000000
860.386292	0.000000
860.419617	0.000000
860.452942	0.000000
860.486267	0.000000
860.519653	0.000000
860.553040	0.000000
860.586365	0.000000
860.619690	0.000000
860.653076	0.000000
860.686340	0.000000
860.719727	0.000000
860.753113	0.000000
860.786377	0.000000
860.819763	0.000000
860.853027	0.000000
860.886414	0.000000
860.919739	0.000000
860.953125	0.000000
860.986389	0.000000
861.019714	0.000000
861.053040	0.000000
861.086365	0.000000
861.119690	0.000000
861.153076	0.000000
861.186340	0.000000
861.219666	0.000000
861.252930	0.000000
861.286316	0.000000
861.319641	0.000000
861.352905	0.000000
861.386230	0.000000
861.419495	0.000000
861.452820	0.000000
861.486145	0.000000
861.519470	0.000000
861.552734	0.000000
861.586060	0.000000
861.619324	0.000000
861.652649	0.000000
861.685974	0.000000
861.719238	0.000000
861.752563	0.000000
861.785828	0.000000
861.819092	0.000000
861.852417	0.000000
861.885742	0.000000
861.918945	0.000000
861.952271	0.000000
861.985535	0.000000
862.018799	0.000000
862.052124	0.000000
862.085449	0.000000
862.118652	0.000000
862.151978	0.000000
862.185181	0.000000
862.218506	0.000000
862.251770	0.000000
862.285034	0.000000
862.318298	0.000000
862.351562	0.000000
862.384827	0.000000
862.418091	0.000000
862.451355	0.000000
862.484619	0.000000
862.517883	0.000000
862.551086	0.000000
862.584351	0.000000
862.617676	0.000000
862.650940	0.000000
862.684143	0.000000
862.717407	0.000000
862.750610	0.000000
862.783875	0.000000
862.817139	0.000000
862.850342	0.000000
862.883606	0.000000
862.916870	0.000000
862.950073	0.000000
862.983337	0.000000
863.016602	0.000000
863.049805	0.000000
863.083069	0.000000
863.116211	0.000000
863.149475	0.000000
863.182739	0.000000
863.216003	0.000000
863.249146	0.000000
863.282410	0.000000
863.315613	0.000000
863.348816	0.000000
863.382080	0.000000
863.415222	0.000000
863.448486	0.000000
863.481689	0.000000
863.514893	0.000000
863.548157	0.000000
863.581360	0.000000
863.614502	0.000000
863.647766	0.000000
863.680908	0.000000
863.714172	0.000000
863.747375	0.000000
863.780579	0.000000
863.813721	0.000000
863.846985	0.000000
863.880127	0.000000
863.913330	0.000000
863.946533	0.000000
863.979675	0.000000
864.012939	0.000000
