Model Number: SPM-001-M   
Serial Number: 10090201
Firmware Version: 004.17.6
Exposure Time: 500000.000000us
Data Taken on: 10-03-2021 12:12:43.488
Wavelength	Amplitude
733.770752	0.000000
733.808716	0.000000
733.846619	0.000000
733.884583	0.000000
733.922546	0.000000
733.960449	0.000000
733.998413	0.000000
734.036377	0.000000
734.074219	0.000000
734.112183	0.000000
734.150085	0.000000
734.188049	0.000000
734.226013	0.000000
734.263916	0.000000
734.301819	0.000000
734.339783	0.000000
734.377686	0.000000
734.415588	0.000000
734.453552	0.000000
734.491455	0.000000
734.529419	0.000000
734.567322	0.000000
734.605225	0.000000
734.643127	0.000000
734.681091	0.000000
734.718994	0.000000
734.756897	0.000000
734.794800	0.000000
734.832703	0.000000
734.870667	0.000000
734.908508	0.000000
734.946472	0.000000
734.984375	0.000000
735.022278	0.000000
735.060181	0.000000
735.098083	0.000000
735.135986	0.000000
735.173889	0.000000
735.211792	0.000000
735.249695	0.000000
735.287598	0.000000
735.325439	0.000000
735.363403	0.000000
735.401306	0.000000
735.439148	0.000000
735.477051	0.000000
735.515015	0.000000
735.552856	0.000000
735.590759	0.000000
735.628662	0.000000
735.666504	0.000000
735.704407	0.000000
735.742310	0.000000
735.780212	0.000000
735.818115	0.000000
735.856018	0.000000
735.893860	0.000000
735.931763	0.000000
735.969604	0.000000
736.007507	0.000000
736.045410	0.000000
736.083252	0.000000
736.121094	0.000000
736.158997	0.000000
736.196838	0.000000
736.234741	0.000000
736.272644	0.000000
736.310486	0.000000
736.348389	0.000000
736.386230	0.000000
736.424072	0.000000
736.461975	0.000000
736.499878	0.000000
736.537720	0.000000
736.575562	0.000000
736.613403	0.000000
736.651306	0.000000
736.689148	0.000000
736.726990	0.000000
736.764893	0.000000
736.802734	0.000000
736.840576	0.000000
736.878418	0.000000
736.916321	0.000000
736.954102	0.000000
736.992004	0.000000
737.029846	0.000000
737.067688	0.000000
737.105530	0.000000
737.143372	0.000000
737.181213	0.000000
737.219116	0.000000
737.256897	0.000000
737.294739	0.000000
737.332642	0.000000
737.370422	0.000000
737.408325	0.000000
737.446167	0.000000
737.483948	0.000000
737.521790	0.000000
737.559692	0.000000
737.597473	0.000000
737.635315	0.000000
737.673157	0.000000
737.710999	0.000000
737.748840	0.000000
737.786621	0.000000
737.824463	0.000000
737.862305	0.000000
737.900085	0.000000
737.937927	0.000000
737.975769	0.000000
738.013550	0.000000
738.051392	0.000000
738.089233	0.000000
738.127014	0.000000
738.164856	0.000000
738.202698	0.000000
738.240479	0.000000
738.278320	0.000000
738.316162	0.000000
738.353943	0.000000
738.391785	0.000000
738.429565	0.000000
738.467407	0.000000
738.505188	0.000000
738.542969	0.000000
738.580811	0.000000
738.618652	0.000000
738.656372	0.000000
738.694214	0.000000
738.732056	0.000000
738.769836	0.000000
738.807617	0.000000
738.845459	0.000000
738.883240	0.000000
738.921021	0.000000
738.958862	0.000000
738.996582	0.000000
739.034424	0.000000
739.072205	0.000000
739.109985	0.000000
739.147827	0.000000
739.185547	0.000000
739.223389	0.000000
739.261169	0.000000
739.298889	0.000000
739.336731	0.000000
739.374512	0.000000
739.412292	0.000000
739.450073	0.000000
739.487854	0.000000
739.525635	0.000000
739.563416	0.000000
739.601135	0.000000
739.638977	0.000000
739.676758	0.000000
739.714478	0.000000
739.752258	0.000000
739.790100	0.000000
739.827820	0.000000
739.865601	0.000000
739.903381	0.000000
739.941101	0.000000
739.978882	197.300000
740.016724	191.900000
740.054443	198.100000
740.092224	189.000000
740.130005	191.000000
740.167725	190.700000
740.205505	189.400000
740.243225	198.100000
740.281006	194.700000
740.318787	184.900000
740.356506	199.100000
740.394287	197.000000
740.432068	188.100000
740.469727	187.700000
740.507507	197.600000
740.545288	191.800000
740.583008	195.400000
740.620789	192.700000
740.658569	184.400000
740.696228	191.800000
740.734009	199.600000
740.771790	180.100000
740.809509	197.300000
740.847229	188.200000
740.884949	189.900000
740.922729	185.900000
740.960449	190.200000
740.998169	186.800000
741.035950	187.900000
741.073669	195.000000
741.111389	193.100000
741.149170	203.200000
741.186890	203.200000
741.224609	196.600000
741.262329	194.600000
741.300110	203.000000
741.337769	187.600000
741.375549	187.600000
741.413208	195.100000
741.450989	190.800000
741.488708	190.600000
741.526367	191.100000
741.564148	196.200000
741.601868	198.100000
741.639526	192.200000
741.677307	196.100000
741.715027	195.000000
741.752686	191.000000
741.790466	200.400000
741.828186	196.800000
741.865845	188.500000
741.903564	184.000000
741.941345	192.400000
741.979004	189.100000
742.016724	195.100000
742.054382	193.500000
742.092102	197.700000
742.129822	186.000000
742.167480	190.300000
742.205200	191.100000
742.242920	193.800000
742.280640	197.500000
742.318359	187.900000
742.356079	189.800000
742.393738	195.900000
742.431396	192.100000
742.469116	194.000000
742.506775	182.000000
742.544495	194.800000
742.582214	196.800000
742.619873	191.800000
742.657593	202.600000
742.695251	196.500000
742.732971	192.900000
742.770630	195.900000
742.808289	194.000000
742.846008	192.500000
742.883728	196.000000
742.921326	193.200000
742.959045	191.100000
742.996765	193.200000
743.034424	191.600000
743.072083	191.300000
743.109802	192.000000
743.147400	187.900000
743.185120	193.200000
743.222839	191.700000
743.260437	197.900000
743.298157	195.300000
743.335754	183.400000
743.373474	191.500000
743.411133	184.900000
743.448792	195.000000
743.486450	192.100000
743.524170	186.300000
743.561768	194.000000
743.599487	200.700000
743.637146	204.000000
743.674744	191.500000
743.712463	189.500000
743.750122	194.300000
743.787720	195.000000
743.825439	189.600000
743.863037	189.300000
743.900696	192.700000
743.938416	216.500000
743.976013	192.200000
744.013672	202.200000
744.051331	198.600000
744.088928	201.900000
744.126587	200.100000
744.164307	192.600000
744.201904	190.100000
744.239563	195.300000
744.277222	195.400000
744.314819	192.600000
744.352478	200.800000
744.390137	194.000000
744.427734	194.200000
744.465393	190.600000
744.502991	187.900000
744.540649	196.600000
744.578308	194.800000
744.615906	187.800000
744.653564	183.200000
744.691223	198.200000
744.728821	185.000000
744.766418	193.800000
744.804077	196.700000
744.841675	190.100000
744.879333	186.300000
744.916992	192.400000
744.954529	190.100000
744.992187	199.400000
745.029785	191.600000
745.067444	191.400000
745.105042	193.500000
745.142639	196.400000
745.180298	202.700000
745.217896	193.200000
745.255493	192.000000
745.293152	198.900000
745.330750	196.200000
745.368347	202.300000
745.405945	195.400000
745.443604	193.300000
745.481140	196.100000
745.518799	193.800000
745.556396	195.800000
745.593994	197.300000
745.631592	191.600000
745.669189	187.100000
745.706787	194.800000
745.744385	189.800000
745.781982	194.700000
745.819580	190.700000
745.857178	190.500000
745.894775	192.600000
745.932373	192.200000
745.969971	193.700000
746.007568	184.500000
746.045166	203.300000
746.082764	198.300000
746.120300	195.700000
746.157898	197.100000
746.195557	193.800000
746.233093	186.400000
746.270691	196.800000
746.308228	195.000000
746.345825	198.200000
746.383423	197.300000
746.420959	189.400000
746.458557	192.300000
746.496155	190.400000
746.533691	191.400000
746.571289	188.000000
746.608887	194.400000
746.646423	193.400000
746.684021	194.600000
746.721619	191.000000
746.759155	195.500000
746.796753	185.800000
746.834351	187.200000
746.871826	189.400000
746.909424	200.800000
746.946960	195.000000
746.984558	192.700000
747.022156	190.000000
747.059631	200.900000
747.097229	195.400000
747.134827	192.900000
747.172363	200.100000
747.209900	195.200000
747.247498	187.500000
747.285034	201.600000
747.322571	199.500000
747.360168	191.900000
747.397644	186.200000
747.435242	196.300000
747.472778	198.700000
747.510315	190.100000
747.547913	190.100000
747.585388	199.400000
747.622925	192.000000
747.660522	185.100000
747.697998	189.200000
747.735596	192.600000
747.773132	190.100000
747.810669	194.300000
747.848206	195.800000
747.885742	188.100000
747.923279	186.900000
747.960815	195.700000
747.998352	193.200000
748.035889	198.700000
748.073425	198.600000
748.110901	189.700000
748.148437	189.100000
748.185974	194.200000
748.223511	203.100000
748.261047	194.600000
748.298584	195.900000
748.336060	192.400000
748.373596	197.100000
748.411133	212.500000
748.448608	189.700000
748.486145	197.300000
748.523682	200.900000
748.561218	198.400000
748.598755	194.400000
748.636292	196.900000
748.673706	192.500000
748.711243	198.500000
748.748718	194.700000
748.786255	192.700000
748.823792	194.700000
748.861267	188.500000
748.898804	195.900000
748.936340	194.300000
748.973816	191.800000
749.011292	199.400000
749.048828	194.900000
749.086304	196.200000
749.123840	206.000000
749.161316	187.600000
749.198792	204.700000
749.236328	199.700000
749.273743	192.300000
749.311279	191.500000
749.348816	195.100000
749.386230	193.300000
749.423767	181.800000
749.461304	194.500000
749.498718	193.400000
749.536255	200.100000
749.573730	205.400000
749.611206	198.900000
749.648682	191.400000
749.686218	192.300000
749.723633	197.800000
749.761169	191.000000
749.798645	189.200000
749.836060	192.900000
749.873596	190.600000
749.911011	193.300000
749.948547	199.400000
749.986023	193.300000
750.023437	192.300000
750.060913	187.200000
750.098450	187.700000
750.135864	192.800000
750.173340	194.000000
750.210815	198.300000
750.248291	188.000000
750.285767	194.300000
750.323242	201.100000
750.360657	196.900000
750.398132	187.600000
750.435608	199.300000
750.473022	188.500000
750.510498	189.800000
750.547974	189.500000
750.585449	192.200000
750.622925	182.400000
750.660339	202.500000
750.697815	193.800000
750.735291	193.600000
750.772644	191.700000
750.810120	192.000000
750.847595	195.800000
750.885010	189.200000
750.922485	201.500000
750.959961	191.200000
750.997375	198.600000
751.034851	198.500000
751.072266	197.100000
751.109680	185.600000
751.147156	199.000000
751.184570	196.100000
751.221985	195.200000
751.259460	183.000000
751.296875	192.100000
751.334290	192.800000
751.371765	198.200000
751.409180	197.400000
751.446594	200.500000
751.484070	195.800000
751.521423	195.100000
751.558899	195.400000
751.596375	202.100000
751.633728	199.400000
751.671204	207.100000
751.708618	189.700000
751.746033	194.800000
751.783447	188.500000
751.820801	190.200000
751.858276	196.700000
751.895691	193.100000
751.933105	190.500000
751.970520	189.500000
752.007935	191.900000
752.045349	198.500000
752.082764	193.200000
752.120178	192.300000
752.157532	190.000000
752.195007	191.300000
752.232422	195.800000
752.269775	199.400000
752.307190	195.500000
752.344543	189.900000
752.382019	192.200000
752.419434	194.000000
752.456787	195.500000
752.494202	197.400000
752.531616	196.700000
752.568970	199.200000
752.606384	194.300000
752.643799	196.600000
752.681152	201.700000
752.718567	198.300000
752.755981	186.400000
752.793335	196.800000
752.830750	183.700000
752.868164	201.300000
752.905518	188.600000
752.942932	198.400000
752.980225	188.700000
753.017639	197.900000
753.055054	191.500000
753.092407	196.200000
753.129822	200.000000
753.167175	203.800000
753.204529	192.700000
753.241943	190.800000
753.279358	188.300000
753.316650	196.500000
753.354065	197.100000
753.391479	198.100000
753.428772	203.000000
753.466187	197.500000
753.503479	187.500000
753.540894	192.200000
753.578308	189.900000
753.615601	188.700000
753.653015	195.000000
753.690369	190.800000
753.727722	188.900000
753.765076	187.900000
753.802490	189.700000
753.839783	185.000000
753.877136	192.700000
753.914551	210.900000
753.951843	189.500000
753.989258	198.000000
754.026611	196.200000
754.063904	196.700000
754.101257	190.100000
754.138611	186.200000
754.175964	196.300000
754.213318	204.400000
754.250610	187.700000
754.288025	191.100000
754.325378	188.600000
754.362671	199.700000
754.400024	192.200000
754.437378	202.400000
754.474670	203.800000
754.512085	189.600000
754.549438	195.300000
754.586731	191.500000
754.624084	193.400000
754.661438	188.000000
754.698730	201.500000
754.736084	191.300000
754.773376	192.600000
754.810730	197.200000
754.848083	191.500000
754.885315	197.700000
754.922668	186.000000
754.960022	188.400000
754.997314	198.900000
755.034668	196.600000
755.072021	195.500000
755.109253	192.000000
755.146606	202.400000
755.183960	193.000000
755.221252	204.800000
755.258545	201.400000
755.295898	201.000000
755.333191	202.700000
755.370544	199.200000
755.407776	195.900000
755.445129	196.700000
755.482422	201.000000
755.519714	192.700000
755.557068	189.200000
755.594360	187.100000
755.631653	200.600000
755.668945	205.700000
755.706299	200.000000
755.743530	207.800000
755.780884	206.000000
755.818176	202.300000
755.855408	203.500000
755.892761	199.300000
755.930054	199.100000
755.967346	200.900000
756.004639	202.900000
756.041870	198.500000
756.079224	203.600000
756.116516	194.000000
756.153748	204.100000
756.191040	205.900000
756.228394	201.500000
756.265625	193.700000
756.302917	199.000000
756.340210	194.100000
756.377441	205.000000
756.414795	207.000000
756.452087	199.500000
756.489319	191.300000
756.526611	202.900000
756.563843	199.200000
756.601135	210.700000
756.638428	207.900000
756.675659	201.000000
756.712952	205.500000
756.750244	205.000000
756.787476	202.900000
756.824768	209.000000
756.862061	197.300000
756.899292	246.400000
756.936584	205.100000
756.973816	213.800000
757.011047	214.700000
757.048340	203.000000
757.085632	202.300000
757.122864	218.900000
757.160156	200.600000
757.197327	204.300000
757.234619	209.100000
757.271912	202.100000
757.309082	209.100000
757.346375	199.800000
757.383667	211.700000
757.420837	203.900000
757.458130	206.000000
757.495422	203.800000
757.532593	207.700000
757.569885	197.700000
757.607117	202.000000
757.644348	206.900000
757.681580	219.900000
757.718811	192.600000
757.756042	205.600000
757.793335	202.900000
757.830505	210.100000
757.867798	201.500000
757.905029	203.300000
757.942200	207.800000
757.979492	204.200000
758.016724	204.600000
758.053894	204.000000
758.091187	223.800000
758.128418	208.600000
758.165588	204.200000
758.202820	218.500000
758.240112	210.000000
758.277283	218.800000
758.314514	208.000000
758.351685	204.900000
758.388916	217.700000
758.426147	217.300000
758.463379	216.800000
758.500610	212.100000
758.537842	208.800000
758.575012	216.600000
758.612244	205.400000
758.649475	222.700000
758.686646	203.700000
758.723877	217.900000
758.761108	219.000000
758.798279	210.900000
758.835510	214.100000
758.872742	217.200000
758.909851	214.300000
758.947083	215.400000
758.984253	215.300000
759.021484	217.700000
759.058716	218.000000
759.095886	218.400000
759.133057	213.500000
759.170288	216.200000
759.207458	211.300000
759.244690	224.700000
759.281860	225.000000
759.319031	214.100000
759.356262	212.000000
759.393433	213.300000
759.430603	213.800000
759.467773	212.800000
759.505005	222.000000
759.542175	220.400000
759.579346	214.900000
759.616516	214.400000
759.653687	219.100000
759.690918	211.500000
759.728027	216.600000
759.765259	216.600000
759.802429	218.000000
759.839539	219.400000
759.876770	223.300000
759.913940	225.700000
759.951111	218.100000
759.988281	217.700000
760.025452	214.900000
760.062561	212.300000
760.099792	227.000000
760.136963	220.800000
760.174072	217.900000
760.211243	211.100000
760.248413	215.000000
760.285583	214.900000
760.322754	229.500000
760.359863	223.700000
760.397034	226.500000
760.434204	217.200000
760.471375	221.000000
760.508545	218.600000
760.545715	218.500000
760.582825	214.600000
760.619995	224.200000
760.657166	213.900000
760.694275	227.600000
760.731445	223.800000
760.768555	223.100000
760.805664	225.400000
760.842834	223.800000
760.879944	226.200000
760.917114	224.100000
760.954285	224.500000
760.991394	216.200000
761.028564	229.300000
761.065674	226.100000
761.102783	220.100000
761.139954	229.400000
761.177124	229.100000
761.214172	230.000000
761.251343	225.300000
761.288452	226.000000
761.325562	230.700000
761.362732	223.200000
761.399841	226.200000
761.436951	229.600000
761.474121	226.700000
761.511169	228.400000
761.548340	234.400000
761.585449	232.900000
761.622559	235.500000
761.659668	229.300000
761.696838	238.000000
761.733887	233.300000
761.771057	232.000000
761.808167	233.100000
761.845276	240.100000
761.882385	246.200000
761.919434	235.900000
761.956604	254.200000
761.993713	232.400000
762.030762	243.000000
762.067871	236.900000
762.105042	236.800000
762.142090	247.200000
762.179199	240.800000
762.216309	245.100000
762.253418	257.100000
762.290527	248.400000
762.327637	245.800000
762.364685	236.100000
762.401794	245.600000
762.438904	243.400000
762.475952	238.600000
762.513062	238.500000
762.550110	240.100000
762.587219	256.200000
762.624329	254.800000
762.661377	246.100000
762.698486	247.600000
762.735596	244.400000
762.772644	241.000000
762.809753	236.400000
762.846863	245.900000
762.883911	250.600000
762.921021	250.200000
762.958069	248.200000
762.995117	258.900000
763.032227	257.800000
763.069336	250.000000
763.106323	244.000000
763.143433	242.100000
763.180481	249.800000
763.217590	253.600000
763.254639	248.300000
763.291687	252.200000
763.328735	258.300000
763.365845	251.800000
763.402893	250.700000
763.439941	255.500000
763.477051	257.100000
763.514038	260.300000
763.551147	251.000000
763.588196	255.800000
763.625244	253.600000
763.662292	264.000000
763.699402	265.600000
763.736389	260.900000
763.773499	270.000000
763.810486	264.300000
763.847534	260.300000
763.884644	263.700000
763.921631	259.400000
763.958679	271.600000
763.995728	261.200000
764.032776	271.900000
764.069824	257.900000
764.106873	265.800000
764.143860	272.800000
764.180969	265.600000
764.218018	273.600000
764.255005	266.100000
764.292053	269.600000
764.329102	279.400000
764.366089	277.700000
764.403137	276.700000
764.440125	267.900000
764.477173	270.200000
764.514221	274.300000
764.551208	272.100000
764.588257	267.400000
764.625305	278.300000
764.662292	283.700000
764.699341	287.600000
764.736389	279.200000
764.773376	294.600000
764.810425	282.100000
764.847473	288.800000
764.884399	283.500000
764.921448	292.700000
764.958435	289.700000
764.995483	279.300000
765.032532	295.200000
765.069458	282.100000
765.106506	282.900000
765.143555	281.100000
765.180481	287.100000
765.217529	294.500000
765.254578	279.200000
765.291504	285.400000
765.328552	286.000000
765.365540	281.300000
765.402527	299.100000
765.439575	283.100000
765.476501	281.200000
765.513550	280.600000
765.550537	285.600000
765.587463	293.600000
765.624512	288.200000
765.661499	280.000000
765.698486	295.300000
765.735474	285.800000
765.772461	288.900000
765.809448	299.600000
765.846436	294.900000
765.883423	298.400000
765.920410	293.400000
765.957397	290.100000
765.994385	295.300000
766.031311	304.800000
766.068359	296.700000
766.105286	296.800000
766.142273	303.700000
766.179260	299.700000
766.216187	293.200000
766.253174	292.500000
766.290161	301.400000
766.327148	303.900000
766.364136	304.100000
766.401123	320.100000
766.438049	297.200000
766.475037	311.600000
766.512024	308.600000
766.548950	324.800000
766.585937	315.900000
766.622864	314.000000
766.659790	312.200000
766.696777	303.800000
766.733704	318.500000
766.770691	312.600000
766.807678	324.300000
766.844604	321.900000
766.881531	320.500000
766.918518	328.100000
766.955444	329.600000
766.992432	322.200000
767.029358	326.500000
767.066284	330.000000
767.103271	325.700000
767.140198	354.200000
767.177124	343.800000
767.214050	334.300000
767.251038	334.200000
767.287964	332.700000
767.324890	331.100000
767.361816	336.200000
767.398743	344.600000
767.435730	336.800000
767.472595	341.700000
767.509583	346.900000
767.546509	335.600000
767.583374	343.200000
767.620361	335.900000
767.657288	345.600000
767.694214	343.200000
767.731140	343.500000
767.768066	347.100000
767.804993	350.500000
767.841919	344.000000
767.878845	350.100000
767.915710	357.600000
767.952698	350.000000
767.989563	353.400000
768.026489	356.400000
768.063416	350.000000
768.100281	348.700000
768.137207	368.200000
768.174133	361.500000
768.211060	362.600000
768.247986	361.700000
768.284912	362.100000
768.321777	364.300000
768.358704	365.700000
768.395630	365.800000
768.432495	360.300000
768.469421	366.600000
768.506348	372.400000
768.543152	380.000000
768.580078	375.400000
768.616943	378.700000
768.653870	380.900000
768.690796	379.700000
768.727661	377.900000
768.764587	382.600000
768.801453	373.900000
768.838318	385.400000
768.875244	385.800000
768.912109	391.800000
768.948975	383.200000
768.985901	386.500000
769.022766	386.000000
769.059631	392.600000
769.096558	390.200000
769.133362	388.400000
769.170288	389.800000
769.207214	390.400000
769.244019	398.900000
769.280945	398.600000
769.317810	405.800000
769.354675	400.300000
769.391541	407.700000
769.428406	405.300000
769.465271	417.500000
769.502136	406.500000
769.539062	410.200000
769.575867	409.100000
769.612732	409.800000
769.649597	417.100000
769.686462	420.700000
769.723328	414.200000
769.760193	411.300000
769.797058	417.400000
769.833923	423.600000
769.870728	421.500000
769.907593	423.300000
769.944519	424.600000
769.981323	425.200000
770.018188	426.800000
770.055054	423.800000
770.091858	425.000000
770.128723	437.700000
770.165588	446.700000
770.202393	427.400000
770.239258	439.700000
770.276062	434.900000
770.312927	436.800000
770.349792	444.700000
770.386597	440.800000
770.423462	449.800000
770.460327	458.000000
770.497131	439.400000
770.533997	437.000000
770.570862	451.600000
770.607605	452.800000
770.644470	444.500000
770.681335	449.300000
770.718140	447.800000
770.754944	442.500000
770.791809	443.500000
770.828613	447.400000
770.865479	446.100000
770.902222	457.400000
770.939087	450.300000
770.975952	439.600000
771.012695	445.300000
771.049561	466.600000
771.086365	448.500000
771.123169	448.300000
771.159973	454.700000
771.196838	451.100000
771.233582	454.100000
771.270447	458.300000
771.307251	461.000000
771.344055	455.400000
771.380859	459.600000
771.417664	452.300000
771.454468	463.700000
771.491272	461.600000
771.528076	462.300000
771.564880	462.100000
771.601685	473.900000
771.638428	463.300000
771.675293	470.400000
771.712097	459.800000
771.748840	477.300000
771.785645	469.000000
771.822449	474.100000
771.859253	476.300000
771.896057	473.600000
771.932861	487.100000
771.969604	480.100000
772.006409	471.100000
772.043213	488.800000
772.079956	482.800000
772.116760	472.800000
772.153503	480.500000
772.190308	491.800000
772.227112	483.000000
772.263855	482.600000
772.300659	488.200000
772.337463	496.700000
772.374207	487.900000
772.411011	482.900000
772.447754	488.500000
772.484497	505.700000
772.521301	499.400000
772.558105	501.100000
772.594849	502.200000
772.631592	507.200000
772.668396	505.100000
772.705139	513.800000
772.741882	510.900000
772.778625	526.600000
772.815430	530.500000
772.852173	522.800000
772.888916	530.800000
772.925720	534.500000
772.962463	544.500000
772.999207	541.200000
773.035950	543.900000
773.072754	544.100000
773.109436	541.100000
773.146240	544.400000
773.182922	544.000000
773.219727	554.800000
773.256470	547.200000
773.293152	536.400000
773.329956	542.500000
773.366699	547.900000
773.403381	539.600000
773.440186	552.700000
773.476929	559.100000
773.513611	548.500000
773.550354	551.700000
773.587158	552.400000
773.623840	549.600000
773.660583	562.100000
773.697327	577.400000
773.734009	566.100000
773.770813	562.800000
773.807495	562.000000
773.844238	569.600000
773.880981	585.100000
773.917664	582.400000
773.954407	585.500000
773.991150	576.000000
774.027832	580.300000
774.064575	575.300000
774.101318	588.300000
774.138000	597.300000
774.174744	588.500000
774.211487	596.000000
774.248108	580.100000
774.284851	581.500000
774.321594	595.300000
774.358276	600.400000
774.395020	609.800000
774.431702	606.600000
774.468384	598.300000
774.505127	596.100000
774.541809	613.300000
774.578491	627.900000
774.615234	625.700000
774.651917	615.700000
774.688599	624.400000
774.725342	629.100000
774.762024	629.700000
774.798706	638.800000
774.835449	637.800000
774.872070	644.900000
774.908813	639.700000
774.945496	635.300000
774.982178	638.100000
775.018860	644.500000
775.055542	648.600000
775.092224	648.300000
775.128967	656.100000
775.165588	651.200000
775.202271	640.800000
775.239014	657.900000
775.275635	663.100000
775.312317	659.000000
775.349060	662.100000
775.385681	656.400000
775.422363	652.100000
775.459045	661.400000
775.495667	661.500000
775.532410	669.800000
775.569092	671.400000
775.605713	669.200000
775.642395	668.200000
775.679016	671.300000
775.715698	678.500000
775.752380	682.600000
775.789001	676.300000
775.825684	674.600000
775.862366	672.900000
775.898987	688.600000
775.935669	677.100000
775.972351	698.900000
776.008972	697.500000
776.045654	696.600000
776.082336	685.600000
776.118958	688.600000
776.155640	699.000000
776.192322	706.500000
776.228882	706.200000
776.265564	708.600000
776.302185	701.900000
776.338867	703.000000
776.375488	692.800000
776.412109	706.500000
776.448792	714.800000
776.485413	718.600000
776.522034	705.700000
776.558716	704.400000
776.595337	701.500000
776.631958	710.000000
776.668579	712.000000
776.705261	717.000000
776.741882	712.400000
776.778503	712.600000
776.815186	704.000000
776.851746	714.600000
776.888367	715.900000
776.924988	725.800000
776.961609	711.900000
776.998291	715.300000
777.034851	705.500000
777.071472	724.100000
777.108154	718.600000
777.144714	731.400000
777.181335	728.000000
777.218018	717.600000
777.254578	725.600000
777.291199	724.200000
777.327759	734.000000
777.364380	740.100000
777.401062	743.700000
777.437622	754.500000
777.474243	737.200000
777.510864	749.500000
777.547424	743.600000
777.584045	753.400000
777.620667	756.000000
777.657227	760.200000
777.693848	760.900000
777.730469	777.100000
777.767029	766.000000
777.803650	772.600000
777.840271	759.700000
777.876831	761.400000
777.913452	772.000000
777.950012	753.900000
777.986633	756.800000
778.023193	756.800000
778.059753	759.400000
778.096375	761.700000
778.132996	772.800000
778.169556	759.500000
778.206116	766.100000
778.242737	761.300000
778.279297	773.300000
778.315857	763.400000
778.352478	772.700000
778.389038	782.400000
778.425598	783.000000
778.462219	798.200000
778.498718	797.400000
778.535339	801.700000
778.571838	803.700000
778.608459	812.600000
778.645020	806.200000
778.681580	821.000000
778.718140	822.400000
778.754761	814.800000
778.791260	823.300000
778.827881	833.300000
778.864441	826.300000
778.900940	833.300000
778.937561	834.500000
778.974121	834.000000
779.010620	818.000000
779.047241	830.100000
779.083801	840.500000
779.120300	834.400000
779.156860	841.500000
779.193359	841.000000
779.229980	840.700000
779.266541	850.300000
779.303040	854.800000
779.339600	843.300000
779.376160	843.800000
779.412659	848.700000
779.449219	847.500000
779.485779	857.500000
779.522278	862.300000
779.558838	867.900000
779.595398	867.400000
779.631897	870.100000
779.668457	858.100000
779.705017	867.600000
779.741516	857.400000
779.778076	854.300000
779.814575	866.500000
779.851074	878.100000
779.887634	876.800000
779.924133	875.400000
779.960693	862.300000
779.997253	879.700000
780.033691	882.600000
780.070251	884.600000
780.106812	898.500000
780.143250	894.300000
780.179810	894.200000
780.216370	895.100000
780.252808	906.100000
780.289368	917.900000
780.325867	920.500000
780.362366	919.000000
780.398865	930.500000
780.435364	920.000000
780.471863	935.400000
780.508423	935.900000
780.544861	944.000000
780.581421	954.000000
780.617920	941.600000
780.654419	939.400000
780.690918	946.500000
780.727417	956.700000
780.763916	950.700000
780.800415	958.500000
780.836914	940.100000
780.873352	950.600000
780.909912	941.400000
780.946411	951.500000
780.982849	955.600000
781.019348	976.500000
781.055786	968.700000
781.092346	961.100000
781.128845	971.800000
781.165283	979.400000
781.201782	984.700000
781.238281	991.000000
781.274719	994.400000
781.311218	987.000000
781.347717	996.800000
781.384155	984.300000
781.420654	982.700000
781.457092	1001.200000
781.493591	999.600000
781.530090	988.200000
781.566528	987.500000
781.602966	992.600000
781.639465	994.300000
781.675903	990.000000
781.712402	1000.300000
781.748901	1008.900000
781.785278	997.500000
781.821777	1002.600000
781.858276	999.500000
781.894714	1017.200000
781.931152	1008.700000
781.967651	1020.700000
782.004089	1012.100000
782.040527	1019.600000
782.076965	1021.500000
782.113403	1017.000000
782.149902	1023.700000
782.186340	1014.400000
782.222778	1029.900000
782.259277	1012.100000
782.295654	1010.000000
782.332092	1026.200000
782.368591	1019.100000
782.404968	1008.000000
782.441467	1019.200000
782.477905	1021.100000
782.514282	1011.100000
782.550781	1028.700000
782.587219	1026.700000
782.623596	1030.700000
782.660095	1034.600000
782.696472	1043.100000
782.732910	1042.600000
782.769348	1046.100000
782.805786	1064.800000
782.842224	1063.400000
782.878662	1054.000000
782.915039	1054.000000
782.951477	1051.600000
782.987915	1045.100000
783.024292	1053.000000
783.060730	1052.000000
783.097168	1044.800000
783.133545	1038.800000
783.169983	1031.000000
783.206421	1024.200000
783.242798	1026.900000
783.279236	1012.100000
783.315613	1009.900000
783.352051	1006.100000
783.388489	993.900000
783.424866	979.500000
783.461304	990.200000
783.497681	999.600000
783.534058	991.200000
783.570496	986.700000
783.606934	977.700000
783.643250	985.400000
783.679687	996.900000
783.716125	995.300000
783.752441	1006.400000
783.788879	1023.300000
783.825317	1029.800000
783.861633	1031.400000
783.898071	1031.000000
783.934448	1046.600000
783.970825	1055.400000
784.007263	1054.000000
784.043579	1040.000000
784.080017	1036.100000
784.116394	1007.900000
784.152710	990.700000
784.189148	974.700000
784.225525	947.400000
784.261902	905.200000
784.298279	878.300000
784.334656	848.700000
784.371033	812.100000
784.407410	795.700000
784.443787	765.900000
784.480164	733.700000
784.516541	706.500000
784.552856	708.300000
784.589233	695.700000
784.625610	692.100000
784.661987	726.200000
784.698364	722.300000
784.734741	725.700000
784.771057	736.300000
784.807434	747.700000
784.843811	784.000000
784.880127	795.100000
784.916504	837.300000
784.952881	860.300000
784.989197	870.600000
785.025574	891.100000
785.061951	923.000000
785.098267	971.100000
785.134644	985.900000
785.170959	1007.800000
785.207275	1023.400000
785.243652	1038.500000
785.279968	1042.700000
785.316345	1063.000000
785.352722	1083.600000
785.388977	1089.800000
785.425354	1082.800000
785.461731	1065.300000
785.498047	1067.300000
785.534363	1062.200000
785.570679	1068.700000
785.606995	1071.000000
785.643372	1075.900000
785.679687	1065.900000
785.716003	1059.700000
785.752380	1053.400000
785.788635	1061.700000
785.825012	1083.000000
785.861328	1098.200000
785.897644	1078.900000
785.933960	1097.100000
785.970337	1101.100000
786.006592	1124.300000
786.042908	1136.700000
786.079285	1148.300000
786.115540	1153.300000
786.151855	1153.400000
786.188171	1152.200000
786.224487	1151.300000
786.260803	1153.800000
786.297119	1172.400000
786.333435	1168.800000
786.369751	1163.300000
786.406006	1163.100000
786.442322	1150.000000
786.478638	1141.600000
786.514954	1156.400000
786.551270	1156.600000
786.587585	1174.900000
786.623840	1159.000000
786.660156	1149.500000
786.696472	1135.900000
786.732727	1129.100000
786.769043	1135.400000
786.805298	1128.500000
786.841614	1128.800000
786.877930	1131.700000
786.914124	1113.800000
786.950439	1123.400000
786.986755	1136.700000
787.023010	1153.500000
787.059326	1163.900000
787.095642	1161.800000
787.131836	1173.300000
787.168152	1161.300000
787.204468	1170.100000
787.240723	1191.300000
787.276978	1209.100000
787.313293	1209.400000
787.349548	1213.600000
787.385803	1215.500000
787.422058	1203.600000
787.458313	1201.800000
787.494629	1210.800000
787.530823	1212.500000
787.567139	1196.300000
787.603455	1184.300000
787.639648	1171.000000
787.675903	1170.800000
787.712219	1176.800000
787.748413	1174.400000
787.784729	1185.700000
787.820984	1169.700000
787.857178	1155.700000
787.893494	1147.600000
787.929749	1147.400000
787.965942	1153.600000
788.002258	1170.300000
788.038452	1178.600000
788.074707	1158.400000
788.110962	1166.700000
788.147217	1163.300000
788.183472	1172.000000
788.219727	1184.500000
788.255920	1200.000000
788.292175	1200.200000
788.328430	1201.300000
788.364624	1184.400000
788.400879	1171.600000
788.437134	1184.100000
788.473328	1189.300000
788.509583	1182.900000
788.545837	1175.500000
788.582031	1164.800000
788.618286	1147.800000
788.654480	1149.700000
788.690735	1163.800000
788.726990	1181.200000
788.763184	1178.700000
788.799377	1191.600000
788.835632	1176.500000
788.871826	1197.100000
788.908081	1195.000000
788.944336	1192.200000
788.980469	1216.100000
789.016724	1205.500000
789.052979	1204.300000
789.089111	1177.800000
789.125366	1185.600000
789.161621	1165.500000
789.197754	1181.600000
789.234009	1172.200000
789.270142	1161.900000
789.306396	1149.000000
789.342590	1130.800000
789.378784	1110.300000
789.414978	1110.000000
789.451233	1128.400000
789.487366	1130.800000
789.523621	1135.100000
789.559814	1127.800000
789.595947	1121.700000
789.632202	1129.700000
789.668335	1135.100000
789.704529	1159.600000
789.740784	1178.100000
789.776917	1176.300000
789.813110	1163.700000
789.849304	1180.100000
789.885498	1177.600000
789.921692	1197.900000
789.957886	1204.100000
789.994019	1207.300000
790.030212	1195.600000
790.066406	1195.000000
790.102539	1192.500000
790.138733	1203.700000
790.174927	1204.700000
790.211060	1223.300000
790.247253	1201.700000
790.283386	1182.000000
790.319580	1173.700000
790.355774	1155.000000
790.391907	1158.600000
790.428101	1187.400000
790.464294	1190.600000
790.500427	1186.900000
790.536621	1174.800000
790.572754	1157.900000
790.608887	1158.800000
790.645081	1168.000000
790.681274	1181.900000
790.717346	1176.600000
790.753540	1140.800000
790.789734	1070.100000
790.825867	1015.000000
790.862000	1012.200000
790.898132	1054.700000
790.934265	1112.400000
790.970459	1172.500000
791.006592	1191.200000
791.042725	1191.900000
791.078918	1185.100000
791.114990	1183.300000
791.151184	1200.600000
791.187317	1228.800000
791.223389	1214.800000
791.259583	1202.700000
791.295715	1209.900000
791.331848	1209.000000
791.367981	1231.100000
791.404114	1240.100000
791.440247	1232.200000
791.476379	1229.400000
791.512451	1209.700000
791.548584	1215.000000
791.584778	1202.700000
791.620850	1226.700000
791.656982	1232.500000
791.693115	1225.300000
791.729187	1218.300000
791.765381	1204.900000
791.801514	1206.600000
791.837585	1208.700000
791.873718	1221.300000
791.909851	1232.600000
791.945923	1243.600000
791.982056	1205.200000
792.018188	1204.600000
792.054260	1207.100000
792.090393	1209.400000
792.126465	1197.600000
792.162598	1216.000000
792.198669	1192.900000
792.234741	1196.200000
792.270874	1179.200000
792.307007	1170.600000
792.343079	1176.100000
792.379150	1195.900000
792.415283	1176.200000
792.451355	1175.900000
792.487488	1148.600000
792.523560	1154.300000
792.559631	1157.700000
792.595764	1153.900000
792.631836	1159.500000
792.667908	1169.300000
792.703979	1150.300000
792.740051	1149.000000
792.776184	1158.100000
792.812256	1159.800000
792.848328	1167.800000
792.884399	1177.200000
792.920471	1164.300000
792.956543	1163.300000
792.992615	1155.300000
793.028748	1153.000000
793.064758	1160.400000
793.100830	1182.300000
793.136963	1199.200000
793.172974	1187.600000
793.209045	1182.000000
793.245178	1193.800000
793.281189	1176.600000
793.317261	1188.200000
793.353271	1184.800000
793.389404	1190.800000
793.425476	1183.900000
793.461487	1167.400000
793.497559	1157.400000
793.533630	1169.400000
793.569641	1173.800000
793.605713	1177.700000
793.641785	1176.200000
793.677795	1189.300000
793.713867	1171.300000
793.749878	1179.600000
793.785950	1194.500000
793.822021	1199.700000
793.858032	1189.200000
793.894104	1200.900000
793.930176	1180.500000
793.966187	1180.900000
794.002258	1174.600000
794.038269	1178.000000
794.074280	1176.000000
794.110352	1197.300000
794.146423	1169.400000
794.182373	1156.700000
794.218445	1154.700000
794.254517	1139.100000
794.290466	1132.700000
794.326538	1140.300000
794.362549	1143.200000
794.398560	1146.300000
794.434631	1151.200000
794.470581	1116.400000
794.506653	1110.700000
794.542664	1112.800000
794.578674	1111.100000
794.614685	1107.000000
794.650757	1101.700000
794.686707	1093.700000
794.722778	1085.200000
794.758789	1096.100000
794.794739	1106.700000
794.830811	1125.600000
794.866821	1145.100000
794.902771	1134.900000
794.938843	1122.600000
794.974792	1129.400000
795.010803	1123.300000
795.046814	1119.500000
795.082825	1112.000000
795.118835	1122.800000
795.154846	1101.100000
795.190796	1105.100000
795.226807	1080.400000
795.262817	1093.500000
795.298767	1093.100000
795.334778	1093.900000
795.370850	1082.900000
795.406799	1085.900000
795.442810	1063.500000
795.478821	1063.500000
795.514709	1066.100000
795.550720	1083.800000
795.586670	1065.600000
795.622681	1071.200000
795.658691	1066.000000
795.694641	1060.200000
795.730652	1045.500000
795.766663	1054.800000
795.802551	1057.700000
795.838562	1073.800000
795.874573	1060.600000
795.910522	1059.400000
795.946472	1040.600000
795.982483	1046.800000
796.018433	1053.200000
796.054382	1065.500000
796.090393	1049.900000
796.126282	1044.500000
796.162292	1027.700000
796.198242	1016.000000
796.234192	1024.500000
796.270203	1023.700000
796.306091	1027.800000
796.342041	1050.600000
796.378052	1030.900000
796.413940	1024.100000
796.449951	1028.100000
796.485901	1030.800000
796.521790	1028.500000
796.557800	1039.600000
796.593689	1040.000000
796.629639	1024.400000
796.665649	1019.300000
796.701599	1019.800000
796.737488	1019.000000
796.773437	1026.400000
796.809387	1023.000000
796.845337	1021.500000
796.881287	1010.000000
796.917175	992.200000
796.953125	994.500000
796.989075	1006.400000
797.024963	1013.700000
797.060913	1006.300000
797.096863	1004.600000
797.132751	997.600000
797.168701	977.000000
797.204590	989.800000
797.240540	992.500000
797.276489	995.400000
797.312439	1009.100000
797.348328	992.400000
797.384277	982.700000
797.420166	977.100000
797.456055	980.000000
797.492004	971.400000
797.527893	984.900000
797.563843	983.800000
797.599731	970.900000
797.635620	958.900000
797.671570	974.000000
797.707520	966.500000
797.743347	970.100000
797.779297	979.200000
797.815125	974.700000
797.851074	957.500000
797.887024	950.700000
797.922913	948.100000
797.958801	963.200000
797.994690	960.400000
798.030579	966.000000
798.066467	965.800000
798.102356	948.200000
798.138245	940.300000
798.174133	939.300000
798.210083	947.100000
798.245911	960.300000
798.281799	957.300000
798.317749	949.000000
798.353577	937.600000
798.389465	936.600000
798.425293	934.900000
798.461243	932.000000
798.497131	935.700000
798.532959	943.300000
798.568848	939.300000
798.604736	927.100000
798.640564	918.800000
798.676453	919.800000
798.712402	925.400000
798.748230	932.800000
798.784119	925.400000
798.820007	926.200000
798.855835	919.300000
798.891724	914.000000
798.927551	913.500000
798.963379	921.800000
798.999268	913.200000
799.035095	912.800000
799.070984	905.500000
799.106873	891.900000
799.142700	903.100000
799.178528	897.000000
799.214417	897.100000
799.250244	914.500000
799.286133	902.200000
799.321960	897.200000
799.357788	886.700000
799.393677	892.800000
799.429504	892.900000
799.465332	894.100000
799.501221	904.000000
799.537048	900.200000
799.572876	888.900000
799.608704	883.800000
799.644531	897.600000
799.680359	893.200000
799.716248	897.100000
799.752014	906.600000
799.787903	895.400000
799.823730	890.200000
799.859558	881.200000
799.895386	879.700000
799.931213	884.400000
799.967041	872.500000
800.002869	872.700000
800.038696	883.200000
800.074463	856.900000
800.110352	867.100000
800.146179	854.000000
800.181946	862.000000
800.217773	865.000000
800.253540	862.700000
800.289429	852.000000
800.325256	850.500000
800.361023	841.500000
800.396851	846.500000
800.432678	848.800000
800.468445	844.700000
800.504272	834.700000
800.540100	821.900000
800.575867	819.200000
800.611694	826.900000
800.647461	817.300000
800.683289	816.400000
800.719116	822.900000
800.754883	816.600000
800.790649	802.000000
800.826477	795.300000
800.862244	815.600000
800.898071	799.100000
800.933838	795.600000
800.969604	794.200000
801.005432	789.600000
801.041199	793.900000
801.076965	784.700000
801.112793	776.700000
801.148560	764.200000
801.184326	765.600000
801.220154	767.200000
801.255859	760.800000
801.291687	759.000000
801.327454	750.000000
801.363281	750.500000
801.398987	749.000000
801.434814	750.700000
801.470520	766.100000
801.506287	739.600000
801.542114	743.000000
801.577820	741.300000
801.613647	741.800000
801.649414	735.100000
801.685120	736.200000
801.720886	737.700000
801.756714	729.100000
801.792419	721.900000
801.828186	716.600000
801.863892	724.500000
801.899719	713.600000
801.935486	714.400000
801.971252	724.100000
802.006958	715.400000
802.042725	705.100000
802.078430	709.300000
802.114197	700.600000
802.149963	717.100000
802.185669	703.700000
802.221436	699.600000
802.257202	700.600000
802.292908	699.400000
802.328674	710.400000
802.364441	705.900000
802.400146	698.500000
802.435913	695.000000
802.471558	690.700000
802.507324	689.400000
802.543091	676.000000
802.578796	689.500000
802.614502	690.600000
802.650269	694.600000
802.685974	675.500000
802.721741	680.100000
802.757446	681.300000
802.793152	682.000000
802.828918	690.700000
802.864624	682.300000
802.900330	678.600000
802.936035	676.800000
802.971802	673.900000
803.007446	671.500000
803.043213	657.700000
803.078857	667.100000
803.114624	651.000000
803.150330	658.200000
803.185974	650.000000
803.221741	650.800000
803.257446	658.300000
803.293152	658.900000
803.328857	650.600000
803.364563	646.400000
803.400208	639.100000
803.435974	647.900000
803.471680	641.600000
803.507324	633.900000
803.543030	643.200000
803.578735	648.000000
803.614441	631.800000
803.650146	636.600000
803.685791	623.600000
803.721497	629.500000
803.757202	620.600000
803.792847	629.400000
803.828552	620.700000
803.864258	621.700000
803.899902	620.900000
803.935608	604.000000
803.971313	608.300000
804.006958	608.200000
804.042664	603.700000
804.078308	611.300000
804.113953	601.900000
804.149658	610.100000
804.185364	596.500000
804.221008	604.800000
804.256714	598.200000
804.292297	596.600000
804.328003	591.900000
804.363708	587.600000
804.399292	586.900000
804.434998	586.100000
804.470703	580.100000
804.506287	591.500000
804.541992	581.800000
804.577637	584.600000
804.613281	572.900000
804.648926	572.500000
804.684570	576.900000
804.720215	569.300000
804.755920	572.400000
804.791565	566.800000
804.827209	572.500000
804.862854	563.300000
804.898437	561.000000
804.934143	559.400000
804.969788	562.900000
805.005371	561.500000
805.041077	564.400000
805.076721	562.600000
805.112305	553.000000
805.147949	555.500000
805.183655	547.900000
805.219238	552.100000
805.254883	551.700000
805.290466	558.600000
805.326111	553.500000
805.361755	543.000000
805.397400	547.900000
805.432983	552.800000
805.468628	550.500000
805.504211	555.600000
805.539856	546.200000
805.575500	552.000000
805.611084	544.200000
805.646729	532.700000
805.682373	539.200000
805.717957	550.700000
805.753601	550.200000
805.789246	529.500000
805.824768	542.400000
805.860413	546.200000
805.895996	531.000000
805.931641	530.600000
805.967224	538.300000
806.002869	531.100000
806.038452	540.900000
806.074036	535.300000
806.109619	523.500000
806.145264	518.600000
806.180847	521.600000
806.216431	519.400000
806.252014	522.000000
806.287659	522.100000
806.323181	529.800000
806.358826	522.300000
806.394409	502.400000
806.429993	508.100000
806.465576	522.200000
806.501160	507.400000
806.536743	497.300000
806.572327	512.900000
806.607910	505.300000
806.643494	506.000000
806.679077	500.200000
806.714661	503.800000
806.750244	500.400000
806.785828	494.200000
806.821350	494.200000
806.856934	497.900000
806.892517	493.400000
806.928101	486.800000
806.963684	487.800000
806.999268	497.500000
807.034790	474.200000
807.070374	483.700000
807.105896	482.200000
807.141479	477.100000
807.177063	481.500000
807.212585	476.300000
807.248169	474.800000
807.283752	479.600000
807.319275	472.500000
807.354858	471.200000
807.390381	470.500000
807.425903	471.300000
807.461487	465.100000
807.497070	458.300000
807.532593	459.900000
807.568115	454.400000
807.603699	454.200000
807.639221	449.400000
807.674744	453.400000
807.710266	459.200000
807.745850	461.000000
807.781372	453.600000
807.816895	450.000000
807.852417	452.900000
807.888000	449.600000
807.923523	444.100000
807.959045	450.800000
807.994629	435.300000
808.030090	439.100000
808.065613	440.800000
808.101135	444.200000
808.136658	437.900000
808.172241	437.100000
808.207764	435.500000
808.243225	431.100000
808.278809	427.100000
808.314270	437.800000
808.349792	423.400000
808.385315	423.400000
808.420837	427.900000
808.456360	433.600000
808.491882	430.600000
808.527344	425.700000
808.562866	432.100000
808.598389	425.700000
808.633850	417.200000
808.669434	416.200000
808.704895	424.300000
808.740417	431.000000
808.775940	419.600000
808.811462	415.600000
808.846924	406.800000
808.882385	405.000000
808.917847	404.500000
808.953369	406.400000
808.988892	401.800000
809.024353	410.700000
809.059875	408.200000
809.095398	403.400000
809.130798	398.900000
809.166321	397.300000
809.201843	397.100000
809.237305	397.400000
809.272766	405.100000
809.308228	388.800000
809.343750	388.600000
809.379211	391.800000
809.414734	393.500000
809.450134	399.700000
809.485657	382.100000
809.521118	386.500000
809.556580	385.900000
809.592102	383.600000
809.627502	383.300000
809.663025	380.200000
809.698486	375.900000
809.733887	370.900000
809.769409	376.000000
809.804871	364.100000
809.840271	367.400000
809.875793	369.100000
809.911194	374.700000
809.946655	366.300000
809.982178	363.600000
810.017639	367.500000
810.053040	365.000000
810.088501	361.400000
810.123901	363.400000
810.159424	357.600000
810.194885	353.600000
810.230286	356.300000
810.265747	352.100000
810.301208	350.100000
810.336609	353.400000
810.372070	348.600000
810.407532	349.700000
810.442932	350.100000
810.478394	353.100000
810.513794	348.900000
810.549255	347.500000
810.584717	346.000000
810.620117	341.300000
810.655518	346.000000
810.690979	346.700000
810.726379	345.200000
810.761841	334.100000
810.797302	334.700000
810.832642	334.200000
810.868103	346.200000
810.903564	335.800000
810.938904	340.600000
810.974365	328.900000
811.009827	332.600000
811.045166	328.700000
811.080627	321.000000
811.115967	328.900000
811.151428	338.400000
811.186829	326.000000
811.222229	330.000000
811.257629	319.400000
811.293091	327.700000
811.328430	334.600000
811.363892	329.200000
811.399292	329.300000
811.434631	322.900000
811.470093	328.300000
811.505493	321.500000
811.540833	320.700000
811.576294	327.000000
811.611694	320.000000
811.647034	315.900000
811.682434	315.800000
811.717773	320.100000
811.753235	322.700000
811.788635	316.900000
811.823975	318.600000
811.859375	327.300000
811.894775	311.100000
811.930115	315.700000
811.965515	313.500000
812.000916	316.900000
812.036255	310.200000
812.071655	317.300000
812.106995	309.000000
812.142395	310.700000
812.177795	317.400000
812.213196	313.000000
812.248474	312.100000
812.283875	305.000000
812.319214	310.900000
812.354614	309.100000
812.390015	306.200000
812.425293	306.400000
812.460693	306.400000
812.496094	303.100000
812.531433	298.000000
812.566772	297.500000
812.602173	301.600000
812.637451	303.300000
812.672852	298.500000
812.708191	301.700000
812.743530	295.400000
812.778931	287.000000
812.814270	291.900000
812.849609	299.400000
812.884949	294.000000
812.920227	286.400000
812.955627	304.300000
812.990967	294.900000
813.026306	289.900000
813.061646	277.700000
813.096985	276.600000
813.132324	274.700000
813.167664	280.200000
813.203003	285.800000
813.238281	272.900000
813.273682	273.700000
813.308960	271.100000
813.344299	270.700000
813.379639	282.800000
813.414978	273.100000
813.450256	274.800000
813.485596	277.700000
813.520874	270.200000
813.556213	272.500000
813.591614	277.200000
813.626831	267.500000
813.662170	274.100000
813.697510	284.800000
813.732788	267.100000
813.768127	272.500000
813.803467	273.000000
813.838745	266.800000
813.874084	272.700000
813.909363	270.600000
813.944641	271.300000
813.979980	261.500000
814.015320	266.500000
814.050598	263.300000
814.085876	267.900000
814.121155	264.900000
814.156494	263.000000
814.191772	264.100000
814.227051	259.800000
814.262390	262.700000
814.297668	261.700000
814.332947	263.700000
814.368225	256.500000
814.403564	262.500000
814.438782	257.100000
814.474121	258.400000
814.509338	256.300000
814.544617	267.300000
814.579956	254.000000
814.615173	266.400000
814.650513	261.000000
814.685791	253.200000
814.721008	255.000000
814.756348	257.600000
814.791626	251.000000
814.826843	253.700000
814.862122	252.900000
814.897400	249.800000
814.932678	250.800000
814.967957	254.300000
815.003235	249.800000
815.038452	244.700000
815.073730	241.800000
815.108948	253.200000
815.144226	249.800000
815.179504	254.300000
815.214722	240.300000
815.250000	240.300000
815.285278	243.600000
815.320496	240.600000
815.355774	243.500000
815.391052	244.800000
815.426270	241.200000
815.461487	240.900000
815.496765	236.100000
815.531982	233.200000
815.567261	239.400000
815.602539	247.000000
815.637695	240.800000
815.672974	243.900000
815.708191	242.300000
815.743408	244.800000
815.778687	237.900000
815.813904	248.300000
815.849121	228.500000
815.884399	232.000000
815.919556	232.400000
815.954834	232.100000
815.990051	238.900000
816.025269	240.600000
816.060486	231.600000
816.095703	229.900000
816.130920	235.300000
816.166199	228.800000
816.201416	234.000000
816.236572	239.100000
816.271851	230.200000
816.307007	236.300000
816.342224	227.900000
816.377441	229.600000
816.412659	221.400000
816.447876	232.900000
816.483093	228.800000
816.518250	228.600000
816.553467	228.000000
816.588745	230.800000
816.623901	224.100000
816.659119	216.700000
816.694275	222.600000
816.729492	220.700000
816.764709	256.400000
816.799927	216.000000
816.835083	222.800000
816.870300	216.200000
816.905457	221.900000
816.940674	223.900000
816.975830	219.400000
817.010986	214.700000
817.046204	217.800000
817.081421	213.800000
817.116577	215.600000
817.151733	223.600000
817.186951	224.400000
817.222107	219.600000
817.257324	223.000000
817.292419	221.000000
817.327637	212.900000
817.362854	217.700000
817.398010	211.900000
817.433167	214.400000
817.468323	212.700000
817.503479	215.700000
817.538635	224.500000
817.573853	220.500000
817.608948	214.900000
817.644165	211.000000
817.679321	210.400000
817.714478	212.300000
817.749634	215.200000
817.784790	226.900000
817.819946	220.800000
817.855103	202.800000
817.890198	211.100000
817.925415	203.600000
817.960571	213.700000
817.995667	212.000000
818.030823	213.900000
818.066040	208.000000
818.101135	211.400000
818.136292	208.900000
818.171448	204.200000
818.206543	210.700000
818.241699	213.100000
818.276855	209.500000
818.311951	209.700000
818.347107	205.500000
818.382263	210.000000
818.417358	216.500000
818.452515	215.900000
818.487610	217.100000
818.522766	205.400000
818.557922	217.400000
818.593018	211.600000
818.628113	210.000000
818.663269	204.300000
818.698364	208.700000
818.733521	203.800000
818.768677	211.100000
818.803711	200.800000
818.838867	203.000000
818.874023	206.700000
818.909058	202.900000
818.944214	201.700000
818.979370	210.200000
819.014404	206.400000
819.049561	203.600000
819.084595	208.400000
819.119751	200.800000
819.154846	207.600000
819.189941	203.800000
819.225037	199.900000
819.260193	195.600000
819.295227	198.900000
819.330322	193.900000
819.365479	193.300000
819.400513	226.300000
819.435608	193.200000
819.470764	191.700000
819.505798	194.400000
819.540894	197.400000
819.575989	197.800000
819.611084	203.700000
819.646179	205.700000
819.681213	200.500000
819.716309	198.200000
819.751404	197.200000
819.786438	203.100000
819.821533	195.000000
819.856628	201.600000
819.891663	202.300000
819.926758	208.600000
819.961853	204.100000
819.996887	195.300000
820.031982	201.300000
820.067017	196.400000
820.102112	225.800000
820.137207	196.500000
820.172302	211.800000
820.207275	194.600000
820.242371	194.100000
820.277405	194.500000
820.312500	197.800000
820.347534	200.900000
820.382568	202.200000
820.417664	195.300000
820.452759	195.200000
820.487732	193.800000
820.522827	196.000000
820.557861	192.100000
820.592896	193.300000
820.627930	196.200000
820.662964	194.400000
820.698059	200.500000
820.733093	195.700000
820.768127	199.800000
820.803162	196.200000
820.838196	192.900000
820.873230	197.900000
820.908264	196.000000
820.943298	193.400000
820.978333	202.200000
821.013367	196.500000
821.048401	200.300000
821.083435	201.800000
821.118469	187.000000
821.153503	201.000000
821.188477	196.500000
821.223511	188.700000
821.258484	195.800000
821.293579	196.500000
821.328613	188.300000
821.363647	193.800000
821.398621	188.100000
821.433655	192.900000
821.468628	206.700000
821.503662	193.300000
821.538696	195.600000
821.573669	189.900000
821.608704	198.700000
821.643677	191.300000
821.678650	197.500000
821.713684	204.700000
821.748718	192.300000
821.783691	193.900000
821.818726	197.200000
821.853638	196.900000
821.888672	192.700000
821.923706	194.100000
821.958618	191.200000
821.993652	192.900000
822.028687	199.000000
822.063599	201.300000
822.098633	196.200000
822.133667	190.300000
822.168579	192.300000
822.203613	196.500000
822.238586	190.100000
822.273560	197.100000
822.308533	190.100000
822.343567	191.100000
822.378479	193.300000
822.413452	193.400000
822.448425	191.200000
822.483398	199.500000
822.518372	200.800000
822.553345	190.400000
822.588318	203.100000
822.623291	192.700000
822.658203	192.700000
822.693237	193.300000
822.728210	190.500000
822.763123	195.700000
822.798096	189.500000
822.833069	194.100000
822.867981	194.200000
822.902954	194.900000
822.937927	197.500000
822.972900	204.800000
823.007874	185.700000
823.042725	197.100000
823.077698	207.200000
823.112671	188.300000
823.147583	193.100000
823.182556	195.800000
823.217529	198.800000
823.252441	190.700000
823.287415	207.100000
823.322388	195.700000
823.357239	194.300000
823.392212	199.900000
823.427185	196.500000
823.462097	189.900000
823.497009	197.100000
823.531982	190.300000
823.566895	194.300000
823.601807	188.600000
823.636719	191.900000
823.671631	196.500000
823.706604	192.500000
823.741455	194.700000
823.776428	186.700000
823.811340	197.800000
823.846252	200.900000
823.881165	200.600000
823.916138	195.000000
823.950989	201.800000
823.985901	191.400000
824.020813	194.900000
824.055725	192.400000
824.090637	190.400000
824.125610	197.500000
824.160461	195.200000
824.195374	195.300000
824.230225	199.800000
824.265198	186.000000
824.300110	192.600000
824.334961	204.500000
824.369873	184.500000
824.404785	195.600000
824.439636	201.200000
824.474548	184.700000
824.509460	184.000000
824.544312	199.600000
824.579224	195.400000
824.614075	191.200000
824.648987	193.600000
824.683899	191.900000
824.718811	190.700000
824.753662	201.100000
824.788574	199.100000
824.823364	194.300000
824.858276	191.000000
824.893188	198.300000
824.928040	199.600000
824.962952	196.000000
824.997803	197.100000
825.032654	193.800000
825.067566	198.100000
825.102417	190.000000
825.137268	194.000000
825.172119	193.000000
825.206970	190.900000
825.241882	191.300000
825.276733	191.100000
825.311646	191.800000
825.346436	187.600000
825.381348	187.000000
825.416138	193.400000
825.450989	186.800000
825.485901	183.500000
825.520691	184.100000
825.555542	187.100000
825.590454	193.300000
825.625244	185.000000
825.660095	200.500000
825.695007	198.300000
825.729797	192.500000
825.764648	189.800000
825.799438	192.200000
825.834290	193.600000
825.869202	186.300000
825.903992	195.300000
825.938843	189.100000
825.973694	187.200000
826.008484	205.500000
826.043335	189.100000
826.078186	184.500000
826.112976	199.400000
826.147827	198.400000
826.182678	202.600000
826.217468	185.400000
826.252319	197.400000
826.287109	190.300000
826.321899	199.300000
826.356750	192.200000
826.391541	187.400000
826.426392	198.600000
826.461182	192.400000
826.495972	187.000000
826.530823	183.600000
826.565613	193.600000
826.600403	187.600000
826.635254	195.800000
826.670044	184.100000
826.704834	184.600000
826.739685	186.300000
826.774475	194.900000
826.809265	190.800000
826.844055	189.400000
826.878906	196.200000
826.913635	193.800000
826.948425	194.900000
826.983215	194.000000
827.018005	195.800000
827.052856	191.000000
827.087585	194.900000
827.122375	184.900000
827.157227	192.300000
827.191956	203.700000
827.226746	187.900000
827.261536	196.000000
827.296265	185.300000
827.331116	190.000000
827.365906	196.600000
827.400635	188.000000
827.435425	184.100000
827.470215	200.100000
827.504944	191.800000
827.539734	197.800000
827.574463	194.000000
827.609253	200.900000
827.644043	193.200000
827.678772	197.600000
827.713562	190.700000
827.748352	189.800000
827.783081	188.700000
827.817871	192.200000
827.852600	188.400000
827.887329	191.600000
827.922119	182.400000
827.956848	195.500000
827.991638	205.900000
828.026367	193.400000
828.061157	193.300000
828.095886	190.700000
828.130615	206.700000
828.165344	181.100000
828.200073	193.000000
828.234863	188.700000
828.269592	192.100000
828.304321	197.300000
828.339111	192.200000
828.373779	187.800000
828.408569	197.500000
828.443298	196.100000
828.477966	189.200000
828.512756	194.100000
828.547424	186.600000
828.582214	188.000000
828.616943	190.400000
828.651672	189.800000
828.686340	196.000000
828.721130	188.500000
828.755798	190.600000
828.790527	192.400000
828.825256	193.500000
828.859924	192.400000
828.894714	198.700000
828.929443	199.600000
828.964111	188.600000
828.998840	195.300000
829.033569	188.900000
829.068237	189.500000
829.102966	190.600000
829.137634	194.400000
829.172363	193.200000
829.207092	195.200000
829.241821	188.400000
829.276489	184.900000
829.311157	192.700000
829.345825	190.300000
829.380554	197.000000
829.415283	187.600000
829.449951	184.900000
829.484619	201.100000
829.519348	199.100000
829.554016	191.900000
829.588745	190.900000
829.623413	187.300000
829.658081	202.700000
829.692749	186.500000
829.727417	195.400000
829.762146	193.800000
829.796814	187.400000
829.831482	191.200000
829.866150	192.600000
829.900879	189.900000
829.935486	195.100000
829.970154	190.400000
830.004883	201.800000
830.039490	193.700000
830.074219	189.000000
830.108887	193.400000
830.143494	191.900000
830.178223	186.700000
830.212891	189.600000
830.247498	192.700000
830.282166	199.100000
830.316772	197.800000
830.351501	189.700000
830.386169	192.200000
830.420776	189.500000
830.455444	193.000000
830.490112	188.900000
830.524719	182.500000
830.559387	195.300000
830.594055	195.600000
830.628662	191.100000
830.663330	192.200000
830.697998	201.300000
830.732605	191.300000
830.767273	194.400000
830.801941	191.800000
830.836487	200.200000
830.871155	193.300000
830.905762	195.500000
830.940430	185.500000
830.975098	189.800000
831.009644	193.100000
831.044312	200.900000
831.078979	195.200000
831.113525	183.300000
831.148193	191.500000
831.182861	191.200000
831.217407	195.500000
831.252075	210.800000
831.286621	188.400000
831.321289	188.600000
831.355896	191.100000
831.390564	200.200000
831.425110	191.500000
831.459778	200.500000
831.494324	204.700000
831.528931	195.100000
831.563599	195.400000
831.598145	186.900000
831.632751	192.000000
831.667419	190.200000
831.701965	193.700000
831.736572	196.600000
831.771179	184.300000
831.805786	190.000000
831.840393	199.400000
831.874939	183.200000
831.909546	196.400000
831.944153	185.000000
831.978760	191.300000
832.013306	187.500000
832.047913	200.500000
832.082458	201.300000
832.117065	187.800000
832.151672	202.300000
832.186218	192.800000
832.220825	195.000000
832.255432	184.500000
832.289978	189.000000
832.324585	194.400000
832.359192	193.900000
832.393677	189.600000
832.428284	192.800000
832.462830	190.500000
832.497437	191.100000
832.531982	196.600000
832.566589	190.800000
832.601135	194.500000
832.635681	183.800000
832.670227	191.800000
832.704773	200.100000
832.739380	194.300000
832.773926	191.600000
832.808472	187.900000
832.843079	191.600000
832.877563	196.200000
832.912170	189.800000
832.946716	184.400000
832.981201	198.200000
833.015808	195.200000
833.050293	192.400000
833.084839	188.100000
833.119446	188.800000
833.153992	197.300000
833.188477	192.000000
833.223022	187.800000
833.257568	192.500000
833.292114	199.100000
833.326660	202.600000
833.361145	189.500000
833.395691	183.000000
833.430237	191.200000
833.464783	194.600000
833.499329	188.000000
833.533875	185.900000
833.568359	195.400000
833.602905	197.600000
833.637390	197.700000
833.671875	189.100000
833.706421	192.000000
833.740906	187.700000
833.775452	183.200000
833.809998	188.400000
833.844482	200.300000
833.879028	191.700000
833.913513	190.800000
833.947998	195.500000
833.982544	188.000000
834.017090	189.300000
834.051514	182.000000
834.086060	194.400000
834.120544	190.700000
834.155029	194.300000
834.189575	189.800000
834.223999	196.000000
834.258545	192.800000
834.293030	193.300000
834.327515	192.700000
834.362000	189.600000
834.396545	196.100000
834.430969	191.800000
834.465454	197.000000
834.500000	185.100000
834.534424	192.900000
834.568970	183.900000
834.603455	182.700000
834.637878	189.500000
834.672363	191.800000
834.706909	193.700000
834.741333	192.600000
834.775818	184.600000
834.810242	187.100000
834.844727	192.800000
834.879211	188.800000
834.913635	193.400000
834.948181	193.500000
834.982666	192.500000
835.017090	190.300000
835.051575	195.600000
835.086060	188.100000
835.120483	194.000000
835.154907	196.100000
835.189331	191.100000
835.223816	194.300000
835.258301	188.100000
835.292786	187.400000
835.327209	197.300000
835.361694	187.900000
835.396057	189.600000
835.430542	193.300000
835.465027	193.200000
835.499390	187.000000
835.533875	211.100000
835.568359	190.200000
835.602722	183.600000
835.637207	192.900000
835.671692	186.300000
835.706055	209.000000
835.740540	194.800000
835.774902	195.600000
835.809387	193.500000
835.843811	187.200000
835.878235	199.700000
835.912659	185.800000
835.947083	188.900000
835.981506	191.400000
836.015930	183.600000
836.050354	197.100000
836.084778	201.200000
836.119202	196.500000
836.153625	203.600000
836.187988	188.600000
836.222473	188.900000
836.256897	193.000000
836.291260	191.600000
836.325684	194.900000
836.360046	189.400000
836.394470	190.600000
836.428894	197.500000
836.463318	189.300000
836.497681	196.600000
836.532104	199.600000
836.566467	192.100000
836.600891	190.800000
836.635315	197.900000
836.669678	195.600000
836.704102	194.900000
836.738525	193.300000
836.772888	182.200000
836.807251	190.800000
836.841675	195.000000
836.876038	187.000000
836.910461	188.700000
836.944763	195.300000
836.979187	186.800000
837.013611	198.900000
837.047974	184.000000
837.082336	204.300000
837.116699	196.100000
837.151062	192.100000
837.185486	186.200000
837.219849	190.600000
837.254211	195.800000
837.288574	190.900000
837.322937	187.300000
837.357300	180.700000
837.391663	204.900000
837.426086	196.200000
837.460388	194.300000
837.494751	196.600000
837.529114	190.000000
837.563477	197.100000
837.597839	193.800000
837.632141	192.800000
837.666565	189.700000
837.700928	193.900000
837.735229	195.900000
837.769592	193.700000
837.803955	197.900000
837.838257	188.600000
837.872620	188.800000
837.906982	199.900000
837.941284	193.400000
837.975647	192.300000
838.010010	199.500000
838.044312	189.000000
838.078674	190.500000
838.112976	191.000000
838.147339	197.300000
838.181702	191.400000
838.216003	202.800000
838.250366	193.000000
838.284668	194.000000
838.318970	184.100000
838.353333	193.100000
838.387634	190.600000
838.421936	193.600000
838.456299	192.300000
838.490601	199.000000
838.524902	194.700000
838.559265	197.700000
838.593567	196.300000
838.627869	187.300000
838.662170	195.000000
838.696472	185.900000
838.730774	187.800000
838.765137	197.300000
838.799377	176.100000
838.833740	193.600000
838.868042	198.500000
838.902283	184.300000
838.936646	199.000000
838.970947	194.500000
839.005188	197.700000
839.039551	184.500000
839.073792	198.600000
839.108093	190.500000
839.142395	202.100000
839.176697	184.700000
839.210937	193.600000
839.245300	203.900000
839.279541	185.600000
839.313843	189.900000
839.348145	197.600000
839.382385	195.500000
839.416687	197.000000
839.450989	193.900000
839.485229	190.900000
839.519531	188.200000
839.553833	198.100000
839.588013	191.400000
839.622314	193.500000
839.656555	194.000000
839.690857	191.900000
839.725159	186.200000
839.759460	191.700000
839.793640	189.600000
839.827942	192.700000
839.862183	186.600000
839.896423	194.400000
839.930725	200.900000
839.964966	199.800000
839.999207	199.000000
840.033508	199.300000
840.067688	188.200000
840.101990	202.900000
840.136230	191.700000
840.170471	201.300000
840.204712	188.500000
840.238953	188.100000
840.273193	194.200000
840.307434	195.500000
840.341736	187.900000
840.375916	186.400000
840.410217	191.300000
840.444397	196.900000
840.478638	196.000000
840.512878	198.800000
840.547119	194.500000
840.581360	194.700000
840.615601	202.200000
840.649780	201.500000
840.684021	192.500000
840.718262	201.300000
840.752441	198.100000
840.786682	193.800000
840.820862	195.700000
840.855103	200.500000
840.889343	194.400000
840.923584	197.200000
840.957764	195.500000
840.992004	194.100000
841.026184	207.600000
841.060425	189.100000
841.094666	190.100000
841.128845	195.400000
841.163025	194.900000
841.197266	193.700000
841.231445	192.700000
841.265686	192.600000
841.299866	188.000000
841.334045	198.400000
841.368286	192.500000
841.402405	200.100000
841.436646	198.100000
841.470825	189.700000
841.505005	191.600000
841.539185	187.000000
841.573425	190.000000
841.607544	192.000000
841.641785	193.600000
841.675964	187.700000
841.710144	194.100000
841.744324	190.400000
841.778503	191.400000
841.812683	188.600000
841.846863	203.100000
841.881042	199.900000
841.915222	190.300000
841.949402	208.200000
841.983521	185.200000
842.017700	191.300000
842.051880	194.100000
842.086060	195.500000
842.120239	193.900000
842.154419	191.400000
842.188538	194.400000
842.222717	190.300000
842.256897	203.200000
842.291016	192.000000
842.325195	196.100000
842.359375	204.600000
842.393494	201.600000
842.427673	194.000000
842.461853	196.300000
842.495911	201.800000
842.530090	194.200000
842.564209	192.500000
842.598389	195.500000
842.632568	194.200000
842.666626	198.100000
842.700806	190.400000
842.734985	190.300000
842.769043	197.400000
842.803223	191.000000
842.837402	191.400000
842.871460	190.000000
842.905640	202.300000
842.939697	189.100000
842.973877	195.600000
843.007996	198.900000
843.042175	202.700000
843.076233	189.900000
843.110413	194.900000
843.144470	202.800000
843.178589	197.300000
843.212769	189.800000
843.246826	197.200000
843.280945	192.000000
843.315125	193.100000
843.349182	189.600000
843.383301	202.800000
843.417419	206.000000
843.451538	193.700000
843.485657	192.500000
843.519714	190.800000
843.553833	195.200000
843.587952	191.200000
843.622070	189.300000
843.656128	197.400000
843.690247	191.700000
843.724304	192.000000
843.758423	194.900000
843.792542	191.900000
843.826599	193.200000
843.860718	191.600000
843.894836	186.400000
843.928894	193.400000
843.963013	195.600000
843.997070	190.200000
844.031128	188.000000
844.065247	198.900000
844.099304	199.200000
844.133362	194.900000
844.167480	196.900000
844.201599	200.800000
844.235596	196.800000
844.269714	195.500000
844.303711	196.300000
844.337830	185.400000
844.371948	197.800000
844.405945	191.500000
844.440063	188.000000
844.474121	207.900000
844.508118	193.400000
844.542236	192.400000
844.576294	193.600000
844.610352	187.500000
844.644409	191.800000
844.678406	185.400000
844.712524	198.200000
844.746582	198.900000
844.780640	193.100000
844.814636	192.700000
844.848755	204.800000
844.882751	191.700000
844.916809	198.600000
844.950867	194.300000
844.984863	202.300000
845.018921	192.100000
845.052979	190.200000
845.086975	194.600000
845.121033	186.800000
845.155090	188.800000
845.189087	199.800000
845.223145	190.400000
845.257141	193.300000
845.291199	197.000000
845.325256	201.100000
845.359253	195.100000
845.393250	205.500000
845.427307	192.100000
845.461304	195.700000
845.495361	194.000000
845.529358	205.700000
845.563354	192.200000
845.597412	190.000000
845.631409	200.800000
845.665405	199.900000
845.699463	199.600000
845.733459	191.600000
845.767456	201.700000
845.801453	191.300000
845.835449	201.300000
845.869446	197.400000
845.903503	199.800000
845.937439	189.600000
845.971497	200.700000
846.005493	187.600000
846.039429	197.600000
846.073486	203.000000
846.107483	192.700000
846.141418	193.800000
846.175476	193.200000
846.209473	199.500000
846.243408	190.800000
846.277405	193.700000
846.311401	188.400000
846.345337	193.000000
846.379395	200.500000
846.413330	190.000000
846.447327	202.400000
846.481323	188.000000
846.515259	191.400000
846.549255	194.200000
846.583252	195.400000
846.617187	187.000000
846.651184	195.500000
846.685120	191.700000
846.719055	202.800000
846.753052	197.600000
846.786987	198.200000
846.820984	186.500000
846.854980	200.900000
846.888916	188.300000
846.922852	195.900000
846.956848	203.900000
846.990723	189.500000
847.024719	195.900000
847.058716	193.100000
847.092590	201.500000
847.126587	196.700000
847.160522	191.600000
847.194458	196.700000
847.228455	190.000000
847.262390	188.600000
847.296265	192.000000
847.330261	200.600000
847.364136	193.000000
847.398132	190.400000
847.432068	195.200000
847.466003	192.300000
847.499939	193.100000
847.533875	195.700000
847.567749	192.700000
847.601746	191.300000
847.635681	198.400000
847.669556	184.300000
847.703491	199.000000
847.737427	207.500000
847.771301	189.600000
847.805237	195.200000
847.839233	194.600000
847.873108	192.900000
847.907043	193.900000
847.940918	198.600000
847.974854	195.800000
848.008789	197.000000
848.042664	194.700000
848.076538	197.500000
848.110474	195.100000
848.144348	195.600000
848.178284	188.100000
848.212219	193.300000
848.246094	192.300000
848.279968	194.200000
848.313904	197.800000
848.347778	195.300000
848.381653	191.900000
848.415588	189.800000
848.449463	192.200000
848.483337	196.700000
848.517212	200.000000
848.551086	195.100000
848.585022	189.900000
848.618835	202.100000
848.652771	191.200000
848.686646	189.500000
848.720520	202.800000
848.754395	193.300000
848.788330	199.500000
848.822144	199.000000
848.856018	194.100000
848.889954	204.200000
848.923767	189.100000
848.957642	192.000000
848.991577	198.000000
849.025391	192.200000
849.059265	193.200000
849.093079	192.100000
849.126953	188.800000
849.160828	200.700000
849.194641	194.900000
849.228577	192.100000
849.262451	192.100000
849.296265	191.400000
849.330139	187.900000
849.364014	194.600000
849.397827	197.000000
849.431702	195.300000
849.465515	197.500000
849.499329	185.600000
849.533203	188.100000
849.567078	183.400000
849.600891	197.100000
849.634766	193.400000
849.668518	198.600000
849.702393	193.500000
849.736267	186.000000
849.770020	206.800000
849.803894	197.700000
849.837769	194.000000
849.871521	193.800000
849.905396	200.100000
849.939270	188.900000
849.973022	192.400000
850.006897	196.900000
850.040710	197.700000
850.074524	198.200000
850.108337	193.600000
850.142151	197.100000
850.175964	201.100000
850.209778	193.700000
850.243530	181.700000
850.277405	199.400000
850.311218	194.000000
850.344971	192.000000
850.378845	202.800000
850.412659	190.700000
850.446411	193.900000
850.480225	193.800000
850.514038	199.700000
850.547791	196.200000
850.581665	192.200000
850.615417	191.700000
850.649231	194.400000
850.683044	193.500000
850.716858	191.900000
850.750610	195.000000
850.784424	198.000000
850.818176	192.900000
850.851929	190.500000
850.885742	191.900000
850.919495	192.800000
850.953308	201.700000
850.987122	200.900000
851.020874	187.900000
851.054626	186.300000
851.088440	198.400000
851.122192	198.200000
851.156006	196.000000
851.189697	192.400000
851.223511	188.800000
851.257263	197.300000
851.291077	197.700000
851.324829	192.300000
851.358582	191.400000
851.392334	190.600000
851.426086	193.000000
851.459900	201.700000
851.493591	194.200000
851.527344	194.200000
851.561157	192.600000
851.594849	197.100000
851.628662	195.900000
851.662415	201.300000
851.696106	196.900000
851.729858	198.000000
851.763611	188.800000
851.797363	195.000000
851.831116	190.500000
851.864868	196.800000
851.898560	198.100000
851.932312	191.800000
851.966064	197.000000
851.999817	194.400000
852.033569	193.800000
852.067261	198.300000
852.101013	189.600000
852.134766	194.600000
852.168457	183.800000
852.202209	197.800000
852.235901	188.900000
852.269592	196.500000
852.303345	203.000000
852.337036	198.900000
852.370789	193.700000
852.404541	198.200000
852.438171	190.000000
852.471924	193.500000
852.505676	188.200000
852.539307	196.800000
852.573059	190.100000
852.606812	192.900000
852.640442	192.000000
852.674194	200.500000
852.707886	203.800000
852.741577	201.600000
852.775269	187.100000
852.809021	196.000000
852.842651	196.300000
852.876404	199.800000
852.910034	195.200000
852.943787	200.000000
852.977478	195.200000
853.011108	190.000000
853.044861	190.200000
853.078552	201.200000
853.112183	195.500000
853.145874	197.700000
853.179626	185.200000
853.213257	196.200000
853.246948	191.100000
853.280640	202.900000
853.314270	193.900000
853.347961	202.700000
853.381653	196.300000
853.415283	198.500000
853.448975	191.500000
853.482605	195.800000
853.516296	193.600000
853.549988	188.900000
853.583618	195.800000
853.617310	197.200000
853.651001	196.600000
853.684631	190.500000
853.718323	191.300000
853.751953	203.400000
853.785583	185.700000
853.819275	198.600000
853.852966	194.300000
853.886536	185.300000
853.920227	189.000000
853.953918	198.700000
853.987488	192.300000
854.021179	198.000000
854.054749	201.700000
854.088440	196.100000
854.122131	190.700000
854.155701	198.000000
854.189331	190.600000
854.223022	195.900000
854.256592	196.900000
854.290283	189.300000
854.323914	197.900000
854.357483	195.700000
854.391174	196.400000
854.424744	203.200000
854.458374	195.100000
854.492065	203.500000
854.525696	193.100000
854.559265	200.300000
854.592896	204.400000
854.626465	195.000000
854.660095	195.900000
854.693787	195.400000
854.727356	192.200000
854.760986	199.200000
854.794617	196.500000
854.828186	193.600000
854.861816	199.400000
854.895447	195.700000
854.929016	196.900000
854.962585	197.300000
854.996155	202.200000
855.029785	195.300000
855.063416	197.300000
855.097046	200.300000
855.130615	190.000000
855.164185	200.700000
855.197754	194.800000
855.231384	198.400000
855.264954	191.800000
855.298523	198.500000
855.332153	195.200000
855.365723	202.900000
855.399292	190.600000
855.432922	193.500000
855.466492	195.900000
855.500061	189.600000
855.533630	191.100000
855.567200	197.700000
855.600769	198.200000
855.634338	199.600000
855.667969	194.800000
855.701477	190.000000
855.735046	190.000000
855.768616	186.800000
855.802185	195.100000
855.835754	210.300000
855.869324	184.700000
855.902893	193.800000
855.936401	200.400000
855.969971	196.100000
856.003540	185.400000
856.037109	198.100000
856.070618	194.000000
856.104187	187.200000
856.137695	192.000000
856.171265	184.900000
856.204834	194.800000
856.238403	200.100000
856.271912	191.500000
856.305481	196.200000
856.338989	188.900000
856.372559	199.200000
856.406128	195.300000
856.439636	201.300000
856.473145	192.300000
856.506653	202.400000
856.540222	195.400000
856.573792	201.200000
856.607300	197.600000
856.640808	189.700000
856.674377	196.800000
856.707825	223.000000
856.741394	198.500000
856.774902	190.100000
856.808472	187.000000
856.841980	197.100000
856.875488	204.200000
856.908936	186.700000
856.942505	193.700000
856.976013	195.000000
857.009521	190.600000
857.043030	194.200000
857.076477	194.100000
857.110046	198.100000
857.143555	195.400000
857.177063	199.200000
857.210571	192.100000
857.244080	188.700000
857.277527	197.900000
857.311035	194.800000
857.344543	197.900000
857.378052	192.900000
857.411499	199.800000
857.445068	203.500000
857.478516	194.600000
857.512024	188.400000
857.545532	192.500000
857.578979	196.600000
857.612427	194.200000
857.645874	190.900000
857.679382	195.100000
857.712891	197.300000
857.746399	194.300000
857.779846	199.500000
857.813354	200.100000
857.846741	193.500000
857.880249	189.900000
857.913757	195.300000
857.947266	197.200000
857.980652	197.500000
858.014160	191.700000
858.047546	193.100000
858.081055	194.000000
858.114563	201.600000
858.147949	187.700000
858.181458	197.500000
858.214844	193.600000
858.248352	186.400000
858.281799	200.300000
858.315308	207.200000
858.348694	198.700000
858.382141	203.000000
858.415588	198.000000
858.449036	200.900000
858.482483	196.300000
858.515930	191.200000
858.549377	194.200000
858.582825	201.400000
858.616211	197.500000
858.649658	197.600000
858.683105	189.900000
858.716553	192.300000
858.750000	187.700000
858.783386	192.200000
858.816833	185.700000
858.850281	195.900000
858.883728	196.200000
858.917114	193.600000
858.950562	202.800000
858.983948	202.900000
859.017395	197.900000
859.050781	193.900000
859.084167	189.200000
859.117615	187.900000
859.151062	196.100000
859.184448	192.100000
859.217834	192.300000
859.251282	192.300000
859.284668	189.100000
859.318054	184.900000
859.351440	190.400000
859.384888	203.200000
859.418274	185.200000
859.451721	186.000000
859.485046	197.600000
859.518494	196.100000
859.551819	190.600000
859.585266	197.000000
859.618652	196.900000
859.652039	189.000000
859.685425	190.000000
859.718811	187.400000
859.752197	183.900000
859.785583	201.900000
859.819031	201.400000
859.852356	197.300000
859.885742	191.400000
859.919067	192.600000
859.952454	192.100000
859.985901	200.400000
860.019287	191.600000
860.052612	0.000000
860.085999	0.000000
860.119324	0.000000
860.152710	0.000000
860.186096	0.000000
860.219421	0.000000
860.252808	0.000000
860.286133	0.000000
860.319519	0.000000
860.352905	0.000000
860.386292	0.000000
860.419617	0.000000
860.452942	0.000000
860.486267	0.000000
860.519653	0.000000
860.553040	0.000000
860.586365	0.000000
860.619690	0.000000
860.653076	0.000000
860.686340	0.000000
860.719727	0.000000
860.753113	0.000000
860.786377	0.000000
860.819763	0.000000
860.853027	0.000000
860.886414	0.000000
860.919739	0.000000
860.953125	0.000000
860.986389	0.000000
861.019714	0.000000
861.053040	0.000000
861.086365	0.000000
861.119690	0.000000
861.153076	0.000000
861.186340	0.000000
861.219666	0.000000
861.252930	0.000000
861.286316	0.000000
861.319641	0.000000
861.352905	0.000000
861.386230	0.000000
861.419495	0.000000
861.452820	0.000000
861.486145	0.000000
861.519470	0.000000
861.552734	0.000000
861.586060	0.000000
861.619324	0.000000
861.652649	0.000000
861.685974	0.000000
861.719238	0.000000
861.752563	0.000000
861.785828	0.000000
861.819092	0.000000
861.852417	0.000000
861.885742	0.000000
861.918945	0.000000
861.952271	0.000000
861.985535	0.000000
862.018799	0.000000
862.052124	0.000000
862.085449	0.000000
862.118652	0.000000
862.151978	0.000000
862.185181	0.000000
862.218506	0.000000
862.251770	0.000000
862.285034	0.000000
862.318298	0.000000
862.351562	0.000000
862.384827	0.000000
862.418091	0.000000
862.451355	0.000000
862.484619	0.000000
862.517883	0.000000
862.551086	0.000000
862.584351	0.000000
862.617676	0.000000
862.650940	0.000000
862.684143	0.000000
862.717407	0.000000
862.750610	0.000000
862.783875	0.000000
862.817139	0.000000
862.850342	0.000000
862.883606	0.000000
862.916870	0.000000
862.950073	0.000000
862.983337	0.000000
863.016602	0.000000
863.049805	0.000000
863.083069	0.000000
863.116211	0.000000
863.149475	0.000000
863.182739	0.000000
863.216003	0.000000
863.249146	0.000000
863.282410	0.000000
863.315613	0.000000
863.348816	0.000000
863.382080	0.000000
863.415222	0.000000
863.448486	0.000000
863.481689	0.000000
863.514893	0.000000
863.548157	0.000000
863.581360	0.000000
863.614502	0.000000
863.647766	0.000000
863.680908	0.000000
863.714172	0.000000
863.747375	0.000000
863.780579	0.000000
863.813721	0.000000
863.846985	0.000000
863.880127	0.000000
863.913330	0.000000
863.946533	0.000000
863.979675	0.000000
864.012939	0.000000
