Model Number: SPM-001-M   
Serial Number: 10090201
Firmware Version: 004.17.6
Exposure Time: 500000.000000us
Data Taken on: 10-03-2021 12:13:25.462
Wavelength	Amplitude
733.770752	0.000000
733.808716	0.000000
733.846619	0.000000
733.884583	0.000000
733.922546	0.000000
733.960449	0.000000
733.998413	0.000000
734.036377	0.000000
734.074219	0.000000
734.112183	0.000000
734.150085	0.000000
734.188049	0.000000
734.226013	0.000000
734.263916	0.000000
734.301819	0.000000
734.339783	0.000000
734.377686	0.000000
734.415588	0.000000
734.453552	0.000000
734.491455	0.000000
734.529419	0.000000
734.567322	0.000000
734.605225	0.000000
734.643127	0.000000
734.681091	0.000000
734.718994	0.000000
734.756897	0.000000
734.794800	0.000000
734.832703	0.000000
734.870667	0.000000
734.908508	0.000000
734.946472	0.000000
734.984375	0.000000
735.022278	0.000000
735.060181	0.000000
735.098083	0.000000
735.135986	0.000000
735.173889	0.000000
735.211792	0.000000
735.249695	0.000000
735.287598	0.000000
735.325439	0.000000
735.363403	0.000000
735.401306	0.000000
735.439148	0.000000
735.477051	0.000000
735.515015	0.000000
735.552856	0.000000
735.590759	0.000000
735.628662	0.000000
735.666504	0.000000
735.704407	0.000000
735.742310	0.000000
735.780212	0.000000
735.818115	0.000000
735.856018	0.000000
735.893860	0.000000
735.931763	0.000000
735.969604	0.000000
736.007507	0.000000
736.045410	0.000000
736.083252	0.000000
736.121094	0.000000
736.158997	0.000000
736.196838	0.000000
736.234741	0.000000
736.272644	0.000000
736.310486	0.000000
736.348389	0.000000
736.386230	0.000000
736.424072	0.000000
736.461975	0.000000
736.499878	0.000000
736.537720	0.000000
736.575562	0.000000
736.613403	0.000000
736.651306	0.000000
736.689148	0.000000
736.726990	0.000000
736.764893	0.000000
736.802734	0.000000
736.840576	0.000000
736.878418	0.000000
736.916321	0.000000
736.954102	0.000000
736.992004	0.000000
737.029846	0.000000
737.067688	0.000000
737.105530	0.000000
737.143372	0.000000
737.181213	0.000000
737.219116	0.000000
737.256897	0.000000
737.294739	0.000000
737.332642	0.000000
737.370422	0.000000
737.408325	0.000000
737.446167	0.000000
737.483948	0.000000
737.521790	0.000000
737.559692	0.000000
737.597473	0.000000
737.635315	0.000000
737.673157	0.000000
737.710999	0.000000
737.748840	0.000000
737.786621	0.000000
737.824463	0.000000
737.862305	0.000000
737.900085	0.000000
737.937927	0.000000
737.975769	0.000000
738.013550	0.000000
738.051392	0.000000
738.089233	0.000000
738.127014	0.000000
738.164856	0.000000
738.202698	0.000000
738.240479	0.000000
738.278320	0.000000
738.316162	0.000000
738.353943	0.000000
738.391785	0.000000
738.429565	0.000000
738.467407	0.000000
738.505188	0.000000
738.542969	0.000000
738.580811	0.000000
738.618652	0.000000
738.656372	0.000000
738.694214	0.000000
738.732056	0.000000
738.769836	0.000000
738.807617	0.000000
738.845459	0.000000
738.883240	0.000000
738.921021	0.000000
738.958862	0.000000
738.996582	0.000000
739.034424	0.000000
739.072205	0.000000
739.109985	0.000000
739.147827	0.000000
739.185547	0.000000
739.223389	0.000000
739.261169	0.000000
739.298889	0.000000
739.336731	0.000000
739.374512	0.000000
739.412292	0.000000
739.450073	0.000000
739.487854	0.000000
739.525635	0.000000
739.563416	0.000000
739.601135	0.000000
739.638977	0.000000
739.676758	0.000000
739.714478	0.000000
739.752258	0.000000
739.790100	0.000000
739.827820	0.000000
739.865601	0.000000
739.903381	0.000000
739.941101	0.000000
739.978882	196.300000
740.016724	192.600000
740.054443	199.300000
740.092224	191.300000
740.130005	189.600000
740.167725	191.000000
740.205505	189.600000
740.243225	200.100000
740.281006	194.700000
740.318787	187.200000
740.356506	200.500000
740.394287	198.300000
740.432068	188.600000
740.469727	188.300000
740.507507	197.300000
740.545288	192.900000
740.583008	196.800000
740.620789	193.900000
740.658569	185.200000
740.696228	193.900000
740.734009	199.400000
740.771790	181.300000
740.809509	197.700000
740.847229	188.100000
740.884949	190.900000
740.922729	186.100000
740.960449	192.100000
740.998169	187.200000
741.035950	190.100000
741.073669	193.500000
741.111389	194.300000
741.149170	202.400000
741.186890	204.800000
741.224609	195.700000
741.262329	194.300000
741.300110	202.500000
741.337769	188.300000
741.375549	186.400000
741.413208	195.000000
741.450989	188.600000
741.488708	192.400000
741.526367	190.100000
741.564148	197.600000
741.601868	197.400000
741.639526	192.700000
741.677307	195.000000
741.715027	196.300000
741.752686	189.200000
741.790466	200.300000
741.828186	196.300000
741.865845	188.100000
741.903564	182.400000
741.941345	192.800000
741.979004	189.400000
742.016724	195.900000
742.054382	194.800000
742.092102	200.100000
742.129822	185.600000
742.167480	191.100000
742.205200	192.000000
742.242920	194.800000
742.280640	197.300000
742.318359	189.600000
742.356079	190.600000
742.393738	196.700000
742.431396	193.500000
742.469116	196.900000
742.506775	182.700000
742.544495	196.700000
742.582214	197.000000
742.619873	192.500000
742.657593	201.700000
742.695251	197.000000
742.732971	192.900000
742.770630	195.300000
742.808289	193.000000
742.846008	193.300000
742.883728	196.100000
742.921326	193.500000
742.959045	189.900000
742.996765	192.500000
743.034424	192.500000
743.072083	190.400000
743.109802	193.100000
743.147400	185.900000
743.185120	194.200000
743.222839	192.000000
743.260437	198.200000
743.298157	193.200000
743.335754	184.800000
743.373474	190.100000
743.411133	185.000000
743.448792	193.100000
743.486450	192.900000
743.524170	185.200000
743.561768	194.500000
743.599487	199.800000
743.637146	205.200000
743.674744	191.400000
743.712463	191.000000
743.750122	194.700000
743.787720	196.200000
743.825439	190.400000
743.863037	191.200000
743.900696	193.800000
743.938416	218.400000
743.976013	192.400000
744.013672	201.400000
744.051331	197.100000
744.088928	202.100000
744.126587	198.800000
744.164307	194.600000
744.201904	191.300000
744.239563	195.000000
744.277222	195.700000
744.314819	193.600000
744.352478	202.700000
744.390137	196.300000
744.427734	196.000000
744.465393	191.900000
744.502991	188.900000
744.540649	195.900000
744.578308	194.300000
744.615906	187.600000
744.653564	183.200000
744.691223	197.600000
744.728821	186.500000
744.766418	193.700000
744.804077	197.100000
744.841675	190.200000
744.879333	185.500000
744.916992	192.000000
744.954529	190.700000
744.992187	198.000000
745.029785	191.600000
745.067444	189.300000
745.105042	193.500000
745.142639	196.400000
745.180298	202.900000
745.217896	190.700000
745.255493	192.200000
745.293152	197.400000
745.330750	199.000000
745.368347	202.200000
745.405945	196.200000
745.443604	192.800000
745.481140	197.600000
745.518799	192.700000
745.556396	198.600000
745.593994	198.100000
745.631592	193.300000
745.669189	188.500000
745.706787	195.600000
745.744385	189.800000
745.781982	196.000000
745.819580	192.200000
745.857178	191.000000
745.894775	195.100000
745.932373	194.100000
745.969971	192.900000
746.007568	184.300000
746.045166	204.000000
746.082764	199.100000
746.120300	195.800000
746.157898	195.500000
746.195557	192.500000
746.233093	185.800000
746.270691	197.200000
746.308228	194.800000
746.345825	200.400000
746.383423	195.200000
746.420959	188.200000
746.458557	190.800000
746.496155	190.700000
746.533691	193.000000
746.571289	188.200000
746.608887	193.200000
746.646423	194.600000
746.684021	193.500000
746.721619	188.500000
746.759155	193.300000
746.796753	185.800000
746.834351	186.100000
746.871826	190.100000
746.909424	199.900000
746.946960	195.100000
746.984558	192.400000
747.022156	191.700000
747.059631	200.700000
747.097229	194.500000
747.134827	191.600000
747.172363	201.600000
747.209900	195.200000
747.247498	188.600000
747.285034	202.100000
747.322571	201.500000
747.360168	191.500000
747.397644	186.800000
747.435242	197.000000
747.472778	199.800000
747.510315	191.300000
747.547913	190.800000
747.585388	200.400000
747.622925	193.400000
747.660522	183.700000
747.697998	189.500000
747.735596	194.100000
747.773132	191.700000
747.810669	193.800000
747.848206	197.200000
747.885742	189.000000
747.923279	186.700000
747.960815	195.700000
747.998352	194.700000
748.035889	198.300000
748.073425	198.400000
748.110901	191.100000
748.148437	189.000000
748.185974	194.900000
748.223511	204.600000
748.261047	195.000000
748.298584	195.000000
748.336060	193.200000
748.373596	195.600000
748.411133	211.800000
748.448608	189.600000
748.486145	197.900000
748.523682	201.300000
748.561218	197.900000
748.598755	194.600000
748.636292	196.800000
748.673706	190.100000
748.711243	199.900000
748.748718	196.700000
748.786255	194.400000
748.823792	193.600000
748.861267	188.900000
748.898804	195.000000
748.936340	196.200000
748.973816	192.500000
749.011292	199.300000
749.048828	194.800000
749.086304	197.800000
749.123840	205.800000
749.161316	190.000000
749.198792	205.000000
749.236328	200.000000
749.273743	194.000000
749.311279	191.100000
749.348816	195.600000
749.386230	195.000000
749.423767	182.000000
749.461304	195.900000
749.498718	194.700000
749.536255	200.300000
749.573730	205.800000
749.611206	199.500000
749.648682	194.000000
749.686218	194.000000
749.723633	198.700000
749.761169	191.800000
749.798645	188.100000
749.836060	192.700000
749.873596	190.600000
749.911011	194.100000
749.948547	200.400000
749.986023	194.500000
750.023437	192.900000
750.060913	187.400000
750.098450	187.800000
750.135864	193.000000
750.173340	193.700000
750.210815	198.600000
750.248291	187.500000
750.285767	192.700000
750.323242	200.600000
750.360657	195.100000
750.398132	189.000000
750.435608	198.500000
750.473022	189.100000
750.510498	188.600000
750.547974	189.400000
750.585449	190.300000
750.622925	182.700000
750.660339	203.000000
750.697815	193.400000
750.735291	192.300000
750.772644	195.400000
750.810120	195.000000
750.847595	196.500000
750.885010	189.900000
750.922485	202.800000
750.959961	192.800000
750.997375	201.000000
751.034851	197.100000
751.072266	200.300000
751.109680	187.100000
751.147156	199.800000
751.184570	196.600000
751.221985	196.100000
751.259460	184.900000
751.296875	193.100000
751.334290	194.600000
751.371765	199.200000
751.409180	197.200000
751.446594	200.600000
751.484070	196.200000
751.521423	195.600000
751.558899	196.300000
751.596375	200.900000
751.633728	199.800000
751.671204	207.500000
751.708618	188.400000
751.746033	193.700000
751.783447	188.600000
751.820801	189.600000
751.858276	196.300000
751.895691	193.500000
751.933105	191.300000
751.970520	189.000000
752.007935	192.100000
752.045349	196.900000
752.082764	194.300000
752.120178	190.800000
752.157532	189.000000
752.195007	191.200000
752.232422	197.800000
752.269775	198.300000
752.307190	196.400000
752.344543	189.400000
752.382019	192.600000
752.419434	192.500000
752.456787	197.400000
752.494202	198.800000
752.531616	196.000000
752.568970	198.300000
752.606384	195.600000
752.643799	196.300000
752.681152	202.600000
752.718567	197.100000
752.755981	186.800000
752.793335	197.900000
752.830750	185.800000
752.868164	201.100000
752.905518	189.200000
752.942932	198.400000
752.980225	190.400000
753.017639	200.100000
753.055054	192.800000
753.092407	196.800000
753.129822	200.300000
753.167175	204.300000
753.204529	193.600000
753.241943	192.200000
753.279358	187.400000
753.316650	199.000000
753.354065	196.000000
753.391479	198.400000
753.428772	202.600000
753.466187	197.600000
753.503479	188.400000
753.540894	193.000000
753.578308	188.400000
753.615601	189.000000
753.653015	195.000000
753.690369	191.500000
753.727722	187.700000
753.765076	187.500000
753.802490	188.500000
753.839783	184.900000
753.877136	190.300000
753.914551	210.000000
753.951843	189.500000
753.989258	198.200000
754.026611	196.000000
754.063904	197.100000
754.101257	189.300000
754.138611	186.800000
754.175964	194.600000
754.213318	207.000000
754.250610	186.900000
754.288025	192.100000
754.325378	187.800000
754.362671	198.900000
754.400024	192.500000
754.437378	204.500000
754.474670	203.200000
754.512085	191.800000
754.549438	195.300000
754.586731	191.200000
754.624084	193.100000
754.661438	188.500000
754.698730	202.300000
754.736084	192.400000
754.773376	193.200000
754.810730	197.800000
754.848083	192.100000
754.885315	198.100000
754.922668	186.600000
754.960022	188.900000
754.997314	198.800000
755.034668	195.600000
755.072021	195.400000
755.109253	192.200000
755.146606	201.800000
755.183960	193.200000
755.221252	205.000000
755.258545	199.600000
755.295898	201.800000
755.333191	203.300000
755.370544	198.800000
755.407776	194.700000
755.445129	196.300000
755.482422	201.200000
755.519714	193.100000
755.557068	187.700000
755.594360	188.200000
755.631653	199.900000
755.668945	206.100000
755.706299	199.000000
755.743530	210.300000
755.780884	205.000000
755.818176	202.600000
755.855408	202.600000
755.892761	199.300000
755.930054	198.800000
755.967346	200.600000
756.004639	202.500000
756.041870	198.700000
756.079224	202.900000
756.116516	193.900000
756.153748	204.000000
756.191040	206.900000
756.228394	202.300000
756.265625	195.200000
756.302917	200.400000
756.340210	196.400000
756.377441	206.200000
756.414795	207.700000
756.452087	200.400000
756.489319	194.700000
756.526611	204.500000
756.563843	201.900000
756.601135	212.000000
756.638428	210.300000
756.675659	201.200000
756.712952	205.800000
756.750244	205.200000
756.787476	202.700000
756.824768	209.100000
756.862061	200.000000
756.899292	248.000000
756.936584	205.900000
756.973816	212.700000
757.011047	215.100000
757.048340	203.400000
757.085632	202.900000
757.122864	218.600000
757.160156	201.100000
757.197327	204.700000
757.234619	207.700000
757.271912	202.800000
757.309082	207.500000
757.346375	201.400000
757.383667	209.200000
757.420837	205.000000
757.458130	205.400000
757.495422	204.500000
757.532593	206.900000
757.569885	198.600000
757.607117	202.000000
757.644348	205.200000
757.681580	218.000000
757.718811	194.000000
757.756042	206.000000
757.793335	203.900000
757.830505	209.200000
757.867798	204.000000
757.905029	202.800000
757.942200	209.400000
757.979492	202.700000
758.016724	205.700000
758.053894	203.800000
758.091187	226.300000
758.128418	209.000000
758.165588	204.600000
758.202820	219.700000
758.240112	211.400000
758.277283	219.000000
758.314514	209.700000
758.351685	205.500000
758.388916	218.000000
758.426147	216.500000
758.463379	217.800000
758.500610	213.300000
758.537842	209.900000
758.575012	217.000000
758.612244	205.000000
758.649475	223.400000
758.686646	203.400000
758.723877	219.900000
758.761108	219.300000
758.798279	210.900000
758.835510	213.000000
758.872742	218.800000
758.909851	214.500000
758.947083	215.900000
758.984253	213.800000
759.021484	217.100000
759.058716	216.900000
759.095886	216.900000
759.133057	212.200000
759.170288	218.200000
759.207458	209.700000
759.244690	225.700000
759.281860	223.200000
759.319031	213.100000
759.356262	212.500000
759.393433	214.000000
759.430603	213.100000
759.467773	212.200000
759.505005	221.900000
759.542175	219.000000
759.579346	214.600000
759.616516	215.400000
759.653687	217.800000
759.690918	212.400000
759.728027	218.100000
759.765259	218.700000
759.802429	220.900000
759.839539	219.300000
759.876770	223.300000
759.913940	227.500000
759.951111	217.900000
759.988281	218.100000
760.025452	216.100000
760.062561	213.600000
760.099792	226.500000
760.136963	221.200000
760.174072	218.500000
760.211243	212.200000
760.248413	214.600000
760.285583	215.000000
760.322754	229.600000
760.359863	224.700000
760.397034	228.000000
760.434204	218.600000
760.471375	220.300000
760.508545	216.800000
760.545715	218.200000
760.582825	214.200000
760.619995	224.300000
760.657166	214.600000
760.694275	226.600000
760.731445	221.800000
760.768555	225.100000
760.805664	224.500000
760.842834	225.300000
760.879944	226.500000
760.917114	224.600000
760.954285	222.900000
760.991394	217.900000
761.028564	228.700000
761.065674	227.600000
761.102783	220.200000
761.139954	230.200000
761.177124	228.600000
761.214172	231.900000
761.251343	223.300000
761.288452	227.000000
761.325562	231.000000
761.362732	224.600000
761.399841	226.000000
761.436951	231.400000
761.474121	224.900000
761.511169	230.000000
761.548340	234.500000
761.585449	235.000000
761.622559	235.900000
761.659668	232.400000
761.696838	237.900000
761.733887	235.300000
761.771057	232.100000
761.808167	234.500000
761.845276	237.900000
761.882385	246.500000
761.919434	235.200000
761.956604	255.400000
761.993713	232.000000
762.030762	244.700000
762.067871	236.100000
762.105042	235.200000
762.142090	246.300000
762.179199	240.300000
762.216309	244.000000
762.253418	256.500000
762.290527	250.400000
762.327637	246.100000
762.364685	235.600000
762.401794	245.400000
762.438904	243.900000
762.475952	238.600000
762.513062	238.200000
762.550110	240.000000
762.587219	256.100000
762.624329	254.000000
762.661377	250.100000
762.698486	247.700000
762.735596	247.800000
762.772644	240.300000
762.809753	238.300000
762.846863	245.800000
762.883911	251.600000
762.921021	251.600000
762.958069	248.700000
762.995117	257.500000
763.032227	258.900000
763.069336	250.400000
763.106323	243.800000
763.143433	243.500000
763.180481	253.900000
763.217590	252.500000
763.254639	252.900000
763.291687	251.900000
763.328735	261.500000
763.365845	252.700000
763.402893	254.900000
763.439941	255.600000
763.477051	258.400000
763.514038	261.400000
763.551147	252.200000
763.588196	257.400000
763.625244	254.500000
763.662292	263.200000
763.699402	267.200000
763.736389	263.400000
763.773499	273.100000
763.810486	267.000000
763.847534	261.300000
763.884644	265.200000
763.921631	258.000000
763.958679	272.000000
763.995728	262.800000
764.032776	274.200000
764.069824	257.300000
764.106873	265.700000
764.143860	274.200000
764.180969	267.100000
764.218018	275.200000
764.255005	266.300000
764.292053	266.900000
764.329102	279.800000
764.366089	278.900000
764.403137	275.500000
764.440125	267.700000
764.477173	270.600000
764.514221	271.500000
764.551208	270.200000
764.588257	265.300000
764.625305	276.900000
764.662292	283.500000
764.699341	288.900000
764.736389	278.800000
764.773376	295.300000
764.810425	282.100000
764.847473	291.100000
764.884399	283.500000
764.921448	292.300000
764.958435	291.600000
764.995483	279.800000
765.032532	298.300000
765.069458	282.700000
765.106506	283.100000
765.143555	282.200000
765.180481	287.700000
765.217529	294.600000
765.254578	279.300000
765.291504	290.400000
765.328552	287.700000
765.365540	284.400000
765.402527	298.800000
765.439575	283.900000
765.476501	280.600000
765.513550	281.800000
765.550537	286.900000
765.587463	296.100000
765.624512	288.200000
765.661499	279.500000
765.698486	295.400000
765.735474	286.400000
765.772461	290.300000
765.809448	296.900000
765.846436	297.100000
765.883423	299.500000
765.920410	294.000000
765.957397	289.800000
765.994385	295.900000
766.031311	303.900000
766.068359	297.000000
766.105286	298.700000
766.142273	306.600000
766.179260	300.700000
766.216187	294.700000
766.253174	290.500000
766.290161	301.300000
766.327148	301.700000
766.364136	304.800000
766.401123	321.400000
766.438049	299.200000
766.475037	312.600000
766.512024	309.300000
766.548950	322.600000
766.585937	315.900000
766.622864	314.900000
766.659790	311.800000
766.696777	301.300000
766.733704	319.500000
766.770691	312.000000
766.807678	324.300000
766.844604	320.300000
766.881531	323.100000
766.918518	328.600000
766.955444	328.400000
766.992432	324.300000
767.029358	328.900000
767.066284	330.700000
767.103271	326.700000
767.140198	357.100000
767.177124	342.700000
767.214050	335.200000
767.251038	339.200000
767.287964	336.200000
767.324890	332.300000
767.361816	337.300000
767.398743	343.500000
767.435730	336.100000
767.472595	341.400000
767.509583	347.700000
767.546509	337.300000
767.583374	342.500000
767.620361	336.600000
767.657288	344.500000
767.694214	341.100000
767.731140	341.000000
767.768066	345.700000
767.804993	352.300000
767.841919	340.900000
767.878845	350.500000
767.915710	357.800000
767.952698	351.200000
767.989563	355.000000
768.026489	358.200000
768.063416	350.300000
768.100281	351.000000
768.137207	364.200000
768.174133	365.200000
768.211060	362.600000
768.247986	361.100000
768.284912	360.000000
768.321777	364.500000
768.358704	362.000000
768.395630	368.300000
768.432495	360.000000
768.469421	370.300000
768.506348	374.800000
768.543152	385.300000
768.580078	377.900000
768.616943	378.800000
768.653870	380.900000
768.690796	380.300000
768.727661	378.300000
768.764587	383.700000
768.801453	376.700000
768.838318	388.500000
768.875244	385.500000
768.912109	391.400000
768.948975	385.300000
768.985901	388.700000
769.022766	384.900000
769.059631	392.900000
769.096558	389.400000
769.133362	391.000000
769.170288	391.200000
769.207214	392.100000
769.244019	399.400000
769.280945	396.000000
769.317810	408.900000
769.354675	402.600000
769.391541	411.600000
769.428406	406.000000
769.465271	417.100000
769.502136	405.300000
769.539062	411.200000
769.575867	407.600000
769.612732	408.000000
769.649597	416.000000
769.686462	422.300000
769.723328	416.100000
769.760193	414.100000
769.797058	416.500000
769.833923	426.200000
769.870728	422.100000
769.907593	427.800000
769.944519	425.100000
769.981323	427.800000
770.018188	426.600000
770.055054	424.600000
770.091858	425.800000
770.128723	441.900000
770.165588	444.400000
770.202393	428.900000
770.239258	442.900000
770.276062	437.100000
770.312927	437.100000
770.349792	443.800000
770.386597	439.200000
770.423462	448.500000
770.460327	459.300000
770.497131	442.500000
770.533997	436.300000
770.570862	455.900000
770.607605	452.400000
770.644470	445.000000
770.681335	452.700000
770.718140	448.200000
770.754944	441.400000
770.791809	444.300000
770.828613	445.000000
770.865479	447.900000
770.902222	460.200000
770.939087	452.300000
770.975952	443.700000
771.012695	447.700000
771.049561	465.900000
771.086365	452.800000
771.123169	448.800000
771.159973	453.900000
771.196838	453.900000
771.233582	456.100000
771.270447	457.700000
771.307251	460.700000
771.344055	454.800000
771.380859	462.000000
771.417664	455.900000
771.454468	462.700000
771.491272	465.400000
771.528076	463.900000
771.564880	466.900000
771.601685	476.300000
771.638428	464.900000
771.675293	473.700000
771.712097	461.100000
771.748840	479.600000
771.785645	472.800000
771.822449	474.800000
771.859253	479.100000
771.896057	472.100000
771.932861	489.700000
771.969604	478.900000
772.006409	472.300000
772.043213	489.000000
772.079956	483.900000
772.116760	476.400000
772.153503	481.400000
772.190308	494.100000
772.227112	486.700000
772.263855	482.100000
772.300659	489.200000
772.337463	498.800000
772.374207	488.900000
772.411011	484.900000
772.447754	489.400000
772.484497	506.900000
772.521301	501.800000
772.558105	500.300000
772.594849	503.000000
772.631592	509.200000
772.668396	507.600000
772.705139	516.600000
772.741882	514.400000
772.778625	528.100000
772.815430	528.000000
772.852173	525.600000
772.888916	535.900000
772.925720	539.800000
772.962463	546.900000
772.999207	539.700000
773.035950	543.800000
773.072754	543.200000
773.109436	539.600000
773.146240	543.500000
773.182922	540.900000
773.219727	556.200000
773.256470	549.500000
773.293152	535.500000
773.329956	546.600000
773.366699	551.300000
773.403381	541.700000
773.440186	553.100000
773.476929	554.200000
773.513611	553.500000
773.550354	551.200000
773.587158	555.200000
773.623840	549.700000
773.660583	564.900000
773.697327	578.300000
773.734009	562.800000
773.770813	561.800000
773.807495	566.700000
773.844238	570.100000
773.880981	588.500000
773.917664	584.300000
773.954407	593.200000
773.991150	580.300000
774.027832	587.300000
774.064575	580.100000
774.101318	586.000000
774.138000	597.000000
774.174744	592.000000
774.211487	592.800000
774.248108	582.200000
774.284851	580.500000
774.321594	597.600000
774.358276	601.800000
774.395020	609.300000
774.431702	603.700000
774.468384	597.600000
774.505127	598.600000
774.541809	614.400000
774.578491	622.700000
774.615234	629.800000
774.651917	620.000000
774.688599	624.700000
774.725342	633.100000
774.762024	631.900000
774.798706	637.600000
774.835449	638.400000
774.872070	644.900000
774.908813	639.300000
774.945496	636.400000
774.982178	636.200000
775.018860	644.000000
775.055542	646.900000
775.092224	646.400000
775.128967	659.400000
775.165588	652.500000
775.202271	640.600000
775.239014	659.100000
775.275635	661.000000
775.312317	656.700000
775.349060	662.400000
775.385681	660.500000
775.422363	652.500000
775.459045	663.400000
775.495667	667.000000
775.532410	671.100000
775.569092	677.200000
775.605713	670.500000
775.642395	665.600000
775.679016	676.900000
775.715698	679.200000
775.752380	688.900000
775.789001	680.100000
775.825684	674.300000
775.862366	677.900000
775.898987	690.700000
775.935669	679.200000
775.972351	704.000000
776.008972	695.600000
776.045654	698.100000
776.082336	693.400000
776.118958	694.400000
776.155640	698.100000
776.192322	708.100000
776.228882	712.500000
776.265564	703.900000
776.302185	701.000000
776.338867	705.100000
776.375488	695.000000
776.412109	710.000000
776.448792	714.600000
776.485413	723.800000
776.522034	709.900000
776.558716	704.200000
776.595337	701.000000
776.631958	709.200000
776.668579	715.600000
776.705261	718.700000
776.741882	713.500000
776.778503	709.000000
776.815186	705.100000
776.851746	716.400000
776.888367	718.000000
776.924988	721.600000
776.961609	714.700000
776.998291	715.600000
777.034851	705.100000
777.071472	723.500000
777.108154	720.600000
777.144714	731.300000
777.181335	730.800000
777.218018	721.600000
777.254578	728.300000
777.291199	730.400000
777.327759	740.100000
777.364380	746.400000
777.401062	748.000000
777.437622	758.200000
777.474243	746.200000
777.510864	754.700000
777.547424	751.200000
777.584045	758.000000
777.620667	761.600000
777.657227	762.100000
777.693848	765.200000
777.730469	779.700000
777.767029	769.900000
777.803650	771.800000
777.840271	764.200000
777.876831	768.600000
777.913452	775.500000
777.950012	758.800000
777.986633	762.500000
778.023193	753.700000
778.059753	754.500000
778.096375	758.900000
778.132996	773.100000
778.169556	761.400000
778.206116	765.700000
778.242737	765.800000
778.279297	776.200000
778.315857	770.800000
778.352478	773.300000
778.389038	786.800000
778.425598	788.200000
778.462219	799.300000
778.498718	798.000000
778.535339	811.600000
778.571838	806.800000
778.608459	812.800000
778.645020	804.900000
778.681580	819.000000
778.718140	825.200000
778.754761	818.000000
778.791260	820.700000
778.827881	838.200000
778.864441	832.500000
778.900940	837.800000
778.937561	837.300000
778.974121	836.400000
779.010620	824.700000
779.047241	826.900000
779.083801	841.500000
779.120300	840.600000
779.156860	847.900000
779.193359	842.500000
779.229980	845.300000
779.266541	855.400000
779.303040	861.700000
779.339600	848.800000
779.376160	848.000000
779.412659	861.500000
779.449219	852.500000
779.485779	860.400000
779.522278	863.200000
779.558838	866.500000
779.595398	869.800000
779.631897	868.500000
779.668457	857.300000
779.705017	874.900000
779.741516	863.800000
779.778076	862.400000
779.814575	873.500000
779.851074	882.200000
779.887634	878.700000
779.924133	884.900000
779.960693	866.400000
779.997253	880.200000
780.033691	887.500000
780.070251	885.900000
780.106812	896.100000
780.143250	899.200000
780.179810	896.400000
780.216370	897.200000
780.252808	906.400000
780.289368	920.100000
780.325867	922.000000
780.362366	921.100000
780.398865	930.400000
780.435364	913.100000
780.471863	933.500000
780.508423	931.600000
780.544861	945.800000
780.581421	951.100000
780.617920	942.000000
780.654419	935.700000
780.690918	945.400000
780.727417	958.100000
780.763916	951.700000
780.800415	955.400000
780.836914	940.200000
780.873352	949.100000
780.909912	938.700000
780.946411	950.100000
780.982849	959.200000
781.019348	979.100000
781.055786	969.800000
781.092346	961.400000
781.128845	969.800000
781.165283	977.300000
781.201782	988.000000
781.238281	991.600000
781.274719	995.100000
781.311218	986.400000
781.347717	994.200000
781.384155	981.300000
781.420654	988.400000
781.457092	1002.800000
781.493591	994.900000
781.530090	987.100000
781.566528	998.400000
781.602966	999.500000
781.639465	993.400000
781.675903	999.600000
781.712402	1004.900000
781.748901	1013.800000
781.785278	999.300000
781.821777	1009.200000
781.858276	1005.000000
781.894714	1019.700000
781.931152	1012.700000
781.967651	1019.300000
782.004089	1008.900000
782.040527	1017.100000
782.076965	1013.900000
782.113403	1015.900000
782.149902	1026.100000
782.186340	1025.800000
782.222778	1035.000000
782.259277	1009.200000
782.295654	1008.600000
782.332092	1021.600000
782.368591	1017.600000
782.404968	1010.800000
782.441467	1010.500000
782.477905	1014.600000
782.514282	1009.300000
782.550781	1036.000000
782.587219	1029.700000
782.623596	1033.100000
782.660095	1039.600000
782.696472	1043.200000
782.732910	1040.800000
782.769348	1050.900000
782.805786	1062.000000
782.842224	1054.700000
782.878662	1051.900000
782.915039	1051.700000
782.951477	1053.300000
782.987915	1046.000000
783.024292	1058.000000
783.060730	1054.100000
783.097168	1042.100000
783.133545	1038.000000
783.169983	1039.600000
783.206421	1028.100000
783.242798	1022.700000
783.279236	1012.800000
783.315613	1008.700000
783.352051	1007.200000
783.388489	998.800000
783.424866	983.900000
783.461304	991.000000
783.497681	1002.000000
783.534058	993.900000
783.570496	991.000000
783.606934	979.000000
783.643250	990.600000
783.679687	1002.000000
783.716125	994.500000
783.752441	1005.000000
783.788879	1017.300000
783.825317	1026.700000
783.861633	1022.300000
783.898071	1018.900000
783.934448	1024.700000
783.970825	1034.000000
784.007263	1022.200000
784.043579	1008.900000
784.080017	995.700000
784.116394	972.100000
784.152710	954.300000
784.189148	940.100000
784.225525	920.800000
784.261902	888.300000
784.298279	866.500000
784.334656	854.100000
784.371033	826.800000
784.407410	822.400000
784.443787	802.700000
784.480164	777.000000
784.516541	756.400000
784.552856	765.000000
784.589233	756.400000
784.625610	754.800000
784.661987	786.600000
784.698364	783.400000
784.734741	783.700000
784.771057	787.600000
784.807434	796.200000
784.843811	820.500000
784.880127	828.100000
784.916504	865.900000
784.952881	874.500000
784.989197	877.400000
785.025574	898.600000
785.061951	921.100000
785.098267	958.300000
785.134644	968.600000
785.170959	977.500000
785.207275	1001.900000
785.243652	1009.100000
785.279968	1014.500000
785.316345	1041.900000
785.352722	1062.000000
785.388977	1069.100000
785.425354	1058.200000
785.461731	1046.200000
785.498047	1040.300000
785.534363	1044.200000
785.570679	1051.500000
785.606995	1063.400000
785.643372	1076.200000
785.679687	1071.500000
785.716003	1056.800000
785.752380	1051.100000
785.788635	1064.500000
785.825012	1088.500000
785.861328	1094.800000
785.897644	1082.400000
785.933960	1094.800000
785.970337	1101.100000
786.006592	1114.200000
786.042908	1134.000000
786.079285	1155.000000
786.115540	1170.400000
786.151855	1163.100000
786.188171	1152.500000
786.224487	1154.300000
786.260803	1150.600000
786.297119	1170.700000
786.333435	1178.200000
786.369751	1175.400000
786.406006	1176.500000
786.442322	1145.000000
786.478638	1139.000000
786.514954	1161.900000
786.551270	1163.900000
786.587585	1176.500000
786.623840	1159.700000
786.660156	1147.600000
786.696472	1128.600000
786.732727	1128.300000
786.769043	1137.800000
786.805298	1122.700000
786.841614	1129.100000
786.877930	1137.700000
786.914124	1118.100000
786.950439	1132.100000
786.986755	1142.000000
787.023010	1156.500000
787.059326	1162.400000
787.095642	1162.200000
787.131836	1175.300000
787.168152	1165.100000
787.204468	1170.000000
787.240723	1193.000000
787.276978	1211.200000
787.313293	1221.600000
787.349548	1209.800000
787.385803	1213.500000
787.422058	1205.700000
787.458313	1208.100000
787.494629	1217.800000
787.530823	1213.100000
787.567139	1204.600000
787.603455	1194.300000
787.639648	1163.800000
787.675903	1171.300000
787.712219	1178.200000
787.748413	1177.300000
787.784729	1180.800000
787.820984	1172.500000
787.857178	1156.000000
787.893494	1150.000000
787.929749	1144.000000
787.965942	1150.300000
788.002258	1164.400000
788.038452	1172.100000
788.074707	1160.400000
788.110962	1164.500000
788.147217	1157.400000
788.183472	1166.400000
788.219727	1174.700000
788.255920	1201.400000
788.292175	1212.700000
788.328430	1203.900000
788.364624	1183.800000
788.400879	1170.600000
788.437134	1186.300000
788.473328	1180.400000
788.509583	1178.200000
788.545837	1169.000000
788.582031	1162.300000
788.618286	1144.200000
788.654480	1140.700000
788.690735	1157.800000
788.726990	1188.200000
788.763184	1177.000000
788.799377	1191.200000
788.835632	1178.200000
788.871826	1192.300000
788.908081	1197.600000
788.944336	1197.000000
788.980469	1208.800000
789.016724	1206.900000
789.052979	1203.900000
789.089111	1180.900000
789.125366	1182.700000
789.161621	1169.900000
789.197754	1184.100000
789.234009	1178.600000
789.270142	1163.900000
789.306396	1152.700000
789.342590	1141.300000
789.378784	1114.500000
789.414978	1119.400000
789.451233	1136.300000
789.487366	1127.500000
789.523621	1136.400000
789.559814	1129.300000
789.595947	1111.400000
789.632202	1126.200000
789.668335	1139.000000
789.704529	1162.100000
789.740784	1183.600000
789.776917	1179.000000
789.813110	1168.300000
789.849304	1183.900000
789.885498	1184.100000
789.921692	1205.200000
789.957886	1215.200000
789.994019	1213.500000
790.030212	1204.400000
790.066406	1203.000000
790.102539	1193.900000
790.138733	1204.200000
790.174927	1198.700000
790.211060	1211.800000
790.247253	1196.600000
790.283386	1177.900000
790.319580	1163.600000
790.355774	1152.400000
790.391907	1164.300000
790.428101	1185.000000
790.464294	1188.900000
790.500427	1191.900000
790.536621	1175.600000
790.572754	1154.100000
790.608887	1157.800000
790.645081	1168.800000
790.681274	1184.300000
790.717346	1178.900000
790.753540	1143.700000
790.789734	1071.500000
790.825867	1010.500000
790.862000	1008.500000
790.898132	1049.800000
790.934265	1108.700000
790.970459	1168.000000
791.006592	1185.500000
791.042725	1187.100000
791.078918	1182.200000
791.114990	1185.400000
791.151184	1198.200000
791.187317	1227.000000
791.223389	1212.600000
791.259583	1199.900000
791.295715	1209.000000
791.331848	1211.900000
791.367981	1226.700000
791.404114	1236.800000
791.440247	1227.100000
791.476379	1226.700000
791.512451	1211.500000
791.548584	1210.300000
791.584778	1209.400000
791.620850	1230.600000
791.656982	1236.700000
791.693115	1227.400000
791.729187	1219.900000
791.765381	1205.800000
791.801514	1203.200000
791.837585	1206.400000
791.873718	1214.900000
791.909851	1232.400000
791.945923	1243.500000
791.982056	1197.000000
792.018188	1194.200000
792.054260	1202.800000
792.090393	1208.000000
792.126465	1204.800000
792.162598	1210.900000
792.198669	1198.800000
792.234741	1194.200000
792.270874	1188.600000
792.307007	1168.500000
792.343079	1178.300000
792.379150	1198.600000
792.415283	1177.700000
792.451355	1174.600000
792.487488	1154.900000
792.523560	1155.600000
792.559631	1156.100000
792.595764	1156.700000
792.631836	1164.200000
792.667908	1173.000000
792.703979	1153.200000
792.740051	1152.300000
792.776184	1154.100000
792.812256	1155.700000
792.848328	1162.400000
792.884399	1168.500000
792.920471	1165.000000
792.956543	1157.000000
792.992615	1155.600000
793.028748	1150.500000
793.064758	1161.700000
793.100830	1182.600000
793.136963	1194.000000
793.172974	1184.700000
793.209045	1174.300000
793.245178	1186.000000
793.281189	1168.000000
793.317261	1178.700000
793.353271	1178.500000
793.389404	1191.000000
793.425476	1182.100000
793.461487	1165.700000
793.497559	1164.900000
793.533630	1172.700000
793.569641	1172.700000
793.605713	1177.300000
793.641785	1173.900000
793.677795	1186.400000
793.713867	1167.100000
793.749878	1175.800000
793.785950	1192.100000
793.822021	1193.600000
793.858032	1178.600000
793.894104	1194.200000
793.930176	1177.600000
793.966187	1181.900000
794.002258	1170.600000
794.038269	1179.300000
794.074280	1170.300000
794.110352	1192.700000
794.146423	1165.700000
794.182373	1155.300000
794.218445	1152.300000
794.254517	1144.800000
794.290466	1131.300000
794.326538	1131.800000
794.362549	1132.600000
794.398560	1137.900000
794.434631	1140.800000
794.470581	1117.500000
794.506653	1109.500000
794.542664	1117.500000
794.578674	1114.100000
794.614685	1101.700000
794.650757	1101.700000
794.686707	1097.500000
794.722778	1083.300000
794.758789	1095.900000
794.794739	1098.700000
794.830811	1125.800000
794.866821	1149.100000
794.902771	1140.800000
794.938843	1126.800000
794.974792	1127.400000
795.010803	1126.700000
795.046814	1128.000000
795.082825	1116.900000
795.118835	1130.000000
795.154846	1100.800000
795.190796	1107.500000
795.226807	1084.100000
795.262817	1092.600000
795.298767	1094.300000
795.334778	1097.000000
795.370850	1077.700000
795.406799	1080.300000
795.442810	1060.600000
795.478821	1057.900000
795.514709	1056.200000
795.550720	1079.700000
795.586670	1058.300000
795.622681	1066.200000
795.658691	1058.100000
795.694641	1051.400000
795.730652	1038.600000
795.766663	1048.400000
795.802551	1057.900000
795.838562	1069.900000
795.874573	1055.900000
795.910522	1050.400000
795.946472	1043.800000
795.982483	1042.900000
796.018433	1050.400000
796.054382	1064.000000
796.090393	1048.800000
796.126282	1036.200000
796.162292	1029.800000
796.198242	1019.300000
796.234192	1025.300000
796.270203	1021.000000
796.306091	1026.800000
796.342041	1045.800000
796.378052	1031.300000
796.413940	1023.100000
796.449951	1024.600000
796.485901	1025.700000
796.521790	1030.500000
796.557800	1037.700000
796.593689	1038.200000
796.629639	1026.600000
796.665649	1023.300000
796.701599	1020.900000
796.737488	1014.300000
796.773437	1030.500000
796.809387	1023.800000
796.845337	1020.800000
796.881287	1011.200000
796.917175	994.800000
796.953125	989.300000
796.989075	1002.400000
797.024963	1015.100000
797.060913	1007.600000
797.096863	1002.900000
797.132751	996.800000
797.168701	981.100000
797.204590	989.700000
797.240540	987.500000
797.276489	989.400000
797.312439	998.400000
797.348328	994.300000
797.384277	976.200000
797.420166	979.400000
797.456055	980.900000
797.492004	977.600000
797.527893	980.100000
797.563843	983.300000
797.599731	973.200000
797.635620	958.800000
797.671570	968.600000
797.707520	967.500000
797.743347	966.000000
797.779297	976.000000
797.815125	969.200000
797.851074	959.200000
797.887024	946.500000
797.922913	943.200000
797.958801	958.300000
797.994690	954.100000
798.030579	964.600000
798.066467	970.800000
798.102356	949.900000
798.138245	945.000000
798.174133	936.700000
798.210083	944.500000
798.245911	954.900000
798.281799	962.000000
798.317749	953.600000
798.353577	940.800000
798.389465	939.200000
798.425293	933.900000
798.461243	925.100000
798.497131	931.200000
798.532959	934.200000
798.568848	943.000000
798.604736	925.600000
798.640564	908.600000
798.676453	917.000000
798.712402	914.200000
798.748230	920.000000
798.784119	915.200000
798.820007	923.200000
798.855835	915.800000
798.891724	907.300000
798.927551	910.100000
798.963379	913.800000
798.999268	910.600000
799.035095	911.500000
799.070984	901.000000
799.106873	891.600000
799.142700	898.000000
799.178528	887.800000
799.214417	889.700000
799.250244	908.700000
799.286133	898.700000
799.321960	897.100000
799.357788	889.200000
799.393677	894.300000
799.429504	892.600000
799.465332	891.700000
799.501221	899.600000
799.537048	893.600000
799.572876	881.800000
799.608704	881.800000
799.644531	890.200000
799.680359	889.100000
799.716248	897.300000
799.752014	899.400000
799.787903	887.600000
799.823730	885.300000
799.859558	879.400000
799.895386	883.500000
799.931213	881.600000
799.967041	870.700000
800.002869	865.200000
800.038696	879.200000
800.074463	854.600000
800.110352	862.400000
800.146179	854.900000
800.181946	862.700000
800.217773	862.900000
800.253540	854.800000
800.289429	852.500000
800.325256	851.600000
800.361023	840.000000
800.396851	845.200000
800.432678	847.600000
800.468445	842.900000
800.504272	837.200000
800.540100	819.300000
800.575867	817.000000
800.611694	823.500000
800.647461	813.200000
800.683289	823.200000
800.719116	821.000000
800.754883	817.400000
800.790649	799.000000
800.826477	786.400000
800.862244	814.400000
800.898071	797.300000
800.933838	788.400000
800.969604	785.300000
801.005432	790.900000
801.041199	789.900000
801.076965	782.200000
801.112793	776.700000
801.148560	763.800000
801.184326	762.100000
801.220154	765.500000
801.255859	758.200000
801.291687	754.000000
801.327454	748.900000
801.363281	750.000000
801.398987	744.500000
801.434814	747.600000
801.470520	761.200000
801.506287	744.100000
801.542114	740.300000
801.577820	738.900000
801.613647	740.700000
801.649414	730.600000
801.685120	731.100000
801.720886	736.900000
801.756714	728.200000
801.792419	722.200000
801.828186	718.500000
801.863892	729.000000
801.899719	712.700000
801.935486	707.800000
801.971252	715.500000
802.006958	710.800000
802.042725	701.800000
802.078430	704.000000
802.114197	697.100000
802.149963	713.600000
802.185669	705.600000
802.221436	694.900000
802.257202	699.800000
802.292908	696.400000
802.328674	703.700000
802.364441	699.200000
802.400146	699.100000
802.435913	693.600000
802.471558	692.200000
802.507324	684.600000
802.543091	673.000000
802.578796	687.400000
802.614502	687.300000
802.650269	691.400000
802.685974	677.000000
802.721741	678.800000
802.757446	680.700000
802.793152	675.300000
802.828918	685.300000
802.864624	681.300000
802.900330	680.200000
802.936035	671.900000
802.971802	669.200000
803.007446	667.900000
803.043213	659.800000
803.078857	667.700000
803.114624	654.100000
803.150330	657.800000
803.185974	649.200000
803.221741	647.900000
803.257446	657.000000
803.293152	655.400000
803.328857	653.300000
803.364563	645.600000
803.400208	640.700000
803.435974	651.600000
803.471680	639.800000
803.507324	637.000000
803.543030	641.200000
803.578735	642.800000
803.614441	630.100000
803.650146	636.800000
803.685791	620.700000
803.721497	623.400000
803.757202	614.400000
803.792847	624.100000
803.828552	617.800000
803.864258	619.200000
803.899902	614.200000
803.935608	601.100000
803.971313	607.900000
804.006958	607.900000
804.042664	604.500000
804.078308	611.400000
804.113953	601.500000
804.149658	610.800000
804.185364	595.200000
804.221008	605.800000
804.256714	594.500000
804.292297	592.400000
804.328003	588.800000
804.363708	583.600000
804.399292	582.700000
804.434998	583.300000
804.470703	574.300000
804.506287	590.100000
804.541992	581.600000
804.577637	582.300000
804.613281	570.600000
804.648926	569.100000
804.684570	573.000000
804.720215	570.600000
804.755920	572.000000
804.791565	562.800000
804.827209	570.500000
804.862854	563.300000
804.898437	555.500000
804.934143	560.200000
804.969788	559.300000
805.005371	564.400000
805.041077	561.300000
805.076721	561.900000
805.112305	550.700000
805.147949	553.400000
805.183655	547.400000
805.219238	548.600000
805.254883	548.800000
805.290466	556.600000
805.326111	549.500000
805.361755	537.400000
805.397400	542.300000
805.432983	544.500000
805.468628	546.600000
805.504211	553.700000
805.539856	546.000000
805.575500	549.900000
805.611084	540.300000
805.646729	531.100000
805.682373	534.500000
805.717957	541.900000
805.753601	543.500000
805.789246	525.400000
805.824768	536.800000
805.860413	539.500000
805.895996	528.900000
805.931641	526.600000
805.967224	535.300000
806.002869	531.700000
806.038452	538.700000
806.074036	530.200000
806.109619	519.700000
806.145264	518.600000
806.180847	521.200000
806.216431	517.300000
806.252014	520.900000
806.287659	520.800000
806.323181	527.700000
806.358826	522.500000
806.394409	503.000000
806.429993	506.000000
806.465576	520.900000
806.501160	505.000000
806.536743	495.200000
806.572327	508.500000
806.607910	504.500000
806.643494	503.500000
806.679077	499.700000
806.714661	501.800000
806.750244	503.900000
806.785828	491.500000
806.821350	492.900000
806.856934	496.500000
806.892517	495.400000
806.928101	485.200000
806.963684	487.600000
806.999268	498.100000
807.034790	477.600000
807.070374	485.500000
807.105896	480.100000
807.141479	473.300000
807.177063	481.600000
807.212585	472.500000
807.248169	472.600000
807.283752	477.800000
807.319275	468.800000
807.354858	471.100000
807.390381	466.500000
807.425903	467.000000
807.461487	465.100000
807.497070	456.200000
807.532593	460.900000
807.568115	458.800000
807.603699	453.300000
807.639221	447.000000
807.674744	451.100000
807.710266	457.600000
807.745850	459.700000
807.781372	448.800000
807.816895	447.000000
807.852417	450.900000
807.888000	447.200000
807.923523	444.500000
807.959045	447.700000
807.994629	437.300000
808.030090	433.800000
808.065613	441.000000
808.101135	442.600000
808.136658	438.800000
808.172241	439.400000
808.207764	435.600000
808.243225	433.700000
808.278809	428.200000
808.314270	432.000000
808.349792	419.700000
808.385315	422.900000
808.420837	425.700000
808.456360	431.000000
808.491882	429.200000
808.527344	424.300000
808.562866	433.200000
808.598389	421.900000
808.633850	415.700000
808.669434	416.500000
808.704895	423.900000
808.740417	426.100000
808.775940	417.600000
808.811462	415.800000
808.846924	406.300000
808.882385	400.500000
808.917847	404.400000
808.953369	405.400000
808.988892	398.200000
809.024353	407.400000
809.059875	406.400000
809.095398	402.100000
809.130798	395.900000
809.166321	399.200000
809.201843	395.200000
809.237305	396.300000
809.272766	404.600000
809.308228	388.800000
809.343750	387.600000
809.379211	389.200000
809.414734	390.700000
809.450134	397.000000
809.485657	379.700000
809.521118	386.300000
809.556580	383.400000
809.592102	381.800000
809.627502	379.600000
809.663025	376.900000
809.698486	373.900000
809.733887	371.000000
809.769409	377.200000
809.804871	361.600000
809.840271	368.200000
809.875793	371.200000
809.911194	372.500000
809.946655	366.300000
809.982178	363.600000
810.017639	369.300000
810.053040	362.800000
810.088501	361.900000
810.123901	360.200000
810.159424	357.000000
810.194885	352.000000
810.230286	356.200000
810.265747	351.200000
810.301208	347.100000
810.336609	351.800000
810.372070	344.000000
810.407532	347.300000
810.442932	350.500000
810.478394	356.300000
810.513794	347.900000
810.549255	347.600000
810.584717	342.400000
810.620117	338.800000
810.655518	345.200000
810.690979	343.900000
810.726379	343.600000
810.761841	332.500000
810.797302	333.300000
810.832642	333.400000
810.868103	347.000000
810.903564	334.000000
810.938904	339.200000
810.974365	326.200000
811.009827	333.500000
811.045166	327.600000
811.080627	321.500000
811.115967	328.400000
811.151428	335.700000
811.186829	327.200000
811.222229	327.700000
811.257629	319.400000
811.293091	325.800000
811.328430	332.400000
811.363892	328.100000
811.399292	329.300000
811.434631	321.300000
811.470093	327.300000
811.505493	316.700000
811.540833	319.700000
811.576294	327.100000
811.611694	321.400000
811.647034	313.800000
811.682434	318.300000
811.717773	317.200000
811.753235	323.800000
811.788635	316.100000
811.823975	317.100000
811.859375	326.400000
811.894775	310.900000
811.930115	312.200000
811.965515	314.000000
812.000916	317.300000
812.036255	310.800000
812.071655	318.200000
812.106995	308.900000
812.142395	310.100000
812.177795	315.300000
812.213196	313.400000
812.248474	313.500000
812.283875	303.900000
812.319214	308.400000
812.354614	306.500000
812.390015	304.600000
812.425293	305.600000
812.460693	305.500000
812.496094	302.500000
812.531433	297.400000
812.566772	296.600000
812.602173	300.000000
812.637451	302.200000
812.672852	297.400000
812.708191	302.200000
812.743530	295.100000
812.778931	288.200000
812.814270	290.700000
812.849609	297.000000
812.884949	292.200000
812.920227	287.200000
812.955627	301.800000
812.990967	292.900000
813.026306	288.000000
813.061646	280.600000
813.096985	275.000000
813.132324	274.200000
813.167664	279.600000
813.203003	285.800000
813.238281	270.500000
813.273682	274.700000
813.308960	270.200000
813.344299	272.000000
813.379639	280.300000
813.414978	273.000000
813.450256	272.500000
813.485596	278.400000
813.520874	269.400000
813.556213	273.700000
813.591614	276.500000
813.626831	268.100000
813.662170	272.600000
813.697510	282.900000
813.732788	264.900000
813.768127	271.100000
813.803467	273.900000
813.838745	266.400000
813.874084	271.800000
813.909363	270.800000
813.944641	270.900000
813.979980	260.900000
814.015320	264.600000
814.050598	262.300000
814.085876	267.400000
814.121155	263.900000
814.156494	262.100000
814.191772	262.700000
814.227051	260.600000
814.262390	260.700000
814.297668	260.600000
814.332947	263.900000
814.368225	254.900000
814.403564	259.800000
814.438782	255.600000
814.474121	258.500000
814.509338	255.600000
814.544617	263.700000
814.579956	253.300000
814.615173	263.100000
814.650513	260.800000
814.685791	251.500000
814.721008	255.400000
814.756348	255.000000
814.791626	250.000000
814.826843	250.700000
814.862122	252.400000
814.897400	249.300000
814.932678	253.300000
814.967957	250.900000
815.003235	249.100000
815.038452	244.600000
815.073730	243.400000
815.108948	253.000000
815.144226	250.100000
815.179504	252.400000
815.214722	238.000000
815.250000	238.200000
815.285278	245.600000
815.320496	239.000000
815.355774	242.300000
815.391052	246.200000
815.426270	240.500000
815.461487	241.100000
815.496765	235.700000
815.531982	232.300000
815.567261	238.700000
815.602539	247.900000
815.637695	241.200000
815.672974	244.000000
815.708191	242.700000
815.743408	244.700000
815.778687	236.800000
815.813904	247.100000
815.849121	227.600000
815.884399	230.300000
815.919556	232.100000
815.954834	232.300000
815.990051	237.200000
816.025269	240.000000
816.060486	230.800000
816.095703	229.700000
816.130920	234.000000
816.166199	230.100000
816.201416	232.800000
816.236572	239.700000
816.271851	229.500000
816.307007	235.600000
816.342224	226.200000
816.377441	230.500000
816.412659	221.400000
816.447876	233.900000
816.483093	227.400000
816.518250	228.600000
816.553467	225.500000
816.588745	232.200000
816.623901	223.400000
816.659119	218.000000
816.694275	222.900000
816.729492	220.100000
816.764709	258.100000
816.799927	216.700000
816.835083	224.600000
816.870300	217.000000
816.905457	221.900000
816.940674	225.800000
816.975830	219.500000
817.010986	215.700000
817.046204	218.700000
817.081421	215.700000
817.116577	215.500000
817.151733	225.400000
817.186951	223.500000
817.222107	218.700000
817.257324	223.500000
817.292419	219.200000
817.327637	211.800000
817.362854	217.800000
817.398010	210.000000
817.433167	215.000000
817.468323	214.000000
817.503479	215.300000
817.538635	223.400000
817.573853	216.500000
817.608948	216.100000
817.644165	212.100000
817.679321	211.300000
817.714478	210.300000
817.749634	213.800000
817.784790	226.500000
817.819946	220.800000
817.855103	202.700000
817.890198	211.900000
817.925415	203.700000
817.960571	214.900000
817.995667	212.500000
818.030823	214.300000
818.066040	206.600000
818.101135	212.600000
818.136292	210.300000
818.171448	204.000000
818.206543	209.500000
818.241699	212.400000
818.276855	209.100000
818.311951	209.300000
818.347107	204.700000
818.382263	211.100000
818.417358	216.300000
818.452515	216.900000
818.487610	216.500000
818.522766	206.100000
818.557922	216.900000
818.593018	212.600000
818.628113	209.900000
818.663269	204.600000
818.698364	207.400000
818.733521	205.600000
818.768677	211.500000
818.803711	202.000000
818.838867	204.000000
818.874023	207.300000
818.909058	204.200000
818.944214	201.500000
818.979370	209.600000
819.014404	205.500000
819.049561	203.300000
819.084595	207.700000
819.119751	198.800000
819.154846	207.300000
819.189941	204.200000
819.225037	198.600000
819.260193	194.700000
819.295227	196.900000
819.330322	192.800000
819.365479	194.200000
819.400513	226.100000
819.435608	192.300000
819.470764	191.700000
819.505798	194.000000
819.540894	197.900000
819.575989	195.500000
819.611084	205.300000
819.646179	206.100000
819.681213	200.700000
819.716309	197.600000
819.751404	196.600000
819.786438	202.900000
819.821533	194.000000
819.856628	198.800000
819.891663	203.800000
819.926758	209.500000
819.961853	205.000000
819.996887	195.900000
820.031982	202.100000
820.067017	196.600000
820.102112	227.500000
820.137207	196.100000
820.172302	212.700000
820.207275	193.700000
820.242371	194.400000
820.277405	194.500000
820.312500	197.700000
820.347534	201.500000
820.382568	202.200000
820.417664	195.300000
820.452759	196.400000
820.487732	195.200000
820.522827	196.000000
820.557861	193.200000
820.592896	194.400000
820.627930	194.700000
820.662964	193.900000
820.698059	198.900000
820.733093	194.000000
820.768127	200.100000
820.803162	195.800000
820.838196	195.000000
820.873230	196.000000
820.908264	197.700000
820.943298	192.100000
820.978333	201.800000
821.013367	195.800000
821.048401	200.800000
821.083435	202.200000
821.118469	187.700000
821.153503	200.500000
821.188477	198.200000
821.223511	188.800000
821.258484	195.400000
821.293579	196.000000
821.328613	188.400000
821.363647	193.800000
821.398621	190.800000
821.433655	190.900000
821.468628	207.600000
821.503662	194.800000
821.538696	198.300000
821.573669	189.100000
821.608704	199.600000
821.643677	192.300000
821.678650	197.000000
821.713684	203.900000
821.748718	193.300000
821.783691	193.200000
821.818726	196.300000
821.853638	195.100000
821.888672	192.600000
821.923706	193.800000
821.958618	193.300000
821.993652	192.700000
822.028687	199.800000
822.063599	201.900000
822.098633	195.900000
822.133667	190.600000
822.168579	194.100000
822.203613	196.200000
822.238586	191.800000
822.273560	198.000000
822.308533	192.600000
822.343567	192.100000
822.378479	192.500000
822.413452	193.300000
822.448425	190.000000
822.483398	198.900000
822.518372	198.000000
822.553345	191.200000
822.588318	202.100000
822.623291	191.700000
822.658203	192.600000
822.693237	194.000000
822.728210	188.100000
822.763123	194.600000
822.798096	189.100000
822.833069	193.800000
822.867981	194.000000
822.902954	195.400000
822.937927	197.700000
822.972900	204.900000
823.007874	186.000000
823.042725	197.400000
823.077698	206.600000
823.112671	190.900000
823.147583	192.900000
823.182556	196.200000
823.217529	197.300000
823.252441	191.200000
823.287415	207.300000
823.322388	196.100000
823.357239	193.800000
823.392212	202.600000
823.427185	197.500000
823.462097	190.400000
823.497009	197.900000
823.531982	192.700000
823.566895	193.200000
823.601807	190.100000
823.636719	192.500000
823.671631	196.800000
823.706604	192.800000
823.741455	197.200000
823.776428	186.900000
823.811340	198.400000
823.846252	200.300000
823.881165	202.900000
823.916138	194.400000
823.950989	204.100000
823.985901	191.700000
824.020813	195.100000
824.055725	192.400000
824.090637	190.200000
824.125610	195.500000
824.160461	195.500000
824.195374	196.000000
824.230225	200.400000
824.265198	188.200000
824.300110	191.500000
824.334961	204.400000
824.369873	184.000000
824.404785	195.400000
824.439636	201.500000
824.474548	185.700000
824.509460	183.200000
824.544312	200.000000
824.579224	195.700000
824.614075	197.200000
824.648987	191.500000
824.683899	192.300000
824.718811	191.400000
824.753662	200.900000
824.788574	198.400000
824.823364	195.200000
824.858276	189.500000
824.893188	199.300000
824.928040	199.800000
824.962952	197.800000
824.997803	198.000000
825.032654	195.600000
825.067566	197.500000
825.102417	191.600000
825.137268	192.600000
825.172119	194.000000
825.206970	190.700000
825.241882	193.300000
825.276733	191.000000
825.311646	191.900000
825.346436	188.000000
825.381348	189.100000
825.416138	193.300000
825.450989	189.600000
825.485901	185.300000
825.520691	185.100000
825.555542	187.900000
825.590454	193.900000
825.625244	185.500000
825.660095	199.300000
825.695007	196.800000
825.729797	192.600000
825.764648	190.800000
825.799438	193.400000
825.834290	194.600000
825.869202	187.500000
825.903992	195.400000
825.938843	190.200000
825.973694	187.300000
826.008484	205.400000
826.043335	187.500000
826.078186	184.000000
826.112976	199.400000
826.147827	198.100000
826.182678	203.500000
826.217468	186.200000
826.252319	198.400000
826.287109	189.300000
826.321899	200.900000
826.356750	190.600000
826.391541	188.200000
826.426392	198.600000
826.461182	192.800000
826.495972	186.800000
826.530823	183.500000
826.565613	193.300000
826.600403	188.800000
826.635254	197.000000
826.670044	184.300000
826.704834	185.100000
826.739685	188.100000
826.774475	194.400000
826.809265	192.400000
826.844055	190.700000
826.878906	200.500000
826.913635	195.500000
826.948425	195.100000
826.983215	193.900000
827.018005	197.800000
827.052856	190.900000
827.087585	195.300000
827.122375	186.800000
827.157227	193.300000
827.191956	204.400000
827.226746	188.400000
827.261536	196.500000
827.296265	185.800000
827.331116	190.200000
827.365906	196.700000
827.400635	189.500000
827.435425	185.300000
827.470215	199.400000
827.504944	191.200000
827.539734	196.500000
827.574463	192.400000
827.609253	198.500000
827.644043	191.800000
827.678772	199.200000
827.713562	188.700000
827.748352	189.900000
827.783081	187.800000
827.817871	193.300000
827.852600	186.500000
827.887329	195.200000
827.922119	182.600000
827.956848	195.600000
827.991638	205.900000
828.026367	193.900000
828.061157	192.800000
828.095886	193.900000
828.130615	206.400000
828.165344	183.300000
828.200073	193.500000
828.234863	190.200000
828.269592	191.200000
828.304321	198.800000
828.339111	192.100000
828.373779	189.700000
828.408569	197.300000
828.443298	198.300000
828.477966	189.100000
828.512756	193.800000
828.547424	187.900000
828.582214	190.100000
828.616943	191.700000
828.651672	191.200000
828.686340	197.300000
828.721130	190.000000
828.755798	191.400000
828.790527	193.300000
828.825256	194.200000
828.859924	192.200000
828.894714	198.600000
828.929443	201.000000
828.964111	189.900000
828.998840	195.000000
829.033569	190.300000
829.068237	190.800000
829.102966	190.300000
829.137634	195.100000
829.172363	193.400000
829.207092	194.200000
829.241821	188.900000
829.276489	185.200000
829.311157	193.200000
829.345825	192.700000
829.380554	197.300000
829.415283	186.600000
829.449951	187.400000
829.484619	201.700000
829.519348	198.900000
829.554016	191.800000
829.588745	190.900000
829.623413	185.400000
829.658081	204.000000
829.692749	185.700000
829.727417	197.600000
829.762146	195.000000
829.796814	189.200000
829.831482	189.400000
829.866150	194.800000
829.900879	188.900000
829.935486	196.100000
829.970154	189.800000
830.004883	204.300000
830.039490	194.000000
830.074219	188.800000
830.108887	193.600000
830.143494	192.000000
830.178223	186.900000
830.212891	191.800000
830.247498	192.800000
830.282166	201.300000
830.316772	197.000000
830.351501	189.700000
830.386169	192.300000
830.420776	190.600000
830.455444	192.400000
830.490112	189.400000
830.524719	184.100000
830.559387	195.200000
830.594055	196.200000
830.628662	193.200000
830.663330	192.300000
830.697998	201.100000
830.732605	191.700000
830.767273	193.300000
830.801941	192.900000
830.836487	201.700000
830.871155	194.300000
830.905762	194.400000
830.940430	185.100000
830.975098	187.700000
831.009644	193.700000
831.044312	200.800000
831.078979	194.900000
831.113525	183.000000
831.148193	193.200000
831.182861	190.300000
831.217407	195.700000
831.252075	208.800000
831.286621	189.700000
831.321289	187.700000
831.355896	191.900000
831.390564	200.200000
831.425110	193.200000
831.459778	197.800000
831.494324	206.200000
831.528931	195.200000
831.563599	197.300000
831.598145	185.800000
831.632751	191.300000
831.667419	190.600000
831.701965	195.100000
831.736572	196.500000
831.771179	185.400000
831.805786	190.100000
831.840393	198.900000
831.874939	183.100000
831.909546	197.200000
831.944153	185.300000
831.978760	192.400000
832.013306	188.500000
832.047913	200.300000
832.082458	201.800000
832.117065	188.300000
832.151672	202.200000
832.186218	194.500000
832.220825	196.100000
832.255432	185.200000
832.289978	189.500000
832.324585	195.400000
832.359192	195.400000
832.393677	191.700000
832.428284	192.800000
832.462830	190.300000
832.497437	191.300000
832.531982	195.200000
832.566589	191.900000
832.601135	192.300000
832.635681	184.300000
832.670227	190.900000
832.704773	199.400000
832.739380	193.600000
832.773926	192.500000
832.808472	188.300000
832.843079	193.000000
832.877563	194.500000
832.912170	190.100000
832.946716	184.000000
832.981201	199.000000
833.015808	194.100000
833.050293	193.300000
833.084839	188.200000
833.119446	190.400000
833.153992	196.100000
833.188477	193.200000
833.223022	187.900000
833.257568	195.200000
833.292114	198.100000
833.326660	204.200000
833.361145	188.800000
833.395691	185.700000
833.430237	190.800000
833.464783	195.800000
833.499329	188.300000
833.533875	186.600000
833.568359	196.700000
833.602905	200.300000
833.637390	198.600000
833.671875	188.700000
833.706421	192.400000
833.740906	189.800000
833.775452	182.200000
833.809998	190.300000
833.844482	199.500000
833.879028	192.600000
833.913513	191.300000
833.947998	195.200000
833.982544	188.400000
834.017090	189.700000
834.051514	181.500000
834.086060	196.400000
834.120544	191.900000
834.155029	196.000000
834.189575	191.600000
834.223999	195.600000
834.258545	194.400000
834.293030	192.600000
834.327515	192.000000
834.362000	189.600000
834.396545	197.400000
834.430969	190.600000
834.465454	196.900000
834.500000	185.400000
834.534424	195.400000
834.568970	182.500000
834.603455	185.600000
834.637878	189.100000
834.672363	193.100000
834.706909	192.300000
834.741333	194.000000
834.775818	184.400000
834.810242	189.600000
834.844727	193.600000
834.879211	191.000000
834.913635	194.500000
834.948181	193.900000
834.982666	193.100000
835.017090	190.500000
835.051575	195.600000
835.086060	189.400000
835.120483	198.300000
835.154907	197.600000
835.189331	191.600000
835.223816	195.700000
835.258301	187.200000
835.292786	187.800000
835.327209	196.800000
835.361694	188.800000
835.396057	189.200000
835.430542	195.100000
835.465027	193.800000
835.499390	186.200000
835.533875	211.800000
835.568359	189.600000
835.602722	186.400000
835.637207	194.800000
835.671692	186.900000
835.706055	208.200000
835.740540	194.900000
835.774902	195.100000
835.809387	193.900000
835.843811	187.000000
835.878235	200.000000
835.912659	186.400000
835.947083	189.800000
835.981506	192.100000
836.015930	184.100000
836.050354	197.700000
836.084778	202.700000
836.119202	198.000000
836.153625	204.900000
836.187988	189.800000
836.222473	189.100000
836.256897	194.500000
836.291260	192.000000
836.325684	194.000000
836.360046	191.300000
836.394470	191.900000
836.428894	200.600000
836.463318	188.900000
836.497681	197.500000
836.532104	199.300000
836.566467	195.000000
836.600891	191.100000
836.635315	198.400000
836.669678	196.200000
836.704102	196.600000
836.738525	193.200000
836.772888	185.300000
836.807251	190.000000
836.841675	195.100000
836.876038	188.700000
836.910461	188.800000
836.944763	196.400000
836.979187	188.900000
837.013611	198.000000
837.047974	185.800000
837.082336	204.300000
837.116699	195.500000
837.151062	192.100000
837.185486	187.000000
837.219849	191.500000
837.254211	197.000000
837.288574	191.500000
837.322937	186.400000
837.357300	179.900000
837.391663	204.200000
837.426086	198.800000
837.460388	193.100000
837.494751	197.300000
837.529114	190.800000
837.563477	197.000000
837.597839	194.900000
837.632141	192.600000
837.666565	189.600000
837.700928	195.800000
837.735229	196.500000
837.769592	195.100000
837.803955	198.400000
837.838257	189.600000
837.872620	188.300000
837.906982	199.800000
837.941284	192.600000
837.975647	193.000000
838.010010	199.600000
838.044312	192.200000
838.078674	189.500000
838.112976	192.700000
838.147339	196.600000
838.181702	193.000000
838.216003	203.000000
838.250366	194.600000
838.284668	194.800000
838.318970	184.800000
838.353333	192.600000
838.387634	192.100000
838.421936	193.400000
838.456299	193.800000
838.490601	199.800000
838.524902	196.800000
838.559265	198.600000
838.593567	196.000000
838.627869	187.500000
838.662170	196.500000
838.696472	185.800000
838.730774	189.800000
838.765137	196.300000
838.799377	178.900000
838.833740	193.100000
838.868042	199.400000
838.902283	184.500000
838.936646	199.100000
838.970947	194.400000
839.005188	198.100000
839.039551	187.400000
839.073792	198.800000
839.108093	192.500000
839.142395	201.300000
839.176697	186.400000
839.210937	192.800000
839.245300	205.400000
839.279541	186.700000
839.313843	192.000000
839.348145	196.200000
839.382385	197.000000
839.416687	196.600000
839.450989	196.000000
839.485229	189.300000
839.519531	189.100000
839.553833	198.400000
839.588013	193.800000
839.622314	193.700000
839.656555	196.100000
839.690857	192.100000
839.725159	186.400000
839.759460	190.700000
839.793640	190.000000
839.827942	191.000000
839.862183	188.100000
839.896423	194.100000
839.930725	202.000000
839.964966	200.000000
839.999207	200.600000
840.033508	199.300000
840.067688	189.500000
840.101990	201.200000
840.136230	193.200000
840.170471	201.700000
840.204712	188.200000
840.238953	188.000000
840.273193	194.500000
840.307434	197.200000
840.341736	188.600000
840.375916	187.000000
840.410217	190.200000
840.444397	197.700000
840.478638	196.300000
840.512878	199.600000
840.547119	193.600000
840.581360	193.700000
840.615601	203.100000
840.649780	202.800000
840.684021	192.500000
840.718262	200.500000
840.752441	197.600000
840.786682	194.000000
840.820862	194.400000
840.855103	201.500000
840.889343	193.500000
840.923584	198.800000
840.957764	194.900000
840.992004	195.700000
841.026184	207.700000
841.060425	190.500000
841.094666	189.500000
841.128845	197.200000
841.163025	193.000000
841.197266	196.900000
841.231445	194.100000
841.265686	193.200000
841.299866	187.800000
841.334045	200.600000
841.368286	192.800000
841.402405	200.700000
841.436646	198.600000
841.470825	191.700000
841.505005	192.000000
841.539185	189.200000
841.573425	188.700000
841.607544	194.700000
841.641785	193.400000
841.675964	188.700000
841.710144	194.600000
841.744324	191.000000
841.778503	193.200000
841.812683	189.600000
841.846863	202.500000
841.881042	200.000000
841.915222	190.000000
841.949402	208.400000
841.983521	184.900000
842.017700	192.100000
842.051880	195.600000
842.086060	194.300000
842.120239	195.500000
842.154419	190.500000
842.188538	192.600000
842.222717	190.500000
842.256897	203.300000
842.291016	192.300000
842.325195	196.700000
842.359375	203.700000
842.393494	202.000000
842.427673	195.100000
842.461853	196.300000
842.495911	200.600000
842.530090	195.900000
842.564209	192.400000
842.598389	196.400000
842.632568	193.700000
842.666626	198.400000
842.700806	189.200000
842.734985	192.000000
842.769043	196.300000
842.803223	190.800000
842.837402	192.400000
842.871460	190.000000
842.905640	201.500000
842.939697	189.800000
842.973877	195.700000
843.007996	200.000000
843.042175	201.900000
843.076233	190.100000
843.110413	194.900000
843.144470	202.600000
843.178589	196.800000
843.212769	189.800000
843.246826	198.400000
843.280945	191.400000
843.315125	192.200000
843.349182	189.700000
843.383301	199.500000
843.417419	207.300000
843.451538	193.300000
843.485657	193.400000
843.519714	192.300000
843.553833	195.100000
843.587952	191.900000
843.622070	190.500000
843.656128	198.200000
843.690247	192.100000
843.724304	192.500000
843.758423	196.000000
843.792542	193.100000
843.826599	193.900000
843.860718	191.100000
843.894836	186.800000
843.928894	194.100000
843.963013	195.900000
843.997070	190.700000
844.031128	187.100000
844.065247	199.100000
844.099304	198.800000
844.133362	195.600000
844.167480	196.500000
844.201599	201.000000
844.235596	195.400000
844.269714	195.100000
844.303711	196.800000
844.337830	185.500000
844.371948	196.800000
844.405945	193.900000
844.440063	188.100000
844.474121	207.800000
844.508118	191.900000
844.542236	192.400000
844.576294	193.200000
844.610352	189.700000
844.644409	193.300000
844.678406	185.600000
844.712524	198.500000
844.746582	200.400000
844.780640	193.700000
844.814636	194.800000
844.848755	204.300000
844.882751	192.500000
844.916809	198.000000
844.950867	196.500000
844.984863	202.500000
845.018921	192.800000
845.052979	190.800000
845.086975	194.700000
845.121033	188.500000
845.155090	189.500000
845.189087	201.200000
845.223145	190.500000
845.257141	192.900000
845.291199	196.800000
845.325256	203.200000
845.359253	195.100000
845.393250	204.700000
845.427307	192.700000
845.461304	196.100000
845.495361	194.100000
845.529358	205.400000
845.563354	191.500000
845.597412	190.700000
845.631409	200.300000
845.665405	201.300000
845.699463	199.700000
845.733459	192.400000
845.767456	200.500000
845.801453	192.700000
845.835449	201.200000
845.869446	198.200000
845.903503	197.200000
845.937439	190.600000
845.971497	201.800000
846.005493	188.600000
846.039429	197.900000
846.073486	204.300000
846.107483	192.400000
846.141418	195.200000
846.175476	193.200000
846.209473	201.100000
846.243408	190.900000
846.277405	196.800000
846.311401	190.300000
846.345337	196.100000
846.379395	200.600000
846.413330	192.100000
846.447327	201.300000
846.481323	189.200000
846.515259	191.700000
846.549255	194.400000
846.583252	196.000000
846.617187	188.300000
846.651184	195.700000
846.685120	192.400000
846.719055	202.600000
846.753052	199.100000
846.786987	199.000000
846.820984	188.500000
846.854980	201.300000
846.888916	190.700000
846.922852	197.200000
846.956848	204.100000
846.990723	190.100000
847.024719	195.900000
847.058716	193.500000
847.092590	202.400000
847.126587	194.900000
847.160522	192.400000
847.194458	199.800000
847.228455	190.400000
847.262390	188.700000
847.296265	192.300000
847.330261	201.400000
847.364136	191.200000
847.398132	190.900000
847.432068	195.600000
847.466003	193.400000
847.499939	192.600000
847.533875	197.700000
847.567749	193.400000
847.601746	192.600000
847.635681	198.000000
847.669556	187.500000
847.703491	199.900000
847.737427	210.300000
847.771301	188.500000
847.805237	195.200000
847.839233	194.300000
847.873108	193.600000
847.907043	192.600000
847.940918	201.100000
847.974854	195.600000
848.008789	198.500000
848.042664	194.900000
848.076538	197.300000
848.110474	195.600000
848.144348	196.800000
848.178284	188.600000
848.212219	194.000000
848.246094	192.600000
848.279968	195.600000
848.313904	198.000000
848.347778	196.500000
848.381653	193.800000
848.415588	190.300000
848.449463	192.100000
848.483337	196.900000
848.517212	198.800000
848.551086	194.200000
848.585022	191.000000
848.618835	203.300000
848.652771	191.700000
848.686646	190.000000
848.720520	204.000000
848.754395	192.500000
848.788330	199.500000
848.822144	198.500000
848.856018	193.600000
848.889954	204.300000
848.923767	190.400000
848.957642	190.800000
848.991577	199.600000
849.025391	191.700000
849.059265	194.400000
849.093079	191.700000
849.126953	189.400000
849.160828	200.300000
849.194641	196.000000
849.228577	191.500000
849.262451	193.600000
849.296265	192.200000
849.330139	189.500000
849.364014	193.700000
849.397827	197.700000
849.431702	194.500000
849.465515	198.800000
849.499329	186.000000
849.533203	189.400000
849.567078	184.200000
849.600891	197.900000
849.634766	193.100000
849.668518	199.500000
849.702393	194.900000
849.736267	188.000000
849.770020	205.500000
849.803894	198.800000
849.837769	193.900000
849.871521	196.100000
849.905396	200.000000
849.939270	189.500000
849.973022	192.600000
850.006897	199.100000
850.040710	196.900000
850.074524	197.700000
850.108337	193.000000
850.142151	198.500000
850.175964	201.500000
850.209778	193.800000
850.243530	182.600000
850.277405	199.100000
850.311218	195.900000
850.344971	192.200000
850.378845	202.600000
850.412659	192.200000
850.446411	195.700000
850.480225	194.300000
850.514038	200.600000
850.547791	197.400000
850.581665	195.000000
850.615417	192.000000
850.649231	196.500000
850.683044	193.300000
850.716858	194.300000
850.750610	194.600000
850.784424	199.200000
850.818176	191.600000
850.851929	192.900000
850.885742	190.300000
850.919495	193.900000
850.953308	200.900000
850.987122	202.800000
851.020874	188.100000
851.054626	186.300000
851.088440	197.800000
851.122192	198.500000
851.156006	194.100000
851.189697	194.800000
851.223511	190.300000
851.257263	199.000000
851.291077	196.700000
851.324829	192.200000
851.358582	190.900000
851.392334	192.000000
851.426086	193.000000
851.459900	202.700000
851.493591	194.000000
851.527344	194.300000
851.561157	193.600000
851.594849	198.300000
851.628662	196.900000
851.662415	202.500000
851.696106	197.300000
851.729858	198.400000
851.763611	188.600000
851.797363	196.300000
851.831116	189.500000
851.864868	197.700000
851.898560	198.600000
851.932312	194.000000
851.966064	196.100000
851.999817	194.700000
852.033569	194.900000
852.067261	198.700000
852.101013	191.000000
852.134766	193.700000
852.168457	185.000000
852.202209	197.000000
852.235901	191.000000
852.269592	196.400000
852.303345	204.200000
852.337036	197.400000
852.370789	194.200000
852.404541	197.500000
852.438171	191.100000
852.471924	192.300000
852.505676	188.800000
852.539307	197.600000
852.573059	190.400000
852.606812	192.100000
852.640442	193.300000
852.674194	199.500000
852.707886	205.700000
852.741577	201.500000
852.775269	190.000000
852.809021	196.600000
852.842651	197.000000
852.876404	198.400000
852.910034	196.300000
852.943787	201.900000
852.977478	198.700000
853.011108	190.600000
853.044861	190.700000
853.078552	202.400000
853.112183	198.000000
853.145874	197.500000
853.179626	185.000000
853.213257	196.200000
853.246948	191.800000
853.280640	203.400000
853.314270	194.500000
853.347961	202.200000
853.381653	198.100000
853.415283	199.100000
853.448975	192.200000
853.482605	196.000000
853.516296	194.200000
853.549988	189.400000
853.583618	196.500000
853.617310	196.500000
853.651001	197.500000
853.684631	189.300000
853.718323	190.300000
853.751953	202.900000
853.785583	185.900000
853.819275	198.600000
853.852966	195.300000
853.886536	184.900000
853.920227	188.700000
853.953918	199.900000
853.987488	191.500000
854.021179	198.900000
854.054749	200.900000
854.088440	197.400000
854.122131	190.000000
854.155701	198.900000
854.189331	191.200000
854.223022	199.100000
854.256592	197.300000
854.290283	191.700000
854.323914	197.700000
854.357483	197.800000
854.391174	196.400000
854.424744	203.800000
854.458374	196.800000
854.492065	204.900000
854.525696	195.600000
854.559265	202.300000
854.592896	205.500000
854.626465	196.400000
854.660095	196.400000
854.693787	197.700000
854.727356	194.100000
854.760986	199.500000
854.794617	196.500000
854.828186	193.400000
854.861816	197.900000
854.895447	195.600000
854.929016	196.100000
854.962585	197.900000
854.996155	203.400000
855.029785	196.800000
855.063416	197.700000
855.097046	200.500000
855.130615	189.300000
855.164185	200.200000
855.197754	196.200000
855.231384	197.300000
855.264954	193.100000
855.298523	198.800000
855.332153	196.200000
855.365723	203.400000
855.399292	191.000000
855.432922	193.900000
855.466492	197.200000
855.500061	190.500000
855.533630	192.100000
855.567200	198.700000
855.600769	199.700000
855.634338	198.600000
855.667969	197.400000
855.701477	189.000000
855.735046	191.600000
855.768616	186.400000
855.802185	197.400000
855.835754	209.400000
855.869324	187.300000
855.902893	194.100000
855.936401	201.600000
855.969971	196.300000
856.003540	187.900000
856.037109	199.000000
856.070618	195.300000
856.104187	188.200000
856.137695	192.100000
856.171265	185.300000
856.204834	194.600000
856.238403	200.600000
856.271912	191.800000
856.305481	196.300000
856.338989	188.700000
856.372559	198.400000
856.406128	195.600000
856.439636	199.600000
856.473145	193.600000
856.506653	201.200000
856.540222	194.400000
856.573792	202.200000
856.607300	199.200000
856.640808	189.500000
856.674377	195.100000
856.707825	223.500000
856.741394	200.000000
856.774902	191.000000
856.808472	185.500000
856.841980	198.600000
856.875488	204.500000
856.908936	187.000000
856.942505	193.600000
856.976013	194.700000
857.009521	189.800000
857.043030	194.500000
857.076477	192.800000
857.110046	200.600000
857.143555	195.500000
857.177063	200.100000
857.210571	193.300000
857.244080	187.800000
857.277527	197.600000
857.311035	194.300000
857.344543	198.500000
857.378052	195.200000
857.411499	199.400000
857.445068	205.500000
857.478516	194.100000
857.512024	190.300000
857.545532	194.300000
857.578979	196.300000
857.612427	194.600000
857.645874	190.300000
857.679382	196.600000
857.712891	198.900000
857.746399	195.300000
857.779846	200.900000
857.813354	198.800000
857.846741	194.200000
857.880249	190.400000
857.913757	196.800000
857.947266	198.300000
857.980652	198.000000
858.014160	191.600000
858.047546	192.600000
858.081055	194.000000
858.114563	202.000000
858.147949	189.500000
858.181458	198.300000
858.214844	194.300000
858.248352	186.200000
858.281799	200.900000
858.315308	207.300000
858.348694	197.800000
858.382141	203.400000
858.415588	199.000000
858.449036	198.900000
858.482483	197.500000
858.515930	191.100000
858.549377	194.300000
858.582825	201.200000
858.616211	198.200000
858.649658	196.400000
858.683105	189.600000
858.716553	190.800000
858.750000	189.500000
858.783386	192.000000
858.816833	186.200000
858.850281	195.500000
858.883728	197.700000
858.917114	194.000000
858.950562	203.500000
858.983948	201.800000
859.017395	199.400000
859.050781	193.200000
859.084167	191.500000
859.117615	188.600000
859.151062	198.200000
859.184448	191.100000
859.217834	193.200000
859.251282	192.000000
859.284668	191.400000
859.318054	185.200000
859.351440	191.900000
859.384888	202.100000
859.418274	186.500000
859.451721	186.500000
859.485046	197.800000
859.518494	196.700000
859.551819	191.000000
859.585266	198.500000
859.618652	197.300000
859.652039	188.800000
859.685425	190.600000
859.718811	187.800000
859.752197	183.400000
859.785583	203.000000
859.819031	202.500000
859.852356	197.700000
859.885742	190.600000
859.919067	194.900000
859.952454	192.800000
859.985901	200.000000
860.019287	193.200000
860.052612	0.000000
860.085999	0.000000
860.119324	0.000000
860.152710	0.000000
860.186096	0.000000
860.219421	0.000000
860.252808	0.000000
860.286133	0.000000
860.319519	0.000000
860.352905	0.000000
860.386292	0.000000
860.419617	0.000000
860.452942	0.000000
860.486267	0.000000
860.519653	0.000000
860.553040	0.000000
860.586365	0.000000
860.619690	0.000000
860.653076	0.000000
860.686340	0.000000
860.719727	0.000000
860.753113	0.000000
860.786377	0.000000
860.819763	0.000000
860.853027	0.000000
860.886414	0.000000
860.919739	0.000000
860.953125	0.000000
860.986389	0.000000
861.019714	0.000000
861.053040	0.000000
861.086365	0.000000
861.119690	0.000000
861.153076	0.000000
861.186340	0.000000
861.219666	0.000000
861.252930	0.000000
861.286316	0.000000
861.319641	0.000000
861.352905	0.000000
861.386230	0.000000
861.419495	0.000000
861.452820	0.000000
861.486145	0.000000
861.519470	0.000000
861.552734	0.000000
861.586060	0.000000
861.619324	0.000000
861.652649	0.000000
861.685974	0.000000
861.719238	0.000000
861.752563	0.000000
861.785828	0.000000
861.819092	0.000000
861.852417	0.000000
861.885742	0.000000
861.918945	0.000000
861.952271	0.000000
861.985535	0.000000
862.018799	0.000000
862.052124	0.000000
862.085449	0.000000
862.118652	0.000000
862.151978	0.000000
862.185181	0.000000
862.218506	0.000000
862.251770	0.000000
862.285034	0.000000
862.318298	0.000000
862.351562	0.000000
862.384827	0.000000
862.418091	0.000000
862.451355	0.000000
862.484619	0.000000
862.517883	0.000000
862.551086	0.000000
862.584351	0.000000
862.617676	0.000000
862.650940	0.000000
862.684143	0.000000
862.717407	0.000000
862.750610	0.000000
862.783875	0.000000
862.817139	0.000000
862.850342	0.000000
862.883606	0.000000
862.916870	0.000000
862.950073	0.000000
862.983337	0.000000
863.016602	0.000000
863.049805	0.000000
863.083069	0.000000
863.116211	0.000000
863.149475	0.000000
863.182739	0.000000
863.216003	0.000000
863.249146	0.000000
863.282410	0.000000
863.315613	0.000000
863.348816	0.000000
863.382080	0.000000
863.415222	0.000000
863.448486	0.000000
863.481689	0.000000
863.514893	0.000000
863.548157	0.000000
863.581360	0.000000
863.614502	0.000000
863.647766	0.000000
863.680908	0.000000
863.714172	0.000000
863.747375	0.000000
863.780579	0.000000
863.813721	0.000000
863.846985	0.000000
863.880127	0.000000
863.913330	0.000000
863.946533	0.000000
863.979675	0.000000
864.012939	0.000000
