Model Number: SPM-001-M   
Serial Number: 10090201
Firmware Version: 004.17.6
Exposure Time: 500000.000000us
Data Taken on: 10-03-2021 12:20:39.982
Wavelength	Amplitude
733.770752	0.000000
733.808716	0.000000
733.846619	0.000000
733.884583	0.000000
733.922546	0.000000
733.960449	0.000000
733.998413	0.000000
734.036377	0.000000
734.074219	0.000000
734.112183	0.000000
734.150085	0.000000
734.188049	0.000000
734.226013	0.000000
734.263916	0.000000
734.301819	0.000000
734.339783	0.000000
734.377686	0.000000
734.415588	0.000000
734.453552	0.000000
734.491455	0.000000
734.529419	0.000000
734.567322	0.000000
734.605225	0.000000
734.643127	0.000000
734.681091	0.000000
734.718994	0.000000
734.756897	0.000000
734.794800	0.000000
734.832703	0.000000
734.870667	0.000000
734.908508	0.000000
734.946472	0.000000
734.984375	0.000000
735.022278	0.000000
735.060181	0.000000
735.098083	0.000000
735.135986	0.000000
735.173889	0.000000
735.211792	0.000000
735.249695	0.000000
735.287598	0.000000
735.325439	0.000000
735.363403	0.000000
735.401306	0.000000
735.439148	0.000000
735.477051	0.000000
735.515015	0.000000
735.552856	0.000000
735.590759	0.000000
735.628662	0.000000
735.666504	0.000000
735.704407	0.000000
735.742310	0.000000
735.780212	0.000000
735.818115	0.000000
735.856018	0.000000
735.893860	0.000000
735.931763	0.000000
735.969604	0.000000
736.007507	0.000000
736.045410	0.000000
736.083252	0.000000
736.121094	0.000000
736.158997	0.000000
736.196838	0.000000
736.234741	0.000000
736.272644	0.000000
736.310486	0.000000
736.348389	0.000000
736.386230	0.000000
736.424072	0.000000
736.461975	0.000000
736.499878	0.000000
736.537720	0.000000
736.575562	0.000000
736.613403	0.000000
736.651306	0.000000
736.689148	0.000000
736.726990	0.000000
736.764893	0.000000
736.802734	0.000000
736.840576	0.000000
736.878418	0.000000
736.916321	0.000000
736.954102	0.000000
736.992004	0.000000
737.029846	0.000000
737.067688	0.000000
737.105530	0.000000
737.143372	0.000000
737.181213	0.000000
737.219116	0.000000
737.256897	0.000000
737.294739	0.000000
737.332642	0.000000
737.370422	0.000000
737.408325	0.000000
737.446167	0.000000
737.483948	0.000000
737.521790	0.000000
737.559692	0.000000
737.597473	0.000000
737.635315	0.000000
737.673157	0.000000
737.710999	0.000000
737.748840	0.000000
737.786621	0.000000
737.824463	0.000000
737.862305	0.000000
737.900085	0.000000
737.937927	0.000000
737.975769	0.000000
738.013550	0.000000
738.051392	0.000000
738.089233	0.000000
738.127014	0.000000
738.164856	0.000000
738.202698	0.000000
738.240479	0.000000
738.278320	0.000000
738.316162	0.000000
738.353943	0.000000
738.391785	0.000000
738.429565	0.000000
738.467407	0.000000
738.505188	0.000000
738.542969	0.000000
738.580811	0.000000
738.618652	0.000000
738.656372	0.000000
738.694214	0.000000
738.732056	0.000000
738.769836	0.000000
738.807617	0.000000
738.845459	0.000000
738.883240	0.000000
738.921021	0.000000
738.958862	0.000000
738.996582	0.000000
739.034424	0.000000
739.072205	0.000000
739.109985	0.000000
739.147827	0.000000
739.185547	0.000000
739.223389	0.000000
739.261169	0.000000
739.298889	0.000000
739.336731	0.000000
739.374512	0.000000
739.412292	0.000000
739.450073	0.000000
739.487854	0.000000
739.525635	0.000000
739.563416	0.000000
739.601135	0.000000
739.638977	0.000000
739.676758	0.000000
739.714478	0.000000
739.752258	0.000000
739.790100	0.000000
739.827820	0.000000
739.865601	0.000000
739.903381	0.000000
739.941101	0.000000
739.978882	193.600000
740.016724	191.900000
740.054443	196.900000
740.092224	190.300000
740.130005	189.500000
740.167725	188.800000
740.205505	186.800000
740.243225	199.700000
740.281006	193.800000
740.318787	185.000000
740.356506	197.300000
740.394287	197.500000
740.432068	187.000000
740.469727	186.800000
740.507507	196.900000
740.545288	192.500000
740.583008	196.200000
740.620789	192.800000
740.658569	185.000000
740.696228	191.700000
740.734009	199.300000
740.771790	180.400000
740.809509	197.200000
740.847229	188.200000
740.884949	188.700000
740.922729	183.400000
740.960449	191.100000
740.998169	187.600000
741.035950	189.400000
741.073669	194.100000
741.111389	193.400000
741.149170	200.300000
741.186890	204.700000
741.224609	196.700000
741.262329	194.400000
741.300110	201.800000
741.337769	187.600000
741.375549	185.800000
741.413208	194.900000
741.450989	187.100000
741.488708	191.400000
741.526367	188.900000
741.564148	197.200000
741.601868	196.400000
741.639526	193.900000
741.677307	194.100000
741.715027	196.300000
741.752686	187.300000
741.790466	199.500000
741.828186	195.400000
741.865845	187.600000
741.903564	183.500000
741.941345	194.200000
741.979004	189.100000
742.016724	195.600000
742.054382	192.700000
742.092102	198.700000
742.129822	183.900000
742.167480	189.700000
742.205200	193.700000
742.242920	194.700000
742.280640	196.800000
742.318359	187.800000
742.356079	188.500000
742.393738	196.100000
742.431396	193.600000
742.469116	195.700000
742.506775	183.200000
742.544495	195.400000
742.582214	196.100000
742.619873	191.900000
742.657593	200.500000
742.695251	196.700000
742.732971	191.700000
742.770630	192.500000
742.808289	192.400000
742.846008	191.200000
742.883728	196.100000
742.921326	191.300000
742.959045	191.500000
742.996765	191.600000
743.034424	193.600000
743.072083	189.300000
743.109802	194.200000
743.147400	184.700000
743.185120	194.400000
743.222839	190.300000
743.260437	200.400000
743.298157	194.400000
743.335754	185.700000
743.373474	189.500000
743.411133	185.200000
743.448792	192.900000
743.486450	193.900000
743.524170	183.200000
743.561768	192.000000
743.599487	197.800000
743.637146	204.000000
743.674744	190.100000
743.712463	190.100000
743.750122	193.100000
743.787720	194.900000
743.825439	185.900000
743.863037	190.000000
743.900696	193.100000
743.938416	217.100000
743.976013	192.700000
744.013672	202.000000
744.051331	197.600000
744.088928	201.100000
744.126587	199.100000
744.164307	193.300000
744.201904	190.200000
744.239563	195.100000
744.277222	194.900000
744.314819	194.300000
744.352478	200.600000
744.390137	194.500000
744.427734	195.800000
744.465393	190.000000
744.502991	188.100000
744.540649	196.700000
744.578308	195.200000
744.615906	187.200000
744.653564	184.400000
744.691223	195.800000
744.728821	186.200000
744.766418	192.400000
744.804077	195.800000
744.841675	189.700000
744.879333	187.200000
744.916992	190.300000
744.954529	190.900000
744.992187	197.300000
745.029785	191.400000
745.067444	188.300000
745.105042	193.800000
745.142639	194.600000
745.180298	203.200000
745.217896	190.900000
745.255493	191.900000
745.293152	195.000000
745.330750	197.000000
745.368347	200.400000
745.405945	197.200000
745.443604	191.500000
745.481140	196.100000
745.518799	191.300000
745.556396	195.800000
745.593994	197.600000
745.631592	192.200000
745.669189	186.800000
745.706787	193.800000
745.744385	188.800000
745.781982	194.600000
745.819580	190.800000
745.857178	190.900000
745.894775	192.800000
745.932373	193.800000
745.969971	193.900000
746.007568	183.800000
746.045166	202.900000
746.082764	198.400000
746.120300	196.900000
746.157898	196.000000
746.195557	191.400000
746.233093	186.600000
746.270691	195.700000
746.308228	194.300000
746.345825	199.100000
746.383423	196.600000
746.420959	188.200000
746.458557	188.800000
746.496155	190.700000
746.533691	191.500000
746.571289	188.300000
746.608887	192.600000
746.646423	194.900000
746.684021	193.700000
746.721619	191.000000
746.759155	193.600000
746.796753	187.800000
746.834351	184.100000
746.871826	190.400000
746.909424	198.100000
746.946960	194.900000
746.984558	190.000000
747.022156	192.000000
747.059631	199.300000
747.097229	195.300000
747.134827	190.600000
747.172363	202.000000
747.209900	193.700000
747.247498	188.000000
747.285034	199.400000
747.322571	201.800000
747.360168	190.100000
747.397644	185.600000
747.435242	195.600000
747.472778	200.000000
747.510315	190.300000
747.547913	190.300000
747.585388	199.600000
747.622925	191.800000
747.660522	183.500000
747.697998	187.700000
747.735596	192.800000
747.773132	189.300000
747.810669	193.200000
747.848206	196.900000
747.885742	188.000000
747.923279	187.300000
747.960815	195.300000
747.998352	194.100000
748.035889	199.100000
748.073425	196.700000
748.110901	191.300000
748.148437	187.300000
748.185974	194.000000
748.223511	202.600000
748.261047	195.200000
748.298584	192.700000
748.336060	193.300000
748.373596	194.800000
748.411133	210.800000
748.448608	187.900000
748.486145	198.100000
748.523682	199.800000
748.561218	199.100000
748.598755	192.800000
748.636292	198.300000
748.673706	188.900000
748.711243	200.400000
748.748718	194.600000
748.786255	194.200000
748.823792	191.500000
748.861267	188.000000
748.898804	194.000000
748.936340	195.800000
748.973816	190.300000
749.011292	199.800000
749.048828	194.900000
749.086304	195.800000
749.123840	204.500000
749.161316	187.700000
749.198792	203.200000
749.236328	200.000000
749.273743	193.400000
749.311279	191.200000
749.348816	195.900000
749.386230	193.000000
749.423767	182.500000
749.461304	194.900000
749.498718	194.800000
749.536255	200.000000
749.573730	203.800000
749.611206	198.600000
749.648682	193.600000
749.686218	193.900000
749.723633	197.000000
749.761169	190.700000
749.798645	187.900000
749.836060	191.000000
749.873596	189.800000
749.911011	192.900000
749.948547	201.500000
749.986023	192.900000
750.023437	193.400000
750.060913	184.700000
750.098450	188.200000
750.135864	191.100000
750.173340	193.800000
750.210815	197.300000
750.248291	188.800000
750.285767	191.700000
750.323242	200.500000
750.360657	195.200000
750.398132	188.100000
750.435608	195.900000
750.473022	191.300000
750.510498	186.900000
750.547974	188.800000
750.585449	189.300000
750.622925	182.800000
750.660339	202.500000
750.697815	193.700000
750.735291	191.600000
750.772644	193.800000
750.810120	192.600000
750.847595	195.100000
750.885010	188.300000
750.922485	202.900000
750.959961	191.100000
750.997375	200.800000
751.034851	195.500000
751.072266	197.300000
751.109680	186.700000
751.147156	199.100000
751.184570	196.900000
751.221985	192.800000
751.259460	183.100000
751.296875	192.500000
751.334290	194.900000
751.371765	198.200000
751.409180	196.300000
751.446594	198.200000
751.484070	196.700000
751.521423	194.900000
751.558899	195.300000
751.596375	201.500000
751.633728	201.700000
751.671204	207.100000
751.708618	188.800000
751.746033	192.800000
751.783447	188.000000
751.820801	189.400000
751.858276	196.900000
751.895691	191.300000
751.933105	192.800000
751.970520	188.300000
752.007935	192.200000
752.045349	197.300000
752.082764	193.000000
752.120178	190.600000
752.157532	191.200000
752.195007	190.300000
752.232422	197.600000
752.269775	197.100000
752.307190	197.600000
752.344543	188.700000
752.382019	193.100000
752.419434	190.900000
752.456787	195.200000
752.494202	195.900000
752.531616	194.500000
752.568970	197.800000
752.606384	195.000000
752.643799	194.000000
752.681152	202.200000
752.718567	195.000000
752.755981	185.200000
752.793335	195.400000
752.830750	183.800000
752.868164	199.000000
752.905518	188.800000
752.942932	196.500000
752.980225	188.700000
753.017639	198.500000
753.055054	192.300000
753.092407	197.100000
753.129822	199.100000
753.167175	204.000000
753.204529	191.700000
753.241943	190.200000
753.279358	187.200000
753.316650	198.200000
753.354065	194.700000
753.391479	197.000000
753.428772	202.100000
753.466187	198.300000
753.503479	186.900000
753.540894	192.300000
753.578308	187.500000
753.615601	187.300000
753.653015	192.900000
753.690369	193.900000
753.727722	187.700000
753.765076	186.700000
753.802490	187.700000
753.839783	185.400000
753.877136	189.700000
753.914551	211.200000
753.951843	187.800000
753.989258	198.100000
754.026611	193.800000
754.063904	197.300000
754.101257	188.000000
754.138611	185.600000
754.175964	192.400000
754.213318	205.500000
754.250610	185.400000
754.288025	190.700000
754.325378	186.500000
754.362671	199.500000
754.400024	189.900000
754.437378	202.200000
754.474670	203.100000
754.512085	191.000000
754.549438	193.700000
754.586731	190.400000
754.624084	191.500000
754.661438	188.300000
754.698730	200.900000
754.736084	191.900000
754.773376	191.800000
754.810730	196.400000
754.848083	191.700000
754.885315	196.800000
754.922668	186.300000
754.960022	187.600000
754.997314	198.700000
755.034668	194.400000
755.072021	196.000000
755.109253	191.000000
755.146606	201.700000
755.183960	191.600000
755.221252	204.200000
755.258545	199.500000
755.295898	201.900000
755.333191	201.100000
755.370544	198.200000
755.407776	194.600000
755.445129	198.200000
755.482422	199.400000
755.519714	192.300000
755.557068	186.900000
755.594360	187.200000
755.631653	198.600000
755.668945	204.700000
755.706299	198.600000
755.743530	208.600000
755.780884	205.000000
755.818176	202.700000
755.855408	200.500000
755.892761	200.100000
755.930054	196.600000
755.967346	198.400000
756.004639	200.600000
756.041870	198.700000
756.079224	201.200000
756.116516	194.300000
756.153748	201.500000
756.191040	206.600000
756.228394	200.900000
756.265625	194.300000
756.302917	197.400000
756.340210	196.000000
756.377441	203.500000
756.414795	204.900000
756.452087	199.100000
756.489319	191.800000
756.526611	201.400000
756.563843	201.000000
756.601135	210.000000
756.638428	207.000000
756.675659	199.700000
756.712952	203.900000
756.750244	204.100000
756.787476	200.200000
756.824768	208.500000
756.862061	198.300000
756.899292	248.400000
756.936584	203.400000
756.973816	212.500000
757.011047	214.900000
757.048340	203.500000
757.085632	201.600000
757.122864	219.100000
757.160156	198.600000
757.197327	206.700000
757.234619	207.200000
757.271912	203.500000
757.309082	207.500000
757.346375	201.600000
757.383667	209.100000
757.420837	206.300000
757.458130	204.800000
757.495422	202.700000
757.532593	206.000000
757.569885	199.000000
757.607117	200.200000
757.644348	207.400000
757.681580	216.900000
757.718811	192.900000
757.756042	203.700000
757.793335	203.100000
757.830505	207.100000
757.867798	201.000000
757.905029	201.300000
757.942200	208.300000
757.979492	201.800000
758.016724	204.300000
758.053894	202.900000
758.091187	224.900000
758.128418	206.500000
758.165588	204.200000
758.202820	217.500000
758.240112	209.600000
758.277283	217.700000
758.314514	208.400000
758.351685	205.300000
758.388916	217.500000
758.426147	215.500000
758.463379	218.200000
758.500610	212.700000
758.537842	208.400000
758.575012	216.100000
758.612244	204.600000
758.649475	224.600000
758.686646	202.800000
758.723877	218.500000
758.761108	217.700000
758.798279	209.900000
758.835510	212.100000
758.872742	219.400000
758.909851	212.600000
758.947083	216.500000
758.984253	214.200000
759.021484	218.700000
759.058716	215.100000
759.095886	218.000000
759.133057	212.100000
759.170288	217.200000
759.207458	208.100000
759.244690	225.100000
759.281860	222.000000
759.319031	215.100000
759.356262	211.400000
759.393433	212.200000
759.430603	212.400000
759.467773	213.700000
759.505005	220.500000
759.542175	220.900000
759.579346	213.500000
759.616516	216.200000
759.653687	215.700000
759.690918	209.200000
759.728027	216.100000
759.765259	216.300000
759.802429	217.300000
759.839539	219.000000
759.876770	222.500000
759.913940	226.400000
759.951111	217.200000
759.988281	215.300000
760.025452	214.300000
760.062561	211.300000
760.099792	226.200000
760.136963	221.300000
760.174072	216.900000
760.211243	211.300000
760.248413	213.600000
760.285583	213.600000
760.322754	230.000000
760.359863	224.800000
760.397034	226.600000
760.434204	216.800000
760.471375	219.600000
760.508545	216.700000
760.545715	219.300000
760.582825	212.400000
760.619995	226.300000
760.657166	212.400000
760.694275	226.400000
760.731445	220.500000
760.768555	223.400000
760.805664	223.500000
760.842834	223.600000
760.879944	224.100000
760.917114	224.800000
760.954285	220.900000
760.991394	217.400000
761.028564	228.200000
761.065674	226.800000
761.102783	219.700000
761.139954	230.400000
761.177124	226.200000
761.214172	233.600000
761.251343	223.100000
761.288452	225.700000
761.325562	229.100000
761.362732	223.800000
761.399841	225.400000
761.436951	229.800000
761.474121	224.400000
761.511169	229.100000
761.548340	232.500000
761.585449	232.100000
761.622559	231.900000
761.659668	230.700000
761.696838	238.900000
761.733887	234.500000
761.771057	229.900000
761.808167	231.700000
761.845276	238.000000
761.882385	244.900000
761.919434	234.700000
761.956604	256.000000
761.993713	232.600000
762.030762	241.900000
762.067871	236.800000
762.105042	235.600000
762.142090	244.200000
762.179199	240.800000
762.216309	244.700000
762.253418	255.100000
762.290527	250.600000
762.327637	246.100000
762.364685	235.100000
762.401794	245.500000
762.438904	244.200000
762.475952	237.400000
762.513062	238.500000
762.550110	236.800000
762.587219	255.300000
762.624329	252.400000
762.661377	248.600000
762.698486	245.100000
762.735596	246.900000
762.772644	238.500000
762.809753	239.300000
762.846863	245.100000
762.883911	251.600000
762.921021	250.900000
762.958069	249.000000
762.995117	255.700000
763.032227	258.300000
763.069336	247.100000
763.106323	244.300000
763.143433	241.800000
763.180481	252.200000
763.217590	251.800000
763.254639	248.900000
763.291687	251.800000
763.328735	258.900000
763.365845	251.800000
763.402893	248.800000
763.439941	255.000000
763.477051	257.700000
763.514038	259.400000
763.551147	251.400000
763.588196	257.200000
763.625244	253.900000
763.662292	261.900000
763.699402	265.200000
763.736389	262.500000
763.773499	271.000000
763.810486	263.700000
763.847534	260.000000
763.884644	264.800000
763.921631	259.500000
763.958679	272.500000
763.995728	258.600000
764.032776	272.000000
764.069824	256.300000
764.106873	266.800000
764.143860	271.600000
764.180969	264.100000
764.218018	273.500000
764.255005	266.100000
764.292053	267.600000
764.329102	279.500000
764.366089	276.700000
764.403137	277.000000
764.440125	264.900000
764.477173	270.800000
764.514221	273.000000
764.551208	270.300000
764.588257	264.600000
764.625305	276.700000
764.662292	281.200000
764.699341	287.700000
764.736389	275.700000
764.773376	295.900000
764.810425	282.500000
764.847473	290.000000
764.884399	283.300000
764.921448	290.800000
764.958435	289.400000
764.995483	278.500000
765.032532	296.400000
765.069458	281.600000
765.106506	281.900000
765.143555	280.100000
765.180481	286.300000
765.217529	294.800000
765.254578	278.800000
765.291504	288.600000
765.328552	285.200000
765.365540	282.900000
765.402527	299.200000
765.439575	283.600000
765.476501	280.700000
765.513550	280.000000
765.550537	287.400000
765.587463	293.900000
765.624512	286.900000
765.661499	276.200000
765.698486	298.000000
765.735474	284.300000
765.772461	289.400000
765.809448	296.600000
765.846436	295.300000
765.883423	297.600000
765.920410	294.500000
765.957397	286.800000
765.994385	293.500000
766.031311	302.400000
766.068359	297.800000
766.105286	296.200000
766.142273	305.200000
766.179260	298.800000
766.216187	293.400000
766.253174	289.500000
766.290161	299.600000
766.327148	300.000000
766.364136	303.900000
766.401123	318.300000
766.438049	298.100000
766.475037	311.300000
766.512024	307.800000
766.548950	320.000000
766.585937	316.400000
766.622864	313.000000
766.659790	309.800000
766.696777	300.900000
766.733704	318.100000
766.770691	309.800000
766.807678	325.800000
766.844604	320.300000
766.881531	319.900000
766.918518	326.600000
766.955444	327.700000
766.992432	321.100000
767.029358	324.300000
767.066284	330.000000
767.103271	323.300000
767.140198	355.100000
767.177124	341.900000
767.214050	333.700000
767.251038	337.300000
767.287964	332.700000
767.324890	328.600000
767.361816	334.700000
767.398743	343.000000
767.435730	336.800000
767.472595	339.400000
767.509583	347.400000
767.546509	335.400000
767.583374	345.300000
767.620361	335.400000
767.657288	342.900000
767.694214	343.600000
767.731140	343.900000
767.768066	346.100000
767.804993	350.400000
767.841919	341.400000
767.878845	349.900000
767.915710	355.500000
767.952698	351.800000
767.989563	353.600000
768.026489	356.000000
768.063416	349.800000
768.100281	351.000000
768.137207	362.600000
768.174133	361.800000
768.211060	360.700000
768.247986	361.300000
768.284912	359.000000
768.321777	365.400000
768.358704	362.400000
768.395630	365.000000
768.432495	357.900000
768.469421	367.700000
768.506348	373.000000
768.543152	378.600000
768.580078	377.100000
768.616943	378.100000
768.653870	379.000000
768.690796	378.400000
768.727661	376.400000
768.764587	379.500000
768.801453	374.300000
768.838318	385.400000
768.875244	382.900000
768.912109	390.400000
768.948975	382.200000
768.985901	385.800000
769.022766	387.600000
769.059631	392.800000
769.096558	387.700000
769.133362	390.700000
769.170288	390.900000
769.207214	390.500000
769.244019	399.500000
769.280945	394.100000
769.317810	404.400000
769.354675	395.900000
769.391541	407.400000
769.428406	402.300000
769.465271	417.700000
769.502136	404.000000
769.539062	409.300000
769.575867	404.300000
769.612732	410.100000
769.649597	416.300000
769.686462	421.000000
769.723328	413.100000
769.760193	412.100000
769.797058	412.700000
769.833923	425.000000
769.870728	420.700000
769.907593	426.300000
769.944519	423.000000
769.981323	426.700000
770.018188	426.000000
770.055054	423.300000
770.091858	423.900000
770.128723	436.900000
770.165588	443.000000
770.202393	425.400000
770.239258	437.900000
770.276062	433.700000
770.312927	435.300000
770.349792	442.400000
770.386597	441.300000
770.423462	449.700000
770.460327	457.100000
770.497131	441.800000
770.533997	432.400000
770.570862	454.000000
770.607605	452.700000
770.644470	447.100000
770.681335	449.100000
770.718140	445.400000
770.754944	437.900000
770.791809	440.800000
770.828613	444.200000
770.865479	444.900000
770.902222	459.200000
770.939087	449.300000
770.975952	439.500000
771.012695	447.000000
771.049561	465.700000
771.086365	450.700000
771.123169	447.800000
771.159973	450.700000
771.196838	450.000000
771.233582	454.400000
771.270447	458.900000
771.307251	457.500000
771.344055	457.600000
771.380859	461.000000
771.417664	452.700000
771.454468	460.800000
771.491272	463.300000
771.528076	463.500000
771.564880	460.400000
771.601685	473.100000
771.638428	464.000000
771.675293	467.700000
771.712097	461.100000
771.748840	478.500000
771.785645	468.400000
771.822449	473.600000
771.859253	475.800000
771.896057	471.300000
771.932861	483.100000
771.969604	476.300000
772.006409	468.400000
772.043213	485.700000
772.079956	483.700000
772.116760	473.300000
772.153503	480.800000
772.190308	490.500000
772.227112	482.200000
772.263855	477.200000
772.300659	486.200000
772.337463	494.000000
772.374207	485.900000
772.411011	482.400000
772.447754	487.600000
772.484497	508.800000
772.521301	501.000000
772.558105	497.800000
772.594849	500.200000
772.631592	507.100000
772.668396	504.200000
772.705139	514.600000
772.741882	511.000000
772.778625	526.800000
772.815430	528.400000
772.852173	523.000000
772.888916	528.700000
772.925720	533.900000
772.962463	541.400000
772.999207	536.500000
773.035950	541.100000
773.072754	544.500000
773.109436	537.700000
773.146240	541.100000
773.182922	535.100000
773.219727	551.700000
773.256470	543.300000
773.293152	532.900000
773.329956	541.400000
773.366699	547.700000
773.403381	539.500000
773.440186	552.100000
773.476929	553.600000
773.513611	546.200000
773.550354	549.600000
773.587158	550.800000
773.623840	546.300000
773.660583	561.800000
773.697327	577.400000
773.734009	562.400000
773.770813	559.400000
773.807495	558.300000
773.844238	565.600000
773.880981	581.700000
773.917664	580.200000
773.954407	584.500000
773.991150	574.100000
774.027832	580.200000
774.064575	572.900000
774.101318	583.500000
774.138000	594.500000
774.174744	587.100000
774.211487	589.400000
774.248108	580.700000
774.284851	583.600000
774.321594	595.400000
774.358276	597.300000
774.395020	608.500000
774.431702	606.800000
774.468384	599.000000
774.505127	594.600000
774.541809	609.900000
774.578491	624.800000
774.615234	625.000000
774.651917	617.700000
774.688599	619.600000
774.725342	629.500000
774.762024	627.500000
774.798706	636.300000
774.835449	630.500000
774.872070	643.300000
774.908813	635.300000
774.945496	635.600000
774.982178	637.200000
775.018860	644.700000
775.055542	646.300000
775.092224	646.500000
775.128967	653.500000
775.165588	650.800000
775.202271	639.900000
775.239014	656.500000
775.275635	658.400000
775.312317	656.300000
775.349060	660.200000
775.385681	658.300000
775.422363	649.200000
775.459045	663.600000
775.495667	663.000000
775.532410	669.900000
775.569092	670.000000
775.605713	670.000000
775.642395	667.400000
775.679016	675.300000
775.715698	675.500000
775.752380	682.800000
775.789001	678.000000
775.825684	672.300000
775.862366	675.200000
775.898987	688.300000
775.935669	678.600000
775.972351	701.200000
776.008972	696.900000
776.045654	694.400000
776.082336	687.300000
776.118958	689.500000
776.155640	693.800000
776.192322	704.100000
776.228882	707.200000
776.265564	703.800000
776.302185	699.900000
776.338867	706.000000
776.375488	692.800000
776.412109	707.900000
776.448792	711.400000
776.485413	715.400000
776.522034	706.300000
776.558716	698.900000
776.595337	699.400000
776.631958	708.400000
776.668579	712.700000
776.705261	713.600000
776.741882	706.900000
776.778503	705.500000
776.815186	701.200000
776.851746	711.600000
776.888367	713.500000
776.924988	721.000000
776.961609	714.200000
776.998291	711.700000
777.034851	698.600000
777.071472	718.000000
777.108154	716.200000
777.144714	727.000000
777.181335	725.300000
777.218018	714.800000
777.254578	723.500000
777.291199	722.200000
777.327759	730.500000
777.364380	732.300000
777.401062	742.900000
777.437622	756.800000
777.474243	737.300000
777.510864	749.500000
777.547424	745.900000
777.584045	749.800000
777.620667	755.400000
777.657227	758.900000
777.693848	761.000000
777.730469	776.400000
777.767029	764.300000
777.803650	767.600000
777.840271	764.800000
777.876831	766.800000
777.913452	773.900000
777.950012	754.500000
777.986633	756.200000
778.023193	753.800000
778.059753	755.000000
778.096375	758.400000
778.132996	770.300000
778.169556	762.400000
778.206116	759.700000
778.242737	765.000000
778.279297	767.600000
778.315857	766.600000
778.352478	772.700000
778.389038	782.000000
778.425598	783.100000
778.462219	795.300000
778.498718	790.800000
778.535339	803.200000
778.571838	803.400000
778.608459	811.900000
778.645020	803.500000
778.681580	818.900000
778.718140	819.300000
778.754761	817.900000
778.791260	822.500000
778.827881	833.600000
778.864441	826.500000
778.900940	836.100000
778.937561	834.500000
778.974121	830.100000
779.010620	818.200000
779.047241	830.800000
779.083801	836.500000
779.120300	835.600000
779.156860	845.300000
779.193359	839.800000
779.229980	838.600000
779.266541	848.500000
779.303040	856.100000
779.339600	847.600000
779.376160	841.000000
779.412659	850.400000
779.449219	845.100000
779.485779	854.000000
779.522278	859.000000
779.558838	860.300000
779.595398	865.200000
779.631897	858.900000
779.668457	854.500000
779.705017	867.100000
779.741516	861.500000
779.778076	852.200000
779.814575	862.900000
779.851074	874.000000
779.887634	870.100000
779.924133	878.800000
779.960693	866.700000
779.997253	878.100000
780.033691	886.900000
780.070251	885.600000
780.106812	897.600000
780.143250	886.500000
780.179810	884.700000
780.216370	894.500000
780.252808	902.300000
780.289368	917.400000
780.325867	916.400000
780.362366	913.000000
780.398865	926.900000
780.435364	914.900000
780.471863	934.500000
780.508423	928.800000
780.544861	942.800000
780.581421	946.500000
780.617920	936.400000
780.654419	932.700000
780.690918	946.700000
780.727417	952.400000
780.763916	948.300000
780.800415	959.300000
780.836914	939.600000
780.873352	947.800000
780.909912	933.400000
780.946411	947.100000
780.982849	955.800000
781.019348	971.700000
781.055786	968.600000
781.092346	961.100000
781.128845	972.500000
781.165283	979.900000
781.201782	988.200000
781.238281	989.300000
781.274719	991.400000
781.311218	983.600000
781.347717	995.400000
781.384155	982.300000
781.420654	985.800000
781.457092	995.100000
781.493591	995.400000
781.530090	988.000000
781.566528	991.500000
781.602966	995.800000
781.639465	991.100000
781.675903	992.700000
781.712402	1005.900000
781.748901	1006.100000
781.785278	993.200000
781.821777	1004.900000
781.858276	996.800000
781.894714	1015.800000
781.931152	1003.100000
781.967651	1013.400000
782.004089	1003.700000
782.040527	1014.500000
782.076965	1006.600000
782.113403	1009.500000
782.149902	1019.500000
782.186340	1011.400000
782.222778	1025.900000
782.259277	1010.200000
782.295654	1007.000000
782.332092	1017.100000
782.368591	1011.000000
782.404968	1002.600000
782.441467	1013.100000
782.477905	1013.400000
782.514282	1002.100000
782.550781	1028.900000
782.587219	1023.500000
782.623596	1026.000000
782.660095	1030.600000
782.696472	1039.600000
782.732910	1039.100000
782.769348	1045.000000
782.805786	1061.800000
782.842224	1058.000000
782.878662	1052.400000
782.915039	1052.500000
782.951477	1054.800000
782.987915	1045.200000
783.024292	1050.600000
783.060730	1051.600000
783.097168	1043.700000
783.133545	1033.900000
783.169983	1030.100000
783.206421	1020.200000
783.242798	1021.000000
783.279236	1009.600000
783.315613	1008.300000
783.352051	1002.300000
783.388489	995.300000
783.424866	979.900000
783.461304	991.600000
783.497681	998.200000
783.534058	987.000000
783.570496	983.000000
783.606934	980.400000
783.643250	985.000000
783.679687	997.500000
783.716125	996.400000
783.752441	1011.800000
783.788879	1026.500000
783.825317	1034.500000
783.861633	1042.900000
783.898071	1045.400000
783.934448	1062.400000
783.970825	1080.000000
784.007263	1077.600000
784.043579	1079.600000
784.080017	1088.900000
784.116394	1081.200000
784.152710	1088.900000
784.189148	1097.700000
784.225525	1098.000000
784.261902	1081.800000
784.298279	1081.100000
784.334656	1087.900000
784.371033	1078.700000
784.407410	1085.400000
784.443787	1072.300000
784.480164	1052.500000
784.516541	1033.900000
784.552856	1037.000000
784.589233	1025.400000
784.625610	1028.600000
784.661987	1061.600000
784.698364	1044.700000
784.734741	1030.400000
784.771057	1028.600000
784.807434	1038.200000
784.843811	1057.800000
784.880127	1055.800000
784.916504	1085.100000
784.952881	1086.400000
784.989197	1080.800000
785.025574	1088.200000
785.061951	1092.400000
785.098267	1119.100000
785.134644	1118.900000
785.170959	1118.200000
785.207275	1123.100000
785.243652	1121.100000
785.279968	1104.100000
785.316345	1113.000000
785.352722	1111.800000
785.388977	1112.000000
785.425354	1085.500000
785.461731	1045.300000
785.498047	988.100000
785.534363	878.700000
785.570679	720.400000
785.606995	575.400000
785.643372	468.300000
785.679687	430.600000
785.716003	458.300000
785.752380	541.700000
785.788635	661.200000
785.825012	803.300000
785.861328	924.700000
785.897644	994.400000
785.933960	1048.500000
785.970337	1076.200000
786.006592	1105.200000
786.042908	1127.000000
786.079285	1141.900000
786.115540	1146.300000
786.151855	1150.500000
786.188171	1139.400000
786.224487	1143.200000
786.260803	1144.800000
786.297119	1163.400000
786.333435	1162.600000
786.369751	1159.000000
786.406006	1154.300000
786.442322	1140.100000
786.478638	1129.400000
786.514954	1150.300000
786.551270	1153.500000
786.587585	1162.700000
786.623840	1151.000000
786.660156	1143.000000
786.696472	1127.900000
786.732727	1123.100000
786.769043	1130.400000
786.805298	1124.500000
786.841614	1123.100000
786.877930	1133.200000
786.914124	1108.600000
786.950439	1128.200000
786.986755	1134.600000
787.023010	1149.700000
787.059326	1154.200000
787.095642	1155.100000
787.131836	1172.100000
787.168152	1157.300000
787.204468	1163.800000
787.240723	1185.000000
787.276978	1206.100000
787.313293	1213.100000
787.349548	1204.100000
787.385803	1211.100000
787.422058	1200.200000
787.458313	1205.200000
787.494629	1211.700000
787.530823	1207.800000
787.567139	1192.100000
787.603455	1179.700000
787.639648	1162.400000
787.675903	1170.800000
787.712219	1166.400000
787.748413	1170.300000
787.784729	1173.900000
787.820984	1157.700000
787.857178	1150.900000
787.893494	1146.100000
787.929749	1139.100000
787.965942	1144.600000
788.002258	1164.100000
788.038452	1169.100000
788.074707	1159.000000
788.110962	1163.000000
788.147217	1151.200000
788.183472	1164.100000
788.219727	1174.300000
788.255920	1194.400000
788.292175	1202.600000
788.328430	1195.800000
788.364624	1173.300000
788.400879	1171.000000
788.437134	1180.400000
788.473328	1175.900000
788.509583	1178.100000
788.545837	1167.600000
788.582031	1163.400000
788.618286	1145.100000
788.654480	1140.700000
788.690735	1153.100000
788.726990	1177.300000
788.763184	1169.400000
788.799377	1186.900000
788.835632	1169.500000
788.871826	1188.000000
788.908081	1184.800000
788.944336	1184.200000
788.980469	1206.600000
789.016724	1201.200000
789.052979	1198.700000
789.089111	1178.000000
789.125366	1179.800000
789.161621	1165.900000
789.197754	1180.700000
789.234009	1169.600000
789.270142	1154.900000
789.306396	1146.300000
789.342590	1133.100000
789.378784	1105.300000
789.414978	1104.600000
789.451233	1126.800000
789.487366	1130.500000
789.523621	1138.100000
789.559814	1125.200000
789.595947	1110.200000
789.632202	1120.000000
789.668335	1136.800000
789.704529	1156.200000
789.740784	1177.800000
789.776917	1178.000000
789.813110	1160.300000
789.849304	1179.400000
789.885498	1174.700000
789.921692	1196.000000
789.957886	1199.400000
789.994019	1205.400000
790.030212	1191.600000
790.066406	1197.700000
790.102539	1193.500000
790.138733	1205.200000
790.174927	1198.400000
790.211060	1213.400000
790.247253	1195.700000
790.283386	1177.800000
790.319580	1161.200000
790.355774	1148.000000
790.391907	1157.200000
790.428101	1182.200000
790.464294	1182.400000
790.500427	1181.200000
790.536621	1166.500000
790.572754	1152.200000
790.608887	1154.200000
790.645081	1167.000000
790.681274	1175.100000
790.717346	1170.900000
790.753540	1138.700000
790.789734	1066.500000
790.825867	1005.900000
790.862000	994.100000
790.898132	1026.600000
790.934265	1075.400000
790.970459	1122.700000
791.006592	1144.200000
791.042725	1145.500000
791.078918	1141.200000
791.114990	1146.900000
791.151184	1157.100000
791.187317	1182.300000
791.223389	1171.400000
791.259583	1155.600000
791.295715	1163.700000
791.331848	1166.900000
791.367981	1182.000000
791.404114	1190.300000
791.440247	1181.800000
791.476379	1182.000000
791.512451	1163.900000
791.548584	1163.500000
791.584778	1159.500000
791.620850	1183.400000
791.656982	1189.500000
791.693115	1175.600000
791.729187	1174.800000
791.765381	1169.700000
791.801514	1166.000000
791.837585	1164.200000
791.873718	1175.700000
791.909851	1190.100000
791.945923	1195.700000
791.982056	1162.800000
792.018188	1154.500000
792.054260	1162.000000
792.090393	1162.800000
792.126465	1160.000000
792.162598	1167.800000
792.198669	1154.700000
792.234741	1149.400000
792.270874	1137.900000
792.307007	1125.400000
792.343079	1136.600000
792.379150	1147.400000
792.415283	1137.200000
792.451355	1137.500000
792.487488	1111.900000
792.523560	1114.200000
792.559631	1117.700000
792.595764	1112.500000
792.631836	1119.200000
792.667908	1125.900000
792.703979	1110.400000
792.740051	1105.400000
792.776184	1115.300000
792.812256	1115.100000
792.848328	1126.500000
792.884399	1132.600000
792.920471	1128.400000
792.956543	1121.700000
792.992615	1118.400000
793.028748	1120.000000
793.064758	1117.100000
793.100830	1144.900000
793.136963	1155.900000
793.172974	1142.400000
793.209045	1131.700000
793.245178	1148.800000
793.281189	1128.500000
793.317261	1142.300000
793.353271	1144.200000
793.389404	1151.000000
793.425476	1141.500000
793.461487	1124.100000
793.497559	1118.200000
793.533630	1132.100000
793.569641	1134.900000
793.605713	1136.300000
793.641785	1137.600000
793.677795	1147.200000
793.713867	1132.800000
793.749878	1135.800000
793.785950	1149.400000
793.822021	1161.500000
793.858032	1132.700000
793.894104	1154.000000
793.930176	1136.500000
793.966187	1141.900000
794.002258	1127.800000
794.038269	1132.100000
794.074280	1128.300000
794.110352	1155.400000
794.146423	1127.300000
794.182373	1116.600000
794.218445	1110.800000
794.254517	1107.100000
794.290466	1085.300000
794.326538	1094.500000
794.362549	1095.500000
794.398560	1100.900000
794.434631	1102.900000
794.470581	1074.000000
794.506653	1064.000000
794.542664	1066.000000
794.578674	1071.600000
794.614685	1066.100000
794.650757	1062.400000
794.686707	1055.000000
794.722778	1047.900000
794.758789	1054.600000
794.794739	1064.200000
794.830811	1084.900000
794.866821	1110.900000
794.902771	1096.000000
794.938843	1085.200000
794.974792	1078.400000
795.010803	1081.600000
795.046814	1082.700000
795.082825	1072.300000
795.118835	1087.300000
795.154846	1065.700000
795.190796	1073.800000
795.226807	1045.800000
795.262817	1055.200000
795.298767	1053.100000
795.334778	1053.600000
795.370850	1048.200000
795.406799	1047.100000
795.442810	1026.000000
795.478821	1022.800000
795.514709	1022.500000
795.550720	1041.700000
795.586670	1031.100000
795.622681	1026.200000
795.658691	1024.100000
795.694641	1022.700000
795.730652	1008.000000
795.766663	1016.800000
795.802551	1020.000000
795.838562	1035.700000
795.874573	1021.400000
795.910522	1015.400000
795.946472	1007.800000
795.982483	1014.100000
796.018433	1019.400000
796.054382	1028.300000
796.090393	1014.200000
796.126282	1005.500000
796.162292	991.000000
796.198242	985.900000
796.234192	988.000000
796.270203	989.300000
796.306091	994.800000
796.342041	1015.800000
796.378052	997.700000
796.413940	989.700000
796.449951	994.500000
796.485901	993.400000
796.521790	992.100000
796.557800	1010.200000
796.593689	1006.300000
796.629639	991.400000
796.665649	989.000000
796.701599	987.000000
796.737488	982.000000
796.773437	988.200000
796.809387	992.900000
796.845337	989.000000
796.881287	974.500000
796.917175	958.200000
796.953125	959.000000
796.989075	974.900000
797.024963	977.000000
797.060913	978.800000
797.096863	975.000000
797.132751	968.400000
797.168701	949.800000
797.204590	955.800000
797.240540	955.900000
797.276489	964.100000
797.312439	967.600000
797.348328	962.000000
797.384277	949.600000
797.420166	945.600000
797.456055	950.400000
797.492004	939.400000
797.527893	948.400000
797.563843	955.700000
797.599731	941.800000
797.635620	926.300000
797.671570	933.800000
797.707520	936.900000
797.743347	932.800000
797.779297	944.600000
797.815125	934.500000
797.851074	928.600000
797.887024	922.700000
797.922913	918.300000
797.958801	924.600000
797.994690	924.700000
798.030579	930.500000
798.066467	932.300000
798.102356	918.300000
798.138245	911.700000
798.174133	911.300000
798.210083	915.800000
798.245911	924.600000
798.281799	928.600000
798.317749	920.000000
798.353577	907.900000
798.389465	904.900000
798.425293	904.200000
798.461243	897.000000
798.497131	905.800000
798.532959	906.300000
798.568848	909.400000
798.604736	896.800000
798.640564	888.100000
798.676453	887.000000
798.712402	892.900000
798.748230	901.000000
798.784119	892.500000
798.820007	896.700000
798.855835	887.100000
798.891724	881.400000
798.927551	877.000000
798.963379	889.600000
798.999268	885.300000
799.035095	877.400000
799.070984	872.100000
799.106873	865.400000
799.142700	874.200000
799.178528	869.500000
799.214417	861.000000
799.250244	879.800000
799.286133	871.300000
799.321960	864.700000
799.357788	861.900000
799.393677	862.700000
799.429504	860.400000
799.465332	862.000000
799.501221	874.000000
799.537048	867.300000
799.572876	853.900000
799.608704	856.200000
799.644531	861.800000
799.680359	860.000000
799.716248	867.100000
799.752014	871.700000
799.787903	858.100000
799.823730	854.100000
799.859558	845.800000
799.895386	853.000000
799.931213	855.200000
799.967041	845.000000
800.002869	844.800000
800.038696	859.000000
800.074463	831.900000
800.110352	838.200000
800.146179	829.000000
800.181946	838.400000
800.217773	835.500000
800.253540	832.700000
800.289429	829.100000
800.325256	821.700000
800.361023	815.100000
800.396851	819.600000
800.432678	820.500000
800.468445	817.000000
800.504272	814.000000
800.540100	798.800000
800.575867	797.400000
800.611694	799.500000
800.647461	794.100000
800.683289	798.700000
800.719116	800.300000
800.754883	789.800000
800.790649	772.200000
800.826477	768.000000
800.862244	788.700000
800.898071	769.300000
800.933838	769.500000
800.969604	769.500000
801.005432	769.400000
801.041199	765.800000
801.076965	759.400000
801.112793	750.700000
801.148560	740.400000
801.184326	744.200000
801.220154	746.800000
801.255859	735.600000
801.291687	734.700000
801.327454	729.100000
801.363281	729.700000
801.398987	729.200000
801.434814	729.000000
801.470520	735.100000
801.506287	723.800000
801.542114	714.700000
801.577820	719.900000
801.613647	717.000000
801.649414	710.600000
801.685120	714.000000
801.720886	719.700000
801.756714	709.500000
801.792419	699.600000
801.828186	698.900000
801.863892	704.300000
801.899719	697.500000
801.935486	693.700000
801.971252	700.800000
802.006958	694.400000
802.042725	685.900000
802.078430	687.700000
802.114197	683.300000
802.149963	697.800000
802.185669	684.500000
802.221436	682.100000
802.257202	680.700000
802.292908	676.100000
802.328674	685.100000
802.364441	684.500000
802.400146	681.100000
802.435913	674.800000
802.471558	670.600000
802.507324	667.900000
802.543091	658.200000
802.578796	669.200000
802.614502	667.300000
802.650269	672.600000
802.685974	661.900000
802.721741	660.800000
802.757446	664.600000
802.793152	663.000000
802.828918	668.100000
802.864624	663.600000
802.900330	659.600000
802.936035	658.000000
802.971802	655.400000
803.007446	652.600000
803.043213	644.100000
803.078857	648.500000
803.114624	634.600000
803.150330	640.900000
803.185974	632.500000
803.221741	631.600000
803.257446	637.700000
803.293152	637.800000
803.328857	630.200000
803.364563	624.900000
803.400208	621.700000
803.435974	632.800000
803.471680	623.300000
803.507324	618.300000
803.543030	625.400000
803.578735	626.500000
803.614441	612.300000
803.650146	622.800000
803.685791	608.200000
803.721497	610.900000
803.757202	601.700000
803.792847	610.800000
803.828552	603.200000
803.864258	605.100000
803.899902	601.500000
803.935608	585.900000
803.971313	591.400000
804.006958	594.000000
804.042664	589.800000
804.078308	593.100000
804.113953	585.100000
804.149658	593.700000
804.185364	583.300000
804.221008	593.900000
804.256714	582.300000
804.292297	581.000000
804.328003	577.100000
804.363708	569.200000
804.399292	570.500000
804.434998	570.900000
804.470703	563.100000
804.506287	577.700000
804.541992	567.900000
804.577637	569.300000
804.613281	557.900000
804.648926	558.100000
804.684570	562.900000
804.720215	558.100000
804.755920	558.800000
804.791565	551.900000
804.827209	558.600000
804.862854	552.800000
804.898437	546.000000
804.934143	548.700000
804.969788	548.300000
805.005371	549.600000
805.041077	552.100000
805.076721	548.000000
805.112305	537.000000
805.147949	539.100000
805.183655	535.500000
805.219238	541.700000
805.254883	538.100000
805.290466	546.300000
805.326111	535.700000
805.361755	528.100000
805.397400	535.200000
805.432983	534.800000
805.468628	536.800000
805.504211	540.800000
805.539856	536.000000
805.575500	541.100000
805.611084	531.800000
805.646729	515.600000
805.682373	522.900000
805.717957	535.900000
805.753601	533.700000
805.789246	514.600000
805.824768	529.400000
805.860413	528.900000
805.895996	519.900000
805.931641	516.500000
805.967224	525.000000
806.002869	515.300000
806.038452	526.800000
806.074036	519.800000
806.109619	513.000000
806.145264	505.500000
806.180847	510.500000
806.216431	502.800000
806.252014	510.200000
806.287659	510.400000
806.323181	519.200000
806.358826	512.400000
806.394409	492.600000
806.429993	495.700000
806.465576	509.600000
806.501160	493.500000
806.536743	487.600000
806.572327	498.300000
806.607910	493.000000
806.643494	492.100000
806.679077	487.000000
806.714661	490.900000
806.750244	492.500000
806.785828	483.000000
806.821350	481.300000
806.856934	485.900000
806.892517	483.500000
806.928101	474.800000
806.963684	478.800000
806.999268	489.300000
807.034790	466.600000
807.070374	472.700000
807.105896	468.100000
807.141479	465.300000
807.177063	474.800000
807.212585	463.600000
807.248169	463.600000
807.283752	469.400000
807.319275	462.000000
807.354858	461.700000
807.390381	456.100000
807.425903	459.500000
807.461487	456.600000
807.497070	451.500000
807.532593	450.900000
807.568115	450.500000
807.603699	441.800000
807.639221	439.900000
807.674744	445.000000
807.710266	450.400000
807.745850	451.100000
807.781372	444.000000
807.816895	435.900000
807.852417	443.400000
807.888000	440.100000
807.923523	435.300000
807.959045	441.000000
807.994629	429.800000
808.030090	424.600000
808.065613	433.300000
808.101135	435.700000
808.136658	431.600000
808.172241	428.900000
808.207764	427.500000
808.243225	421.800000
808.278809	417.900000
808.314270	426.800000
808.349792	414.500000
808.385315	415.600000
808.420837	418.200000
808.456360	423.100000
808.491882	422.500000
808.527344	417.900000
808.562866	425.400000
808.598389	418.700000
808.633850	412.900000
808.669434	406.600000
808.704895	418.800000
808.740417	421.000000
808.775940	411.600000
808.811462	407.400000
808.846924	401.000000
808.882385	397.400000
808.917847	395.400000
808.953369	399.200000
808.988892	391.000000
809.024353	403.600000
809.059875	398.900000
809.095398	398.900000
809.130798	387.200000
809.166321	389.700000
809.201843	387.600000
809.237305	391.600000
809.272766	395.800000
809.308228	383.100000
809.343750	380.600000
809.379211	384.100000
809.414734	384.300000
809.450134	393.700000
809.485657	373.300000
809.521118	381.800000
809.556580	380.300000
809.592102	377.800000
809.627502	374.500000
809.663025	373.200000
809.698486	368.700000
809.733887	364.900000
809.769409	367.700000
809.804871	357.200000
809.840271	362.800000
809.875793	366.200000
809.911194	370.000000
809.946655	360.000000
809.982178	358.100000
810.017639	364.300000
810.053040	359.800000
810.088501	356.700000
810.123901	354.700000
810.159424	350.300000
810.194885	347.200000
810.230286	354.300000
810.265747	349.300000
810.301208	344.200000
810.336609	348.100000
810.372070	339.800000
810.407532	344.400000
810.442932	345.400000
810.478394	349.000000
810.513794	343.800000
810.549255	341.200000
810.584717	339.100000
810.620117	335.300000
810.655518	342.500000
810.690979	341.300000
810.726379	340.500000
810.761841	327.800000
810.797302	329.100000
810.832642	329.500000
810.868103	340.800000
810.903564	326.900000
810.938904	336.400000
810.974365	322.200000
811.009827	329.200000
811.045166	324.400000
811.080627	315.500000
811.115967	323.300000
811.151428	331.200000
811.186829	322.100000
811.222229	323.700000
811.257629	315.600000
811.293091	322.900000
811.328430	329.700000
811.363892	322.100000
811.399292	326.900000
811.434631	318.900000
811.470093	325.200000
811.505493	313.700000
811.540833	317.500000
811.576294	321.400000
811.611694	316.300000
811.647034	312.200000
811.682434	313.600000
811.717773	314.000000
811.753235	318.900000
811.788635	313.200000
811.823975	314.100000
811.859375	323.600000
811.894775	305.400000
811.930115	310.400000
811.965515	309.300000
812.000916	313.400000
812.036255	305.700000
812.071655	313.400000
812.106995	302.000000
812.142395	306.500000
812.177795	313.100000
812.213196	309.700000
812.248474	308.900000
812.283875	300.400000
812.319214	304.300000
812.354614	304.300000
812.390015	300.200000
812.425293	302.000000
812.460693	301.300000
812.496094	299.300000
812.531433	292.900000
812.566772	294.800000
812.602173	295.600000
812.637451	298.500000
812.672852	292.400000
812.708191	299.000000
812.743530	291.400000
812.778931	284.800000
812.814270	288.700000
812.849609	297.800000
812.884949	289.300000
812.920227	283.600000
812.955627	300.100000
812.990967	290.800000
813.026306	286.200000
813.061646	276.400000
813.096985	273.400000
813.132324	270.000000
813.167664	275.900000
813.203003	282.600000
813.238281	268.600000
813.273682	269.000000
813.308960	267.800000
813.344299	269.300000
813.379639	280.600000
813.414978	272.700000
813.450256	270.800000
813.485596	273.700000
813.520874	265.100000
813.556213	270.800000
813.591614	275.300000
813.626831	265.100000
813.662170	270.500000
813.697510	280.200000
813.732788	265.000000
813.768127	268.700000
813.803467	270.200000
813.838745	262.300000
813.874084	268.700000
813.909363	269.100000
813.944641	269.000000
813.979980	258.300000
814.015320	265.400000
814.050598	259.600000
814.085876	265.300000
814.121155	262.300000
814.156494	260.600000
814.191772	260.400000
814.227051	258.600000
814.262390	258.200000
814.297668	261.800000
814.332947	261.000000
814.368225	254.900000
814.403564	256.600000
814.438782	256.900000
814.474121	255.300000
814.509338	252.300000
814.544617	261.100000
814.579956	251.600000
814.615173	260.300000
814.650513	257.800000
814.685791	249.700000
814.721008	254.200000
814.756348	254.200000
814.791626	247.700000
814.826843	248.900000
814.862122	251.300000
814.897400	245.900000
814.932678	249.900000
814.967957	250.900000
815.003235	247.500000
815.038452	242.300000
815.073730	241.600000
815.108948	251.400000
815.144226	248.200000
815.179504	252.900000
815.214722	237.500000
815.250000	236.100000
815.285278	245.400000
815.320496	238.500000
815.355774	240.800000
815.391052	244.900000
815.426270	238.600000
815.461487	239.800000
815.496765	236.100000
815.531982	229.500000
815.567261	236.900000
815.602539	246.100000
815.637695	240.400000
815.672974	243.300000
815.708191	239.700000
815.743408	242.300000
815.778687	234.900000
815.813904	246.000000
815.849121	225.800000
815.884399	232.000000
815.919556	227.900000
815.954834	231.300000
815.990051	235.200000
816.025269	239.100000
816.060486	228.100000
816.095703	228.400000
816.130920	232.900000
816.166199	228.900000
816.201416	231.900000
816.236572	238.200000
816.271851	227.200000
816.307007	236.800000
816.342224	223.800000
816.377441	228.300000
816.412659	220.200000
816.447876	231.100000
816.483093	225.800000
816.518250	228.000000
816.553467	226.300000
816.588745	230.100000
816.623901	222.000000
816.659119	217.000000
816.694275	222.800000
816.729492	217.900000
816.764709	256.600000
816.799927	216.100000
816.835083	221.600000
816.870300	216.300000
816.905457	220.200000
816.940674	223.900000
816.975830	218.600000
817.010986	214.400000
817.046204	217.000000
817.081421	214.200000
817.116577	213.700000
817.151733	222.300000
817.186951	224.600000
817.222107	218.400000
817.257324	221.900000
817.292419	218.000000
817.327637	211.600000
817.362854	216.500000
817.398010	210.700000
817.433167	214.000000
817.468323	213.600000
817.503479	212.600000
817.538635	222.500000
817.573853	215.300000
817.608948	215.300000
817.644165	211.500000
817.679321	210.900000
817.714478	209.100000
817.749634	213.700000
817.784790	224.600000
817.819946	221.100000
817.855103	200.800000
817.890198	211.300000
817.925415	202.000000
817.960571	213.800000
817.995667	210.700000
818.030823	212.300000
818.066040	206.600000
818.101135	212.100000
818.136292	209.300000
818.171448	203.600000
818.206543	207.800000
818.241699	211.400000
818.276855	211.100000
818.311951	208.500000
818.347107	204.900000
818.382263	210.400000
818.417358	214.800000
818.452515	215.000000
818.487610	215.100000
818.522766	203.500000
818.557922	216.300000
818.593018	210.800000
818.628113	210.600000
818.663269	202.500000
818.698364	207.400000
818.733521	206.400000
818.768677	211.000000
818.803711	200.500000
818.838867	203.500000
818.874023	206.100000
818.909058	202.100000
818.944214	199.900000
818.979370	209.600000
819.014404	205.500000
819.049561	203.600000
819.084595	206.000000
819.119751	198.800000
819.154846	206.200000
819.189941	204.400000
819.225037	197.300000
819.260193	194.800000
819.295227	195.500000
819.330322	194.300000
819.365479	192.900000
819.400513	225.900000
819.435608	190.400000
819.470764	190.600000
819.505798	192.500000
819.540894	198.900000
819.575989	193.800000
819.611084	205.500000
819.646179	202.500000
819.681213	200.400000
819.716309	196.700000
819.751404	197.000000
819.786438	203.100000
819.821533	194.000000
819.856628	198.300000
819.891663	201.600000
819.926758	208.800000
819.961853	204.500000
819.996887	195.000000
820.031982	202.000000
820.067017	197.200000
820.102112	226.200000
820.137207	196.600000
820.172302	212.300000
820.207275	193.800000
820.242371	194.500000
820.277405	194.900000
820.312500	196.800000
820.347534	198.900000
820.382568	202.000000
820.417664	195.100000
820.452759	196.000000
820.487732	193.100000
820.522827	194.300000
820.557861	191.300000
820.592896	194.600000
820.627930	196.700000
820.662964	191.300000
820.698059	198.900000
820.733093	194.200000
820.768127	199.900000
820.803162	194.900000
820.838196	193.700000
820.873230	196.300000
820.908264	195.900000
820.943298	191.900000
820.978333	200.600000
821.013367	195.100000
821.048401	199.700000
821.083435	200.900000
821.118469	189.000000
821.153503	199.900000
821.188477	197.300000
821.223511	188.700000
821.258484	195.500000
821.293579	196.400000
821.328613	186.700000
821.363647	192.700000
821.398621	188.600000
821.433655	190.800000
821.468628	206.800000
821.503662	194.300000
821.538696	196.900000
821.573669	190.000000
821.608704	197.700000
821.643677	190.700000
821.678650	198.600000
821.713684	202.900000
821.748718	191.700000
821.783691	193.800000
821.818726	196.100000
821.853638	195.600000
821.888672	192.200000
821.923706	194.200000
821.958618	189.200000
821.993652	192.300000
822.028687	199.200000
822.063599	200.100000
822.098633	195.300000
822.133667	189.700000
822.168579	190.600000
822.203613	194.500000
822.238586	189.500000
822.273560	196.500000
822.308533	190.300000
822.343567	192.600000
822.378479	191.500000
822.413452	192.400000
822.448425	187.900000
822.483398	199.900000
822.518372	197.000000
822.553345	190.700000
822.588318	200.700000
822.623291	192.300000
822.658203	189.700000
822.693237	194.500000
822.728210	189.500000
822.763123	193.500000
822.798096	188.100000
822.833069	194.200000
822.867981	192.800000
822.902954	195.200000
822.937927	196.400000
822.972900	204.800000
823.007874	183.700000
823.042725	196.900000
823.077698	205.300000
823.112671	189.500000
823.147583	191.800000
823.182556	196.800000
823.217529	196.900000
823.252441	191.800000
823.287415	206.500000
823.322388	194.800000
823.357239	193.500000
823.392212	200.400000
823.427185	196.200000
823.462097	188.000000
823.497009	197.100000
823.531982	191.500000
823.566895	193.700000
823.601807	187.700000
823.636719	190.800000
823.671631	196.500000
823.706604	191.200000
823.741455	196.700000
823.776428	187.000000
823.811340	197.600000
823.846252	200.600000
823.881165	200.000000
823.916138	195.200000
823.950989	201.800000
823.985901	190.500000
824.020813	194.000000
824.055725	192.200000
824.090637	189.200000
824.125610	195.400000
824.160461	194.400000
824.195374	196.000000
824.230225	199.600000
824.265198	186.400000
824.300110	189.200000
824.334961	204.200000
824.369873	183.600000
824.404785	196.900000
824.439636	199.800000
824.474548	186.100000
824.509460	180.900000
824.544312	200.200000
824.579224	195.100000
824.614075	196.300000
824.648987	192.100000
824.683899	193.200000
824.718811	189.200000
824.753662	201.500000
824.788574	197.500000
824.823364	193.800000
824.858276	189.500000
824.893188	199.600000
824.928040	198.700000
824.962952	196.300000
824.997803	196.100000
825.032654	194.100000
825.067566	197.400000
825.102417	191.900000
825.137268	192.900000
825.172119	193.100000
825.206970	191.000000
825.241882	191.400000
825.276733	191.400000
825.311646	190.900000
825.346436	188.200000
825.381348	188.300000
825.416138	193.700000
825.450989	188.000000
825.485901	185.800000
825.520691	186.200000
825.555542	187.200000
825.590454	193.500000
825.625244	184.900000
825.660095	200.800000
825.695007	199.000000
825.729797	191.500000
825.764648	189.900000
825.799438	192.100000
825.834290	193.900000
825.869202	184.800000
825.903992	193.800000
825.938843	188.600000
825.973694	188.700000
826.008484	205.300000
826.043335	188.200000
826.078186	183.600000
826.112976	200.800000
826.147827	197.100000
826.182678	202.900000
826.217468	184.600000
826.252319	196.200000
826.287109	187.600000
826.321899	200.800000
826.356750	190.700000
826.391541	189.300000
826.426392	197.400000
826.461182	192.700000
826.495972	188.100000
826.530823	183.600000
826.565613	193.200000
826.600403	186.700000
826.635254	195.900000
826.670044	185.000000
826.704834	184.500000
826.739685	186.500000
826.774475	194.500000
826.809265	191.900000
826.844055	190.000000
826.878906	199.200000
826.913635	194.200000
826.948425	194.900000
826.983215	193.700000
827.018005	197.500000
827.052856	190.900000
827.087585	195.500000
827.122375	184.900000
827.157227	191.800000
827.191956	203.700000
827.226746	188.400000
827.261536	197.500000
827.296265	184.400000
827.331116	189.800000
827.365906	195.100000
827.400635	188.600000
827.435425	183.400000
827.470215	199.700000
827.504944	190.000000
827.539734	197.500000
827.574463	190.000000
827.609253	200.100000
827.644043	191.500000
827.678772	197.900000
827.713562	188.800000
827.748352	192.200000
827.783081	188.900000
827.817871	193.100000
827.852600	187.700000
827.887329	193.400000
827.922119	182.200000
827.956848	195.900000
827.991638	204.700000
828.026367	194.700000
828.061157	193.300000
828.095886	192.200000
828.130615	207.300000
828.165344	182.700000
828.200073	193.200000
828.234863	189.200000
828.269592	192.600000
828.304321	197.600000
828.339111	192.800000
828.373779	189.000000
828.408569	197.400000
828.443298	195.800000
828.477966	190.100000
828.512756	192.700000
828.547424	187.000000
828.582214	189.300000
828.616943	191.400000
828.651672	189.800000
828.686340	197.200000
828.721130	188.200000
828.755798	192.300000
828.790527	192.500000
828.825256	193.900000
828.859924	193.500000
828.894714	200.400000
828.929443	199.900000
828.964111	190.100000
828.998840	195.300000
829.033569	191.000000
829.068237	188.800000
829.102966	190.500000
829.137634	192.600000
829.172363	194.300000
829.207092	192.600000
829.241821	189.800000
829.276489	184.100000
829.311157	193.600000
829.345825	190.700000
829.380554	197.200000
829.415283	187.700000
829.449951	186.000000
829.484619	198.900000
829.519348	200.100000
829.554016	190.500000
829.588745	192.700000
829.623413	185.500000
829.658081	204.500000
829.692749	185.300000
829.727417	197.200000
829.762146	192.800000
829.796814	188.000000
829.831482	190.200000
829.866150	193.700000
829.900879	189.600000
829.935486	194.700000
829.970154	190.100000
830.004883	202.500000
830.039490	192.700000
830.074219	188.900000
830.108887	192.000000
830.143494	191.100000
830.178223	186.300000
830.212891	190.400000
830.247498	192.900000
830.282166	198.700000
830.316772	197.900000
830.351501	188.700000
830.386169	191.400000
830.420776	189.100000
830.455444	191.800000
830.490112	189.300000
830.524719	183.100000
830.559387	193.400000
830.594055	195.100000
830.628662	191.400000
830.663330	193.000000
830.697998	200.500000
830.732605	191.600000
830.767273	193.000000
830.801941	192.300000
830.836487	201.400000
830.871155	195.800000
830.905762	194.000000
830.940430	186.200000
830.975098	187.100000
831.009644	193.500000
831.044312	200.300000
831.078979	195.000000
831.113525	183.300000
831.148193	194.500000
831.182861	190.700000
831.217407	194.700000
831.252075	208.500000
831.286621	190.900000
831.321289	187.800000
831.355896	191.700000
831.390564	199.700000
831.425110	192.800000
831.459778	197.800000
831.494324	205.600000
831.528931	195.900000
831.563599	196.400000
831.598145	186.000000
831.632751	190.900000
831.667419	189.400000
831.701965	193.600000
831.736572	196.100000
831.771179	185.200000
831.805786	190.600000
831.840393	197.800000
831.874939	184.100000
831.909546	197.800000
831.944153	184.100000
831.978760	190.300000
832.013306	187.300000
832.047913	199.000000
832.082458	200.500000
832.117065	187.400000
832.151672	201.700000
832.186218	193.900000
832.220825	194.400000
832.255432	183.300000
832.289978	188.200000
832.324585	194.400000
832.359192	194.700000
832.393677	190.300000
832.428284	193.800000
832.462830	189.600000
832.497437	191.400000
832.531982	195.200000
832.566589	190.800000
832.601135	191.800000
832.635681	184.000000
832.670227	189.500000
832.704773	201.100000
832.739380	193.400000
832.773926	193.200000
832.808472	187.000000
832.843079	192.600000
832.877563	196.300000
832.912170	189.600000
832.946716	182.300000
832.981201	198.500000
833.015808	194.200000
833.050293	190.500000
833.084839	188.000000
833.119446	191.300000
833.153992	195.300000
833.188477	190.800000
833.223022	187.300000
833.257568	193.600000
833.292114	198.200000
833.326660	203.900000
833.361145	187.900000
833.395691	183.800000
833.430237	191.200000
833.464783	195.700000
833.499329	189.700000
833.533875	187.000000
833.568359	196.000000
833.602905	198.900000
833.637390	197.900000
833.671875	188.600000
833.706421	191.100000
833.740906	187.200000
833.775452	181.600000
833.809998	189.000000
833.844482	199.300000
833.879028	190.600000
833.913513	191.400000
833.947998	193.900000
833.982544	187.400000
834.017090	188.800000
834.051514	180.500000
834.086060	194.400000
834.120544	192.100000
834.155029	193.200000
834.189575	190.900000
834.223999	193.200000
834.258545	192.700000
834.293030	192.100000
834.327515	192.000000
834.362000	186.600000
834.396545	196.700000
834.430969	191.000000
834.465454	195.800000
834.500000	183.700000
834.534424	195.400000
834.568970	182.100000
834.603455	182.600000
834.637878	187.400000
834.672363	192.500000
834.706909	192.700000
834.741333	191.100000
834.775818	182.900000
834.810242	187.900000
834.844727	192.100000
834.879211	189.600000
834.913635	192.300000
834.948181	194.400000
834.982666	191.600000
835.017090	191.200000
835.051575	196.400000
835.086060	190.000000
835.120483	196.000000
835.154907	196.100000
835.189331	191.800000
835.223816	194.300000
835.258301	187.300000
835.292786	186.500000
835.327209	198.400000
835.361694	187.000000
835.396057	188.700000
835.430542	193.000000
835.465027	193.500000
835.499390	186.100000
835.533875	210.900000
835.568359	190.100000
835.602722	184.300000
835.637207	193.100000
835.671692	186.000000
835.706055	208.700000
835.740540	194.200000
835.774902	193.600000
835.809387	193.200000
835.843811	184.900000
835.878235	200.600000
835.912659	185.200000
835.947083	188.400000
835.981506	191.800000
836.015930	185.300000
836.050354	195.700000
836.084778	201.900000
836.119202	195.800000
836.153625	205.300000
836.187988	187.500000
836.222473	188.000000
836.256897	193.100000
836.291260	190.500000
836.325684	193.700000
836.360046	188.600000
836.394470	190.800000
836.428894	198.900000
836.463318	187.400000
836.497681	196.500000
836.532104	200.100000
836.566467	192.900000
836.600891	190.600000
836.635315	196.800000
836.669678	197.400000
836.704102	195.100000
836.738525	192.100000
836.772888	183.100000
836.807251	190.400000
836.841675	194.300000
836.876038	187.500000
836.910461	187.800000
836.944763	197.000000
836.979187	187.800000
837.013611	197.400000
837.047974	185.300000
837.082336	203.500000
837.116699	194.400000
837.151062	190.800000
837.185486	186.400000
837.219849	190.100000
837.254211	196.200000
837.288574	192.100000
837.322937	186.600000
837.357300	180.500000
837.391663	203.900000
837.426086	198.400000
837.460388	192.300000
837.494751	199.500000
837.529114	189.200000
837.563477	197.500000
837.597839	192.800000
837.632141	191.800000
837.666565	189.000000
837.700928	195.900000
837.735229	194.500000
837.769592	195.200000
837.803955	197.200000
837.838257	190.800000
837.872620	187.900000
837.906982	200.100000
837.941284	193.100000
837.975647	192.800000
838.010010	198.600000
838.044312	189.100000
838.078674	190.500000
838.112976	191.900000
838.147339	195.800000
838.181702	191.900000
838.216003	203.000000
838.250366	193.400000
838.284668	195.300000
838.318970	184.500000
838.353333	191.600000
838.387634	189.900000
838.421936	192.300000
838.456299	193.200000
838.490601	199.600000
838.524902	195.600000
838.559265	197.600000
838.593567	194.800000
838.627869	187.400000
838.662170	193.800000
838.696472	184.500000
838.730774	188.900000
838.765137	196.700000
838.799377	177.100000
838.833740	194.800000
838.868042	199.000000
838.902283	184.600000
838.936646	197.200000
838.970947	194.900000
839.005188	195.200000
839.039551	185.200000
839.073792	198.100000
839.108093	190.300000
839.142395	200.800000
839.176697	186.100000
839.210937	193.200000
839.245300	205.400000
839.279541	185.000000
839.313843	190.000000
839.348145	195.300000
839.382385	197.200000
839.416687	197.500000
839.450989	196.100000
839.485229	191.100000
839.519531	187.500000
839.553833	198.100000
839.588013	191.800000
839.622314	193.200000
839.656555	194.500000
839.690857	190.900000
839.725159	185.600000
839.759460	190.200000
839.793640	189.900000
839.827942	190.600000
839.862183	187.900000
839.896423	194.700000
839.930725	201.400000
839.964966	198.500000
839.999207	200.000000
840.033508	200.300000
840.067688	189.700000
840.101990	200.800000
840.136230	191.000000
840.170471	200.800000
840.204712	187.300000
840.238953	187.300000
840.273193	191.600000
840.307434	196.500000
840.341736	186.800000
840.375916	186.200000
840.410217	188.600000
840.444397	197.500000
840.478638	195.600000
840.512878	200.200000
840.547119	191.800000
840.581360	197.300000
840.615601	201.600000
840.649780	202.700000
840.684021	191.800000
840.718262	199.800000
840.752441	198.400000
840.786682	194.100000
840.820862	194.000000
840.855103	201.400000
840.889343	193.000000
840.923584	197.500000
840.957764	194.600000
840.992004	196.000000
841.026184	206.400000
841.060425	191.500000
841.094666	189.600000
841.128845	196.600000
841.163025	193.400000
841.197266	196.200000
841.231445	194.100000
841.265686	193.600000
841.299866	188.100000
841.334045	201.400000
841.368286	191.700000
841.402405	200.700000
841.436646	198.100000
841.470825	189.600000
841.505005	192.200000
841.539185	188.900000
841.573425	191.000000
841.607544	193.000000
841.641785	194.900000
841.675964	187.300000
841.710144	194.400000
841.744324	189.300000
841.778503	190.700000
841.812683	189.200000
841.846863	201.600000
841.881042	199.400000
841.915222	190.400000
841.949402	206.000000
841.983521	184.500000
842.017700	190.800000
842.051880	194.900000
842.086060	194.700000
842.120239	194.200000
842.154419	189.000000
842.188538	194.000000
842.222717	188.700000
842.256897	204.500000
842.291016	190.700000
842.325195	196.100000
842.359375	203.400000
842.393494	201.300000
842.427673	192.700000
842.461853	197.400000
842.495911	199.700000
842.530090	196.000000
842.564209	192.400000
842.598389	195.500000
842.632568	193.200000
842.666626	196.100000
842.700806	188.700000
842.734985	190.500000
842.769043	196.100000
842.803223	191.300000
842.837402	191.800000
842.871460	190.200000
842.905640	200.600000
842.939697	190.000000
842.973877	195.200000
843.007996	197.800000
843.042175	200.900000
843.076233	190.100000
843.110413	193.500000
843.144470	200.400000
843.178589	197.500000
843.212769	190.600000
843.246826	198.000000
843.280945	190.700000
843.315125	190.700000
843.349182	188.200000
843.383301	199.200000
843.417419	206.000000
843.451538	194.200000
843.485657	191.800000
843.519714	192.300000
843.553833	194.100000
843.587952	191.300000
843.622070	189.300000
843.656128	198.900000
843.690247	190.900000
843.724304	190.500000
843.758423	194.600000
843.792542	192.400000
843.826599	193.400000
843.860718	191.300000
843.894836	186.600000
843.928894	194.100000
843.963013	194.700000
843.997070	190.300000
844.031128	186.200000
844.065247	199.400000
844.099304	197.900000
844.133362	195.800000
844.167480	195.700000
844.201599	201.700000
844.235596	194.900000
844.269714	196.000000
844.303711	194.700000
844.337830	185.900000
844.371948	196.700000
844.405945	192.200000
844.440063	187.500000
844.474121	207.000000
844.508118	193.200000
844.542236	192.300000
844.576294	192.100000
844.610352	188.600000
844.644409	191.900000
844.678406	184.400000
844.712524	198.600000
844.746582	199.200000
844.780640	193.200000
844.814636	193.800000
844.848755	204.500000
844.882751	192.500000
844.916809	199.600000
844.950867	196.200000
844.984863	204.000000
845.018921	192.600000
845.052979	190.800000
845.086975	193.700000
845.121033	188.100000
845.155090	189.000000
845.189087	202.100000
845.223145	190.500000
845.257141	192.600000
845.291199	195.800000
845.325256	201.700000
845.359253	193.100000
845.393250	204.100000
845.427307	190.400000
845.461304	196.500000
845.495361	192.100000
845.529358	206.000000
845.563354	190.700000
845.597412	190.400000
845.631409	200.400000
845.665405	201.300000
845.699463	197.500000
845.733459	192.900000
845.767456	198.800000
845.801453	192.500000
845.835449	201.000000
845.869446	198.100000
845.903503	199.000000
845.937439	190.000000
845.971497	199.200000
846.005493	187.500000
846.039429	197.300000
846.073486	203.000000
846.107483	192.000000
846.141418	193.300000
846.175476	191.800000
846.209473	200.400000
846.243408	188.800000
846.277405	193.200000
846.311401	189.500000
846.345337	194.400000
846.379395	199.700000
846.413330	189.800000
846.447327	201.300000
846.481323	187.300000
846.515259	191.300000
846.549255	194.500000
846.583252	196.500000
846.617187	188.700000
846.651184	196.800000
846.685120	191.500000
846.719055	202.200000
846.753052	197.100000
846.786987	198.100000
846.820984	186.200000
846.854980	201.400000
846.888916	188.600000
846.922852	198.100000
846.956848	201.900000
846.990723	189.400000
847.024719	194.300000
847.058716	194.200000
847.092590	199.700000
847.126587	195.000000
847.160522	191.800000
847.194458	199.000000
847.228455	188.500000
847.262390	190.300000
847.296265	191.400000
847.330261	201.400000
847.364136	192.400000
847.398132	191.200000
847.432068	194.700000
847.466003	193.300000
847.499939	191.500000
847.533875	197.200000
847.567749	191.500000
847.601746	191.700000
847.635681	197.900000
847.669556	185.700000
847.703491	198.800000
847.737427	208.800000
847.771301	188.600000
847.805237	194.200000
847.839233	193.100000
847.873108	192.200000
847.907043	191.800000
847.940918	199.400000
847.974854	196.100000
848.008789	198.100000
848.042664	194.300000
848.076538	196.500000
848.110474	195.100000
848.144348	194.700000
848.178284	188.600000
848.212219	193.900000
848.246094	192.300000
848.279968	195.500000
848.313904	197.600000
848.347778	194.100000
848.381653	194.300000
848.415588	188.700000
848.449463	191.700000
848.483337	196.100000
848.517212	200.800000
848.551086	195.000000
848.585022	189.800000
848.618835	201.700000
848.652771	192.100000
848.686646	189.000000
848.720520	202.400000
848.754395	193.700000
848.788330	199.400000
848.822144	197.300000
848.856018	194.000000
848.889954	203.500000
848.923767	189.300000
848.957642	189.700000
848.991577	198.400000
849.025391	190.900000
849.059265	193.300000
849.093079	190.300000
849.126953	189.300000
849.160828	198.100000
849.194641	195.200000
849.228577	191.900000
849.262451	192.500000
849.296265	192.300000
849.330139	188.900000
849.364014	193.500000
849.397827	194.900000
849.431702	194.200000
849.465515	198.800000
849.499329	184.100000
849.533203	188.800000
849.567078	183.900000
849.600891	197.100000
849.634766	193.500000
849.668518	198.300000
849.702393	194.900000
849.736267	186.300000
849.770020	205.300000
849.803894	197.200000
849.837769	195.400000
849.871521	194.500000
849.905396	200.600000
849.939270	189.800000
849.973022	192.100000
850.006897	197.600000
850.040710	196.000000
850.074524	196.900000
850.108337	193.100000
850.142151	197.100000
850.175964	200.400000
850.209778	192.800000
850.243530	182.000000
850.277405	199.300000
850.311218	195.100000
850.344971	189.800000
850.378845	203.200000
850.412659	190.700000
850.446411	195.100000
850.480225	193.100000
850.514038	200.800000
850.547791	195.400000
850.581665	193.100000
850.615417	192.100000
850.649231	195.900000
850.683044	192.200000
850.716858	193.000000
850.750610	192.800000
850.784424	198.400000
850.818176	191.000000
850.851929	191.900000
850.885742	191.300000
850.919495	193.100000
850.953308	200.800000
850.987122	201.500000
851.020874	188.300000
851.054626	186.600000
851.088440	196.800000
851.122192	198.000000
851.156006	194.200000
851.189697	194.100000
851.223511	187.700000
851.257263	198.600000
851.291077	197.600000
851.324829	192.700000
851.358582	191.200000
851.392334	192.500000
851.426086	193.100000
851.459900	201.400000
851.493591	193.700000
851.527344	194.500000
851.561157	193.700000
851.594849	195.700000
851.628662	197.200000
851.662415	201.000000
851.696106	196.600000
851.729858	197.500000
851.763611	188.700000
851.797363	194.900000
851.831116	191.100000
851.864868	196.600000
851.898560	198.300000
851.932312	189.500000
851.966064	196.400000
851.999817	192.400000
852.033569	193.300000
852.067261	197.500000
852.101013	192.000000
852.134766	193.300000
852.168457	185.000000
852.202209	197.900000
852.235901	189.800000
852.269592	196.000000
852.303345	203.900000
852.337036	197.000000
852.370789	194.400000
852.404541	198.100000
852.438171	189.200000
852.471924	192.600000
852.505676	188.200000
852.539307	196.400000
852.573059	192.400000
852.606812	190.800000
852.640442	191.900000
852.674194	199.700000
852.707886	205.200000
852.741577	201.500000
852.775269	188.600000
852.809021	194.300000
852.842651	196.500000
852.876404	198.700000
852.910034	193.700000
852.943787	200.200000
852.977478	196.300000
853.011108	190.900000
853.044861	191.600000
853.078552	201.500000
853.112183	195.500000
853.145874	196.000000
853.179626	184.600000
853.213257	196.800000
853.246948	190.900000
853.280640	202.800000
853.314270	192.900000
853.347961	202.000000
853.381653	195.300000
853.415283	197.700000
853.448975	190.600000
853.482605	196.000000
853.516296	191.500000
853.549988	187.900000
853.583618	195.200000
853.617310	197.300000
853.651001	194.500000
853.684631	188.700000
853.718323	191.300000
853.751953	202.800000
853.785583	185.400000
853.819275	199.500000
853.852966	194.100000
853.886536	185.800000
853.920227	187.600000
853.953918	198.600000
853.987488	191.700000
854.021179	199.200000
854.054749	201.300000
854.088440	196.200000
854.122131	189.000000
854.155701	197.900000
854.189331	190.400000
854.223022	197.600000
854.256592	196.600000
854.290283	190.000000
854.323914	197.700000
854.357483	197.100000
854.391174	196.000000
854.424744	204.200000
854.458374	196.700000
854.492065	205.200000
854.525696	192.800000
854.559265	200.500000
854.592896	204.100000
854.626465	195.600000
854.660095	195.400000
854.693787	195.800000
854.727356	193.400000
854.760986	198.300000
854.794617	195.700000
854.828186	191.200000
854.861816	197.400000
854.895447	194.200000
854.929016	196.600000
854.962585	197.600000
854.996155	202.100000
855.029785	195.400000
855.063416	197.400000
855.097046	198.000000
855.130615	189.300000
855.164185	198.500000
855.197754	196.700000
855.231384	196.400000
855.264954	194.200000
855.298523	197.800000
855.332153	194.500000
855.365723	202.200000
855.399292	190.800000
855.432922	192.000000
855.466492	196.000000
855.500061	187.700000
855.533630	191.900000
855.567200	197.800000
855.600769	200.000000
855.634338	197.900000
855.667969	196.100000
855.701477	190.600000
855.735046	189.900000
855.768616	186.200000
855.802185	196.800000
855.835754	208.000000
855.869324	185.400000
855.902893	193.200000
855.936401	200.700000
855.969971	195.900000
856.003540	186.200000
856.037109	197.800000
856.070618	195.300000
856.104187	188.100000
856.137695	191.300000
856.171265	184.500000
856.204834	193.400000
856.238403	199.500000
856.271912	191.000000
856.305481	196.800000
856.338989	185.400000
856.372559	198.300000
856.406128	194.500000
856.439636	199.800000
856.473145	193.100000
856.506653	202.000000
856.540222	193.200000
856.573792	201.800000
856.607300	197.000000
856.640808	189.100000
856.674377	195.300000
856.707825	222.200000
856.741394	197.200000
856.774902	191.500000
856.808472	184.700000
856.841980	199.200000
856.875488	201.700000
856.908936	187.800000
856.942505	192.300000
856.976013	194.300000
857.009521	189.300000
857.043030	195.900000
857.076477	193.100000
857.110046	200.400000
857.143555	195.700000
857.177063	198.800000
857.210571	191.800000
857.244080	187.900000
857.277527	197.900000
857.311035	192.900000
857.344543	198.500000
857.378052	194.500000
857.411499	199.900000
857.445068	203.600000
857.478516	194.400000
857.512024	188.500000
857.545532	192.700000
857.578979	196.900000
857.612427	194.700000
857.645874	191.500000
857.679382	195.600000
857.712891	197.900000
857.746399	194.200000
857.779846	199.600000
857.813354	199.400000
857.846741	194.700000
857.880249	191.200000
857.913757	195.800000
857.947266	196.600000
857.980652	197.300000
858.014160	193.000000
858.047546	194.200000
858.081055	194.400000
858.114563	201.700000
858.147949	188.900000
858.181458	197.400000
858.214844	193.600000
858.248352	185.500000
858.281799	200.600000
858.315308	206.000000
858.348694	198.800000
858.382141	201.400000
858.415588	197.900000
858.449036	198.300000
858.482483	197.400000
858.515930	190.100000
858.549377	194.100000
858.582825	201.700000
858.616211	198.800000
858.649658	196.400000
858.683105	188.200000
858.716553	190.800000
858.750000	189.000000
858.783386	191.400000
858.816833	187.000000
858.850281	195.900000
858.883728	197.800000
858.917114	193.400000
858.950562	202.800000
858.983948	203.600000
859.017395	197.600000
859.050781	192.700000
859.084167	190.300000
859.117615	189.200000
859.151062	196.600000
859.184448	189.900000
859.217834	190.400000
859.251282	191.800000
859.284668	190.100000
859.318054	183.900000
859.351440	192.100000
859.384888	202.400000
859.418274	186.500000
859.451721	185.500000
859.485046	195.500000
859.518494	196.000000
859.551819	189.000000
859.585266	198.000000
859.618652	195.000000
859.652039	187.800000
859.685425	188.000000
859.718811	187.700000
859.752197	182.600000
859.785583	202.000000
859.819031	201.400000
859.852356	198.200000
859.885742	189.900000
859.919067	194.100000
859.952454	191.400000
859.985901	201.500000
860.019287	190.600000
860.052612	0.000000
860.085999	0.000000
860.119324	0.000000
860.152710	0.000000
860.186096	0.000000
860.219421	0.000000
860.252808	0.000000
860.286133	0.000000
860.319519	0.000000
860.352905	0.000000
860.386292	0.000000
860.419617	0.000000
860.452942	0.000000
860.486267	0.000000
860.519653	0.000000
860.553040	0.000000
860.586365	0.000000
860.619690	0.000000
860.653076	0.000000
860.686340	0.000000
860.719727	0.000000
860.753113	0.000000
860.786377	0.000000
860.819763	0.000000
860.853027	0.000000
860.886414	0.000000
860.919739	0.000000
860.953125	0.000000
860.986389	0.000000
861.019714	0.000000
861.053040	0.000000
861.086365	0.000000
861.119690	0.000000
861.153076	0.000000
861.186340	0.000000
861.219666	0.000000
861.252930	0.000000
861.286316	0.000000
861.319641	0.000000
861.352905	0.000000
861.386230	0.000000
861.419495	0.000000
861.452820	0.000000
861.486145	0.000000
861.519470	0.000000
861.552734	0.000000
861.586060	0.000000
861.619324	0.000000
861.652649	0.000000
861.685974	0.000000
861.719238	0.000000
861.752563	0.000000
861.785828	0.000000
861.819092	0.000000
861.852417	0.000000
861.885742	0.000000
861.918945	0.000000
861.952271	0.000000
861.985535	0.000000
862.018799	0.000000
862.052124	0.000000
862.085449	0.000000
862.118652	0.000000
862.151978	0.000000
862.185181	0.000000
862.218506	0.000000
862.251770	0.000000
862.285034	0.000000
862.318298	0.000000
862.351562	0.000000
862.384827	0.000000
862.418091	0.000000
862.451355	0.000000
862.484619	0.000000
862.517883	0.000000
862.551086	0.000000
862.584351	0.000000
862.617676	0.000000
862.650940	0.000000
862.684143	0.000000
862.717407	0.000000
862.750610	0.000000
862.783875	0.000000
862.817139	0.000000
862.850342	0.000000
862.883606	0.000000
862.916870	0.000000
862.950073	0.000000
862.983337	0.000000
863.016602	0.000000
863.049805	0.000000
863.083069	0.000000
863.116211	0.000000
863.149475	0.000000
863.182739	0.000000
863.216003	0.000000
863.249146	0.000000
863.282410	0.000000
863.315613	0.000000
863.348816	0.000000
863.382080	0.000000
863.415222	0.000000
863.448486	0.000000
863.481689	0.000000
863.514893	0.000000
863.548157	0.000000
863.581360	0.000000
863.614502	0.000000
863.647766	0.000000
863.680908	0.000000
863.714172	0.000000
863.747375	0.000000
863.780579	0.000000
863.813721	0.000000
863.846985	0.000000
863.880127	0.000000
863.913330	0.000000
863.946533	0.000000
863.979675	0.000000
864.012939	0.000000
