Model Number: SPM-001-M   
Serial Number: 10090201
Firmware Version: 004.17.6
Exposure Time: 500000.000000us
Data Taken on: 10-03-2021 12:22:29.958
Wavelength	Amplitude
733.770752	0.000000
733.808716	0.000000
733.846619	0.000000
733.884583	0.000000
733.922546	0.000000
733.960449	0.000000
733.998413	0.000000
734.036377	0.000000
734.074219	0.000000
734.112183	0.000000
734.150085	0.000000
734.188049	0.000000
734.226013	0.000000
734.263916	0.000000
734.301819	0.000000
734.339783	0.000000
734.377686	0.000000
734.415588	0.000000
734.453552	0.000000
734.491455	0.000000
734.529419	0.000000
734.567322	0.000000
734.605225	0.000000
734.643127	0.000000
734.681091	0.000000
734.718994	0.000000
734.756897	0.000000
734.794800	0.000000
734.832703	0.000000
734.870667	0.000000
734.908508	0.000000
734.946472	0.000000
734.984375	0.000000
735.022278	0.000000
735.060181	0.000000
735.098083	0.000000
735.135986	0.000000
735.173889	0.000000
735.211792	0.000000
735.249695	0.000000
735.287598	0.000000
735.325439	0.000000
735.363403	0.000000
735.401306	0.000000
735.439148	0.000000
735.477051	0.000000
735.515015	0.000000
735.552856	0.000000
735.590759	0.000000
735.628662	0.000000
735.666504	0.000000
735.704407	0.000000
735.742310	0.000000
735.780212	0.000000
735.818115	0.000000
735.856018	0.000000
735.893860	0.000000
735.931763	0.000000
735.969604	0.000000
736.007507	0.000000
736.045410	0.000000
736.083252	0.000000
736.121094	0.000000
736.158997	0.000000
736.196838	0.000000
736.234741	0.000000
736.272644	0.000000
736.310486	0.000000
736.348389	0.000000
736.386230	0.000000
736.424072	0.000000
736.461975	0.000000
736.499878	0.000000
736.537720	0.000000
736.575562	0.000000
736.613403	0.000000
736.651306	0.000000
736.689148	0.000000
736.726990	0.000000
736.764893	0.000000
736.802734	0.000000
736.840576	0.000000
736.878418	0.000000
736.916321	0.000000
736.954102	0.000000
736.992004	0.000000
737.029846	0.000000
737.067688	0.000000
737.105530	0.000000
737.143372	0.000000
737.181213	0.000000
737.219116	0.000000
737.256897	0.000000
737.294739	0.000000
737.332642	0.000000
737.370422	0.000000
737.408325	0.000000
737.446167	0.000000
737.483948	0.000000
737.521790	0.000000
737.559692	0.000000
737.597473	0.000000
737.635315	0.000000
737.673157	0.000000
737.710999	0.000000
737.748840	0.000000
737.786621	0.000000
737.824463	0.000000
737.862305	0.000000
737.900085	0.000000
737.937927	0.000000
737.975769	0.000000
738.013550	0.000000
738.051392	0.000000
738.089233	0.000000
738.127014	0.000000
738.164856	0.000000
738.202698	0.000000
738.240479	0.000000
738.278320	0.000000
738.316162	0.000000
738.353943	0.000000
738.391785	0.000000
738.429565	0.000000
738.467407	0.000000
738.505188	0.000000
738.542969	0.000000
738.580811	0.000000
738.618652	0.000000
738.656372	0.000000
738.694214	0.000000
738.732056	0.000000
738.769836	0.000000
738.807617	0.000000
738.845459	0.000000
738.883240	0.000000
738.921021	0.000000
738.958862	0.000000
738.996582	0.000000
739.034424	0.000000
739.072205	0.000000
739.109985	0.000000
739.147827	0.000000
739.185547	0.000000
739.223389	0.000000
739.261169	0.000000
739.298889	0.000000
739.336731	0.000000
739.374512	0.000000
739.412292	0.000000
739.450073	0.000000
739.487854	0.000000
739.525635	0.000000
739.563416	0.000000
739.601135	0.000000
739.638977	0.000000
739.676758	0.000000
739.714478	0.000000
739.752258	0.000000
739.790100	0.000000
739.827820	0.000000
739.865601	0.000000
739.903381	0.000000
739.941101	0.000000
739.978882	194.600000
740.016724	189.800000
740.054443	196.000000
740.092224	188.000000
740.130005	188.500000
740.167725	189.600000
740.205505	186.100000
740.243225	199.500000
740.281006	194.400000
740.318787	186.400000
740.356506	196.800000
740.394287	198.300000
740.432068	187.100000
740.469727	186.300000
740.507507	194.300000
740.545288	192.100000
740.583008	193.000000
740.620789	193.500000
740.658569	182.300000
740.696228	191.800000
740.734009	196.900000
740.771790	180.200000
740.809509	195.000000
740.847229	186.500000
740.884949	188.500000
740.922729	185.100000
740.960449	189.700000
740.998169	187.000000
741.035950	187.200000
741.073669	194.400000
741.111389	191.400000
741.149170	202.200000
741.186890	204.100000
741.224609	195.500000
741.262329	193.500000
741.300110	201.600000
741.337769	185.800000
741.375549	185.900000
741.413208	193.100000
741.450989	186.600000
741.488708	189.500000
741.526367	190.000000
741.564148	195.200000
741.601868	196.100000
741.639526	192.300000
741.677307	192.300000
741.715027	193.900000
741.752686	187.400000
741.790466	198.700000
741.828186	195.000000
741.865845	188.100000
741.903564	183.200000
741.941345	192.300000
741.979004	188.100000
742.016724	195.300000
742.054382	192.100000
742.092102	198.400000
742.129822	183.700000
742.167480	190.200000
742.205200	189.400000
742.242920	193.500000
742.280640	194.700000
742.318359	188.800000
742.356079	189.200000
742.393738	196.300000
742.431396	190.200000
742.469116	196.000000
742.506775	180.900000
742.544495	195.400000
742.582214	195.600000
742.619873	192.900000
742.657593	198.600000
742.695251	197.000000
742.732971	190.600000
742.770630	193.800000
742.808289	192.200000
742.846008	192.000000
742.883728	194.100000
742.921326	193.100000
742.959045	188.700000
742.996765	191.800000
743.034424	191.500000
743.072083	189.100000
743.109802	192.300000
743.147400	185.100000
743.185120	193.600000
743.222839	190.900000
743.260437	196.700000
743.298157	194.900000
743.335754	184.400000
743.373474	191.000000
743.411133	183.900000
743.448792	192.300000
743.486450	192.900000
743.524170	184.400000
743.561768	193.300000
743.599487	197.200000
743.637146	202.700000
743.674744	191.100000
743.712463	189.600000
743.750122	191.800000
743.787720	195.800000
743.825439	187.500000
743.863037	190.200000
743.900696	191.500000
743.938416	218.500000
743.976013	191.200000
744.013672	201.200000
744.051331	196.600000
744.088928	201.100000
744.126587	197.100000
744.164307	193.400000
744.201904	188.300000
744.239563	196.600000
744.277222	193.300000
744.314819	194.300000
744.352478	198.600000
744.390137	194.200000
744.427734	194.400000
744.465393	191.500000
744.502991	186.500000
744.540649	195.500000
744.578308	192.700000
744.615906	187.100000
744.653564	181.600000
744.691223	195.600000
744.728821	184.200000
744.766418	190.700000
744.804077	195.800000
744.841675	190.100000
744.879333	184.800000
744.916992	190.600000
744.954529	189.200000
744.992187	198.100000
745.029785	191.200000
745.067444	187.800000
745.105042	192.500000
745.142639	195.100000
745.180298	201.100000
745.217896	190.200000
745.255493	190.800000
745.293152	195.400000
745.330750	197.000000
745.368347	199.400000
745.405945	196.100000
745.443604	192.700000
745.481140	196.100000
745.518799	190.900000
745.556396	196.800000
745.593994	194.000000
745.631592	192.300000
745.669189	185.200000
745.706787	195.900000
745.744385	188.800000
745.781982	195.200000
745.819580	188.300000
745.857178	191.500000
745.894775	192.100000
745.932373	194.500000
745.969971	192.300000
746.007568	183.900000
746.045166	199.700000
746.082764	199.000000
746.120300	195.000000
746.157898	196.600000
746.195557	191.700000
746.233093	187.300000
746.270691	195.200000
746.308228	195.400000
746.345825	198.000000
746.383423	198.000000
746.420959	187.300000
746.458557	191.100000
746.496155	190.400000
746.533691	192.600000
746.571289	187.200000
746.608887	192.700000
746.646423	192.900000
746.684021	194.500000
746.721619	189.300000
746.759155	194.800000
746.796753	187.400000
746.834351	186.100000
746.871826	189.200000
746.909424	199.700000
746.946960	193.600000
746.984558	191.400000
747.022156	190.600000
747.059631	199.700000
747.097229	194.700000
747.134827	189.800000
747.172363	201.400000
747.209900	194.100000
747.247498	188.000000
747.285034	199.400000
747.322571	199.500000
747.360168	188.500000
747.397644	185.400000
747.435242	194.500000
747.472778	200.600000
747.510315	188.700000
747.547913	189.800000
747.585388	197.800000
747.622925	192.800000
747.660522	182.500000
747.697998	189.900000
747.735596	191.000000
747.773132	191.500000
747.810669	191.800000
747.848206	197.000000
747.885742	185.500000
747.923279	188.300000
747.960815	192.800000
747.998352	193.500000
748.035889	197.200000
748.073425	197.900000
748.110901	188.200000
748.148437	189.100000
748.185974	192.400000
748.223511	203.500000
748.261047	193.400000
748.298584	193.700000
748.336060	191.400000
748.373596	195.200000
748.411133	210.500000
748.448608	189.000000
748.486145	195.700000
748.523682	200.000000
748.561218	198.200000
748.598755	193.600000
748.636292	195.900000
748.673706	189.800000
748.711243	198.200000
748.748718	194.600000
748.786255	192.300000
748.823792	192.500000
748.861267	188.600000
748.898804	194.000000
748.936340	195.300000
748.973816	190.100000
749.011292	197.800000
749.048828	193.600000
749.086304	196.200000
749.123840	203.600000
749.161316	187.200000
749.198792	202.200000
749.236328	200.500000
749.273743	191.700000
749.311279	190.900000
749.348816	193.700000
749.386230	193.800000
749.423767	181.000000
749.461304	195.200000
749.498718	190.700000
749.536255	200.000000
749.573730	204.800000
749.611206	200.200000
749.648682	190.400000
749.686218	192.800000
749.723633	195.800000
749.761169	191.100000
749.798645	187.500000
749.836060	191.800000
749.873596	188.600000
749.911011	193.100000
749.948547	198.300000
749.986023	191.700000
750.023437	190.500000
750.060913	186.400000
750.098450	186.400000
750.135864	192.000000
750.173340	191.800000
750.210815	197.000000
750.248291	186.200000
750.285767	192.100000
750.323242	199.400000
750.360657	194.800000
750.398132	187.300000
750.435608	195.900000
750.473022	187.200000
750.510498	187.700000
750.547974	188.500000
750.585449	190.500000
750.622925	181.700000
750.660339	201.400000
750.697815	192.900000
750.735291	190.900000
750.772644	194.500000
750.810120	192.700000
750.847595	195.300000
750.885010	187.800000
750.922485	202.500000
750.959961	190.300000
750.997375	200.900000
751.034851	196.600000
751.072266	199.000000
751.109680	184.800000
751.147156	198.800000
751.184570	194.700000
751.221985	194.300000
751.259460	182.600000
751.296875	192.600000
751.334290	192.100000
751.371765	198.400000
751.409180	195.600000
751.446594	199.700000
751.484070	193.600000
751.521423	195.900000
751.558899	193.900000
751.596375	202.100000
751.633728	199.400000
751.671204	206.100000
751.708618	187.700000
751.746033	193.900000
751.783447	187.200000
751.820801	189.500000
751.858276	194.800000
751.895691	192.500000
751.933105	189.200000
751.970520	187.900000
752.007935	190.300000
752.045349	198.900000
752.082764	193.100000
752.120178	191.200000
752.157532	188.500000
752.195007	190.000000
752.232422	195.100000
752.269775	197.800000
752.307190	196.500000
752.344543	187.800000
752.382019	190.900000
752.419434	191.400000
752.456787	194.400000
752.494202	195.700000
752.531616	195.700000
752.568970	196.000000
752.606384	194.400000
752.643799	193.900000
752.681152	202.800000
752.718567	195.600000
752.755981	185.600000
752.793335	194.800000
752.830750	185.200000
752.868164	199.100000
752.905518	188.900000
752.942932	197.700000
752.980225	189.100000
753.017639	197.400000
753.055054	191.400000
753.092407	193.900000
753.129822	198.700000
753.167175	201.500000
753.204529	193.800000
753.241943	189.200000
753.279358	187.400000
753.316650	195.800000
753.354065	195.200000
753.391479	197.600000
753.428772	200.800000
753.466187	196.700000
753.503479	188.900000
753.540894	190.500000
753.578308	187.900000
753.615601	187.100000
753.653015	193.600000
753.690369	192.100000
753.727722	190.100000
753.765076	186.300000
753.802490	187.600000
753.839783	183.000000
753.877136	189.400000
753.914551	207.400000
753.951843	188.700000
753.989258	195.900000
754.026611	194.000000
754.063904	195.800000
754.101257	188.500000
754.138611	184.800000
754.175964	193.600000
754.213318	205.600000
754.250610	183.400000
754.288025	191.000000
754.325378	186.700000
754.362671	199.500000
754.400024	191.800000
754.437378	203.700000
754.474670	202.200000
754.512085	190.700000
754.549438	194.100000
754.586731	190.900000
754.624084	191.400000
754.661438	189.400000
754.698730	200.300000
754.736084	190.600000
754.773376	190.800000
754.810730	196.000000
754.848083	190.600000
754.885315	198.100000
754.922668	185.000000
754.960022	188.400000
754.997314	196.900000
755.034668	195.300000
755.072021	192.200000
755.109253	191.500000
755.146606	200.600000
755.183960	191.900000
755.221252	203.200000
755.258545	200.400000
755.295898	198.200000
755.333191	203.700000
755.370544	196.600000
755.407776	195.000000
755.445129	194.700000
755.482422	200.100000
755.519714	191.700000
755.557068	188.900000
755.594360	187.200000
755.631653	200.700000
755.668945	203.800000
755.706299	199.200000
755.743530	208.800000
755.780884	203.800000
755.818176	202.700000
755.855408	202.100000
755.892761	200.400000
755.930054	197.700000
755.967346	198.500000
756.004639	200.900000
756.041870	197.900000
756.079224	202.300000
756.116516	195.400000
756.153748	199.600000
756.191040	205.100000
756.228394	200.000000
756.265625	195.000000
756.302917	198.000000
756.340210	195.500000
756.377441	203.300000
756.414795	207.200000
756.452087	198.600000
756.489319	194.900000
756.526611	202.300000
756.563843	201.900000
756.601135	211.100000
756.638428	209.100000
756.675659	198.000000
756.712952	205.300000
756.750244	202.500000
756.787476	203.000000
756.824768	206.200000
756.862061	198.900000
756.899292	246.100000
756.936584	206.900000
756.973816	211.300000
757.011047	213.800000
757.048340	202.700000
757.085632	201.800000
757.122864	217.400000
757.160156	200.800000
757.197327	204.200000
757.234619	206.800000
757.271912	202.000000
757.309082	208.600000
757.346375	199.300000
757.383667	210.100000
757.420837	204.800000
757.458130	204.300000
757.495422	203.200000
757.532593	207.000000
757.569885	197.800000
757.607117	199.000000
757.644348	205.800000
757.681580	217.800000
757.718811	193.700000
757.756042	205.000000
757.793335	203.000000
757.830505	208.300000
757.867798	202.600000
757.905029	202.800000
757.942200	208.300000
757.979492	201.900000
758.016724	205.100000
758.053894	204.400000
758.091187	226.300000
758.128418	204.700000
758.165588	206.800000
758.202820	217.500000
758.240112	211.500000
758.277283	216.300000
758.314514	210.200000
758.351685	203.200000
758.388916	217.800000
758.426147	216.400000
758.463379	218.700000
758.500610	211.100000
758.537842	211.100000
758.575012	215.300000
758.612244	204.700000
758.649475	221.500000
758.686646	204.700000
758.723877	216.400000
758.761108	217.600000
758.798279	209.500000
758.835510	212.700000
758.872742	216.000000
758.909851	213.700000
758.947083	214.800000
758.984253	213.800000
759.021484	217.100000
759.058716	216.300000
759.095886	216.200000
759.133057	212.100000
759.170288	216.400000
759.207458	209.700000
759.244690	223.900000
759.281860	223.500000
759.319031	212.800000
759.356262	212.300000
759.393433	212.000000
759.430603	211.900000
759.467773	212.200000
759.505005	220.000000
759.542175	220.100000
759.579346	214.100000
759.616516	215.200000
759.653687	216.400000
759.690918	212.400000
759.728027	215.700000
759.765259	217.000000
759.802429	218.700000
759.839539	218.900000
759.876770	221.500000
759.913940	225.800000
759.951111	217.100000
759.988281	217.500000
760.025452	213.600000
760.062561	213.000000
760.099792	225.400000
760.136963	221.500000
760.174072	214.700000
760.211243	211.800000
760.248413	212.500000
760.285583	214.600000
760.322754	227.000000
760.359863	226.000000
760.397034	225.500000
760.434204	218.300000
760.471375	219.100000
760.508545	217.700000
760.545715	218.200000
760.582825	215.200000
760.619995	223.900000
760.657166	214.500000
760.694275	225.900000
760.731445	223.000000
760.768555	221.800000
760.805664	224.600000
760.842834	221.600000
760.879944	226.400000
760.917114	223.800000
760.954285	221.200000
760.991394	215.700000
761.028564	228.100000
761.065674	227.600000
761.102783	219.600000
761.139954	228.300000
761.177124	228.900000
761.214172	232.300000
761.251343	223.100000
761.288452	226.700000
761.325562	229.100000
761.362732	222.500000
761.399841	225.800000
761.436951	229.600000
761.474121	223.100000
761.511169	230.900000
761.548340	232.200000
761.585449	233.700000
761.622559	233.400000
761.659668	231.700000
761.696838	237.000000
761.733887	235.600000
761.771057	230.100000
761.808167	233.100000
761.845276	238.000000
761.882385	246.700000
761.919434	233.600000
761.956604	256.200000
761.993713	230.500000
762.030762	244.500000
762.067871	235.700000
762.105042	236.600000
762.142090	243.500000
762.179199	240.900000
762.216309	243.100000
762.253418	256.800000
762.290527	249.100000
762.327637	246.300000
762.364685	234.500000
762.401794	245.700000
762.438904	241.700000
762.475952	239.400000
762.513062	237.300000
762.550110	238.600000
762.587219	252.600000
762.624329	255.300000
762.661377	245.800000
762.698486	244.700000
762.735596	245.400000
762.772644	239.300000
762.809753	237.900000
762.846863	245.800000
762.883911	249.800000
762.921021	250.900000
762.958069	248.500000
762.995117	256.000000
763.032227	256.400000
763.069336	247.800000
763.106323	243.600000
763.143433	241.300000
763.180481	252.300000
763.217590	250.500000
763.254639	248.300000
763.291687	250.900000
763.328735	258.600000
763.365845	251.100000
763.402893	251.500000
763.439941	253.800000
763.477051	258.600000
763.514038	258.500000
763.551147	253.100000
763.588196	255.800000
763.625244	256.200000
763.662292	263.100000
763.699402	266.000000
763.736389	261.500000
763.773499	271.000000
763.810486	263.400000
763.847534	260.000000
763.884644	263.200000
763.921631	259.700000
763.958679	271.800000
763.995728	261.900000
764.032776	270.600000
764.069824	255.900000
764.106873	266.000000
764.143860	274.000000
764.180969	265.100000
764.218018	274.100000
764.255005	265.700000
764.292053	269.000000
764.329102	279.300000
764.366089	278.100000
764.403137	276.500000
764.440125	265.700000
764.477173	270.000000
764.514221	271.000000
764.551208	268.800000
764.588257	265.500000
764.625305	277.900000
764.662292	282.100000
764.699341	287.600000
764.736389	277.200000
764.773376	294.600000
764.810425	282.300000
764.847473	289.800000
764.884399	283.200000
764.921448	290.800000
764.958435	289.600000
764.995483	278.700000
765.032532	294.300000
765.069458	282.900000
765.106506	281.900000
765.143555	281.500000
765.180481	286.300000
765.217529	295.000000
765.254578	277.800000
765.291504	289.000000
765.328552	286.300000
765.365540	284.300000
765.402527	298.600000
765.439575	284.400000
765.476501	278.000000
765.513550	282.800000
765.550537	286.600000
765.587463	295.900000
765.624512	285.200000
765.661499	277.800000
765.698486	296.500000
765.735474	286.800000
765.772461	288.000000
765.809448	296.300000
765.846436	294.700000
765.883423	299.700000
765.920410	292.700000
765.957397	289.900000
765.994385	294.900000
766.031311	303.200000
766.068359	297.000000
766.105286	298.700000
766.142273	303.200000
766.179260	297.500000
766.216187	294.700000
766.253174	290.300000
766.290161	300.100000
766.327148	304.400000
766.364136	304.000000
766.401123	319.100000
766.438049	296.600000
766.475037	311.400000
766.512024	309.300000
766.548950	323.300000
766.585937	319.000000
766.622864	313.900000
766.659790	311.200000
766.696777	301.500000
766.733704	319.400000
766.770691	308.600000
766.807678	324.500000
766.844604	320.600000
766.881531	323.900000
766.918518	326.500000
766.955444	330.500000
766.992432	321.500000
767.029358	326.100000
767.066284	327.200000
767.103271	326.800000
767.140198	354.700000
767.177124	344.100000
767.214050	334.200000
767.251038	336.700000
767.287964	331.900000
767.324890	330.400000
767.361816	336.100000
767.398743	345.500000
767.435730	339.700000
767.472595	342.300000
767.509583	347.800000
767.546509	336.500000
767.583374	343.200000
767.620361	338.300000
767.657288	345.800000
767.694214	344.200000
767.731140	344.400000
767.768066	345.800000
767.804993	349.000000
767.841919	342.200000
767.878845	349.100000
767.915710	356.200000
767.952698	351.200000
767.989563	352.200000
768.026489	355.700000
768.063416	349.300000
768.100281	351.800000
768.137207	367.800000
768.174133	363.000000
768.211060	363.700000
768.247986	363.800000
768.284912	362.900000
768.321777	365.100000
768.358704	362.400000
768.395630	369.100000
768.432495	361.000000
768.469421	370.800000
768.506348	376.900000
768.543152	383.300000
768.580078	377.400000
768.616943	379.000000
768.653870	382.000000
768.690796	381.900000
768.727661	378.100000
768.764587	380.800000
768.801453	376.400000
768.838318	388.100000
768.875244	382.500000
768.912109	391.200000
768.948975	382.700000
768.985901	387.400000
769.022766	388.200000
769.059631	395.200000
769.096558	386.000000
769.133362	389.900000
769.170288	391.700000
769.207214	392.000000
769.244019	400.700000
769.280945	399.000000
769.317810	405.700000
769.354675	401.500000
769.391541	407.800000
769.428406	405.500000
769.465271	417.700000
769.502136	405.300000
769.539062	410.300000
769.575867	407.900000
769.612732	410.000000
769.649597	416.800000
769.686462	422.500000
769.723328	415.400000
769.760193	411.700000
769.797058	417.700000
769.833923	424.500000
769.870728	423.400000
769.907593	425.000000
769.944519	425.200000
769.981323	429.600000
770.018188	429.500000
770.055054	427.100000
770.091858	427.300000
770.128723	440.700000
770.165588	445.300000
770.202393	429.100000
770.239258	442.100000
770.276062	438.000000
770.312927	436.900000
770.349792	448.300000
770.386597	444.500000
770.423462	454.500000
770.460327	459.200000
770.497131	444.500000
770.533997	437.800000
770.570862	456.400000
770.607605	456.100000
770.644470	450.800000
770.681335	448.300000
770.718140	450.100000
770.754944	438.600000
770.791809	444.900000
770.828613	446.000000
770.865479	447.500000
770.902222	456.300000
770.939087	451.100000
770.975952	442.500000
771.012695	450.800000
771.049561	465.600000
771.086365	452.800000
771.123169	447.400000
771.159973	455.500000
771.196838	453.500000
771.233582	456.200000
771.270447	457.200000
771.307251	459.500000
771.344055	457.700000
771.380859	462.800000
771.417664	455.300000
771.454468	465.200000
771.491272	467.900000
771.528076	467.500000
771.564880	465.700000
771.601685	473.800000
771.638428	465.200000
771.675293	472.700000
771.712097	463.200000
771.748840	481.100000
771.785645	472.900000
771.822449	473.800000
771.859253	481.200000
771.896057	474.100000
771.932861	492.300000
771.969604	480.100000
772.006409	475.300000
772.043213	488.000000
772.079956	486.600000
772.116760	478.100000
772.153503	486.000000
772.190308	496.000000
772.227112	486.500000
772.263855	479.800000
772.300659	488.900000
772.337463	495.300000
772.374207	490.200000
772.411011	482.700000
772.447754	494.400000
772.484497	508.500000
772.521301	503.700000
772.558105	500.100000
772.594849	503.200000
772.631592	509.300000
772.668396	506.900000
772.705139	516.400000
772.741882	517.600000
772.778625	525.400000
772.815430	531.500000
772.852173	522.300000
772.888916	535.900000
772.925720	540.100000
772.962463	548.900000
772.999207	537.800000
773.035950	546.300000
773.072754	547.700000
773.109436	543.100000
773.146240	544.300000
773.182922	546.600000
773.219727	553.500000
773.256470	549.200000
773.293152	535.100000
773.329956	545.400000
773.366699	553.200000
773.403381	547.000000
773.440186	558.100000
773.476929	555.400000
773.513611	552.700000
773.550354	558.100000
773.587158	557.100000
773.623840	549.300000
773.660583	565.400000
773.697327	580.600000
773.734009	568.700000
773.770813	570.400000
773.807495	568.600000
773.844238	571.800000
773.880981	589.600000
773.917664	584.500000
773.954407	594.400000
773.991150	580.800000
774.027832	588.900000
774.064575	577.800000
774.101318	588.600000
774.138000	596.600000
774.174744	589.800000
774.211487	594.800000
774.248108	586.600000
774.284851	587.200000
774.321594	596.200000
774.358276	604.600000
774.395020	612.300000
774.431702	606.700000
774.468384	603.000000
774.505127	599.100000
774.541809	617.100000
774.578491	629.900000
774.615234	630.500000
774.651917	618.800000
774.688599	625.400000
774.725342	628.600000
774.762024	632.500000
774.798706	639.400000
774.835449	642.200000
774.872070	647.000000
774.908813	638.400000
774.945496	635.100000
774.982178	639.500000
775.018860	645.300000
775.055542	650.300000
775.092224	653.300000
775.128967	654.300000
775.165588	651.300000
775.202271	642.200000
775.239014	661.400000
775.275635	662.000000
775.312317	655.600000
775.349060	662.300000
775.385681	660.900000
775.422363	653.000000
775.459045	668.900000
775.495667	669.300000
775.532410	674.300000
775.569092	672.500000
775.605713	673.200000
775.642395	670.400000
775.679016	678.800000
775.715698	682.600000
775.752380	687.200000
775.789001	677.100000
775.825684	675.700000
775.862366	676.900000
775.898987	692.500000
775.935669	679.600000
775.972351	708.400000
776.008972	699.800000
776.045654	699.000000
776.082336	693.900000
776.118958	697.600000
776.155640	698.800000
776.192322	710.000000
776.228882	713.000000
776.265564	710.700000
776.302185	702.800000
776.338867	706.300000
776.375488	691.300000
776.412109	712.100000
776.448792	718.200000
776.485413	722.900000
776.522034	708.900000
776.558716	701.300000
776.595337	703.800000
776.631958	712.600000
776.668579	711.600000
776.705261	721.500000
776.741882	713.800000
776.778503	712.100000
776.815186	706.400000
776.851746	716.100000
776.888367	719.900000
776.924988	723.200000
776.961609	716.200000
776.998291	717.900000
777.034851	707.200000
777.071472	721.100000
777.108154	720.400000
777.144714	730.100000
777.181335	732.000000
777.218018	722.200000
777.254578	727.900000
777.291199	728.400000
777.327759	736.100000
777.364380	742.900000
777.401062	747.500000
777.437622	759.000000
777.474243	744.300000
777.510864	754.300000
777.547424	755.600000
777.584045	758.400000
777.620667	759.700000
777.657227	765.700000
777.693848	766.300000
777.730469	781.000000
777.767029	773.500000
777.803650	775.400000
777.840271	770.400000
777.876831	767.900000
777.913452	778.000000
777.950012	761.700000
777.986633	761.400000
778.023193	757.100000
778.059753	762.300000
778.096375	764.900000
778.132996	779.100000
778.169556	763.700000
778.206116	766.400000
778.242737	763.500000
778.279297	778.900000
778.315857	770.000000
778.352478	777.900000
778.389038	788.200000
778.425598	789.700000
778.462219	801.000000
778.498718	797.800000
778.535339	813.500000
778.571838	813.200000
778.608459	822.400000
778.645020	810.800000
778.681580	823.100000
778.718140	828.700000
778.754761	820.700000
778.791260	825.000000
778.827881	840.100000
778.864441	834.100000
778.900940	836.700000
778.937561	841.800000
778.974121	842.200000
779.010620	821.900000
779.047241	830.900000
779.083801	842.300000
779.120300	843.100000
779.156860	844.600000
779.193359	844.000000
779.229980	849.200000
779.266541	858.300000
779.303040	859.600000
779.339600	851.300000
779.376160	848.000000
779.412659	858.900000
779.449219	851.500000
779.485779	865.100000
779.522278	860.800000
779.558838	873.400000
779.595398	872.200000
779.631897	873.500000
779.668457	861.100000
779.705017	874.600000
779.741516	863.200000
779.778076	859.400000
779.814575	869.200000
779.851074	882.100000
779.887634	873.200000
779.924133	884.100000
779.960693	872.400000
779.997253	880.400000
780.033691	884.300000
780.070251	890.700000
780.106812	900.200000
780.143250	897.600000
780.179810	896.300000
780.216370	902.400000
780.252808	909.500000
780.289368	923.900000
780.325867	924.000000
780.362366	922.300000
780.398865	930.900000
780.435364	928.900000
780.471863	945.700000
780.508423	940.800000
780.544861	946.900000
780.581421	950.600000
780.617920	942.800000
780.654419	935.500000
780.690918	946.100000
780.727417	954.900000
780.763916	951.900000
780.800415	960.800000
780.836914	948.700000
780.873352	947.200000
780.909912	942.800000
780.946411	951.400000
780.982849	965.500000
781.019348	982.500000
781.055786	976.500000
781.092346	969.300000
781.128845	978.900000
781.165283	983.800000
781.201782	993.300000
781.238281	995.500000
781.274719	1001.500000
781.311218	989.300000
781.347717	996.500000
781.384155	987.600000
781.420654	993.200000
781.457092	1004.100000
781.493591	1001.100000
781.530090	988.100000
781.566528	996.900000
781.602966	1005.900000
781.639465	995.100000
781.675903	991.700000
781.712402	1009.500000
781.748901	1016.400000
781.785278	998.600000
781.821777	1011.400000
781.858276	1010.000000
781.894714	1026.800000
781.931152	1018.800000
781.967651	1022.300000
782.004089	1011.800000
782.040527	1017.100000
782.076965	1024.900000
782.113403	1024.300000
782.149902	1023.700000
782.186340	1025.500000
782.222778	1044.700000
782.259277	1025.700000
782.295654	1015.400000
782.332092	1025.000000
782.368591	1020.000000
782.404968	1010.900000
782.441467	1016.100000
782.477905	1016.700000
782.514282	1009.200000
782.550781	1030.600000
782.587219	1024.700000
782.623596	1034.300000
782.660095	1035.300000
782.696472	1043.500000
782.732910	1046.900000
782.769348	1052.400000
782.805786	1064.200000
782.842224	1060.700000
782.878662	1052.100000
782.915039	1053.400000
782.951477	1056.200000
782.987915	1050.800000
783.024292	1061.300000
783.060730	1056.900000
783.097168	1045.000000
783.133545	1036.200000
783.169983	1028.800000
783.206421	1026.800000
783.242798	1028.100000
783.279236	1011.800000
783.315613	1006.300000
783.352051	1000.900000
783.388489	992.400000
783.424866	983.100000
783.461304	989.900000
783.497681	995.800000
783.534058	987.500000
783.570496	983.600000
783.606934	981.600000
783.643250	992.500000
783.679687	999.200000
783.716125	994.700000
783.752441	996.100000
783.788879	1002.300000
783.825317	964.300000
783.861633	882.700000
783.898071	748.000000
783.934448	615.400000
783.970825	520.300000
784.007263	483.500000
784.043579	536.200000
784.080017	632.900000
784.116394	749.000000
784.152710	867.100000
784.189148	975.300000
784.225525	1039.700000
784.261902	1061.700000
784.298279	1070.900000
784.334656	1083.900000
784.371033	1081.400000
784.407410	1087.600000
784.443787	1069.700000
784.480164	1057.000000
784.516541	1032.500000
784.552856	1038.700000
784.589233	1028.300000
784.625610	1023.600000
784.661987	1056.900000
784.698364	1043.000000
784.734741	1038.000000
784.771057	1045.700000
784.807434	1045.800000
784.843811	1066.200000
784.880127	1068.400000
784.916504	1095.500000
784.952881	1108.700000
784.989197	1096.100000
785.025574	1089.900000
785.061951	1106.000000
785.098267	1136.200000
785.134644	1135.400000
785.170959	1135.900000
785.207275	1136.600000
785.243652	1134.000000
785.279968	1119.400000
785.316345	1133.200000
785.352722	1136.700000
785.388977	1132.600000
785.425354	1114.800000
785.461731	1093.700000
785.498047	1083.100000
785.534363	1078.200000
785.570679	1077.800000
785.606995	1079.100000
785.643372	1087.400000
785.679687	1078.500000
785.716003	1063.800000
785.752380	1059.000000
785.788635	1066.700000
785.825012	1093.000000
785.861328	1106.800000
785.897644	1094.400000
785.933960	1100.100000
785.970337	1110.200000
786.006592	1122.400000
786.042908	1135.400000
786.079285	1151.700000
786.115540	1161.000000
786.151855	1163.700000
786.188171	1155.100000
786.224487	1157.300000
786.260803	1157.600000
786.297119	1178.700000
786.333435	1177.300000
786.369751	1170.400000
786.406006	1174.700000
786.442322	1153.000000
786.478638	1152.000000
786.514954	1162.800000
786.551270	1162.700000
786.587585	1173.100000
786.623840	1159.400000
786.660156	1150.300000
786.696472	1134.900000
786.732727	1125.900000
786.769043	1138.100000
786.805298	1128.100000
786.841614	1129.000000
786.877930	1133.400000
786.914124	1113.300000
786.950439	1128.800000
786.986755	1140.500000
787.023010	1155.900000
787.059326	1166.600000
787.095642	1162.900000
787.131836	1181.700000
787.168152	1165.600000
787.204468	1176.400000
787.240723	1203.000000
787.276978	1216.900000
787.313293	1221.400000
787.349548	1218.700000
787.385803	1219.300000
787.422058	1205.700000
787.458313	1215.600000
787.494629	1216.200000
787.530823	1219.200000
787.567139	1204.200000
787.603455	1190.000000
787.639648	1169.700000
787.675903	1174.600000
787.712219	1181.000000
787.748413	1180.100000
787.784729	1188.800000
787.820984	1170.100000
787.857178	1161.200000
787.893494	1149.200000
787.929749	1144.400000
787.965942	1152.000000
788.002258	1167.000000
788.038452	1178.400000
788.074707	1161.900000
788.110962	1165.500000
788.147217	1161.400000
788.183472	1177.500000
788.219727	1189.500000
788.255920	1206.200000
788.292175	1205.900000
788.328430	1205.100000
788.364624	1182.300000
788.400879	1180.200000
788.437134	1189.600000
788.473328	1187.100000
788.509583	1180.300000
788.545837	1175.200000
788.582031	1166.100000
788.618286	1152.700000
788.654480	1148.500000
788.690735	1169.600000
788.726990	1182.900000
788.763184	1183.500000
788.799377	1193.800000
788.835632	1185.100000
788.871826	1193.600000
788.908081	1193.500000
788.944336	1193.800000
788.980469	1217.500000
789.016724	1210.300000
789.052979	1199.000000
789.089111	1180.300000
789.125366	1183.200000
789.161621	1166.100000
789.197754	1178.200000
789.234009	1170.900000
789.270142	1162.300000
789.306396	1149.900000
789.342590	1138.400000
789.378784	1113.300000
789.414978	1110.500000
789.451233	1133.600000
789.487366	1130.300000
789.523621	1143.500000
789.559814	1127.200000
789.595947	1119.800000
789.632202	1127.300000
789.668335	1143.300000
789.704529	1166.300000
789.740784	1192.000000
789.776917	1182.500000
789.813110	1167.600000
789.849304	1182.800000
789.885498	1188.000000
789.921692	1204.600000
789.957886	1212.200000
789.994019	1216.300000
790.030212	1202.400000
790.066406	1199.800000
790.102539	1196.700000
790.138733	1203.800000
790.174927	1208.800000
790.211060	1219.100000
790.247253	1204.400000
790.283386	1189.700000
790.319580	1171.600000
790.355774	1153.900000
790.391907	1166.900000
790.428101	1190.400000
790.464294	1191.400000
790.500427	1191.700000
790.536621	1177.100000
790.572754	1154.200000
790.608887	1160.000000
790.645081	1174.800000
790.681274	1187.900000
790.717346	1177.900000
790.753540	1143.200000
790.789734	1071.900000
790.825867	1014.700000
790.862000	1005.100000
790.898132	1044.100000
790.934265	1099.900000
790.970459	1155.800000
791.006592	1175.300000
791.042725	1180.000000
791.078918	1167.000000
791.114990	1173.700000
791.151184	1185.300000
791.187317	1216.700000
791.223389	1205.600000
791.259583	1190.700000
791.295715	1191.700000
791.331848	1192.400000
791.367981	1205.700000
791.404114	1215.100000
791.440247	1211.500000
791.476379	1210.200000
791.512451	1193.000000
791.548584	1194.400000
791.584778	1196.300000
791.620850	1217.600000
791.656982	1228.500000
791.693115	1215.800000
791.729187	1208.400000
791.765381	1199.400000
791.801514	1194.700000
791.837585	1198.500000
791.873718	1219.400000
791.909851	1225.500000
791.945923	1231.600000
791.982056	1192.500000
792.018188	1187.900000
792.054260	1192.100000
792.090393	1195.200000
792.126465	1190.300000
792.162598	1198.100000
792.198669	1183.700000
792.234741	1182.600000
792.270874	1170.600000
792.307007	1155.600000
792.343079	1165.100000
792.379150	1178.800000
792.415283	1159.600000
792.451355	1166.100000
792.487488	1142.800000
792.523560	1145.000000
792.559631	1141.700000
792.595764	1138.000000
792.631836	1149.000000
792.667908	1155.900000
792.703979	1137.100000
792.740051	1136.400000
792.776184	1145.600000
792.812256	1142.400000
792.848328	1154.600000
792.884399	1155.800000
792.920471	1155.200000
792.956543	1148.000000
792.992615	1150.700000
793.028748	1141.800000
793.064758	1153.500000
793.100830	1171.000000
793.136963	1184.800000
793.172974	1170.500000
793.209045	1166.300000
793.245178	1175.000000
793.281189	1154.100000
793.317261	1169.300000
793.353271	1176.700000
793.389404	1178.400000
793.425476	1171.500000
793.461487	1155.800000
793.497559	1151.000000
793.533630	1156.300000
793.569641	1156.400000
793.605713	1161.700000
793.641785	1168.000000
793.677795	1176.800000
793.713867	1157.300000
793.749878	1154.800000
793.785950	1179.500000
793.822021	1187.900000
793.858032	1163.400000
793.894104	1172.900000
793.930176	1163.700000
793.966187	1163.500000
794.002258	1158.800000
794.038269	1163.600000
794.074280	1158.300000
794.110352	1182.900000
794.146423	1158.000000
794.182373	1146.000000
794.218445	1138.900000
794.254517	1133.700000
794.290466	1120.300000
794.326538	1123.700000
794.362549	1130.500000
794.398560	1139.300000
794.434631	1129.100000
794.470581	1097.000000
794.506653	1094.700000
794.542664	1101.000000
794.578674	1092.400000
794.614685	1086.500000
794.650757	1089.700000
794.686707	1089.800000
794.722778	1075.900000
794.758789	1084.000000
794.794739	1085.300000
794.830811	1115.000000
794.866821	1135.000000
794.902771	1121.200000
794.938843	1110.300000
794.974792	1108.800000
795.010803	1102.800000
795.046814	1107.800000
795.082825	1091.900000
795.118835	1107.400000
795.154846	1092.300000
795.190796	1098.900000
795.226807	1073.300000
795.262817	1079.300000
795.298767	1077.300000
795.334778	1081.400000
795.370850	1072.400000
795.406799	1075.800000
795.442810	1053.100000
795.478821	1047.300000
795.514709	1047.300000
795.550720	1067.700000
795.586670	1049.400000
795.622681	1060.100000
795.658691	1052.200000
795.694641	1045.300000
795.730652	1034.700000
795.766663	1044.900000
795.802551	1047.700000
795.838562	1060.500000
795.874573	1046.900000
795.910522	1043.900000
795.946472	1032.300000
795.982483	1036.600000
796.018433	1043.100000
796.054382	1053.200000
796.090393	1042.500000
796.126282	1033.000000
796.162292	1018.400000
796.198242	1006.600000
796.234192	1014.600000
796.270203	1015.500000
796.306091	1019.700000
796.342041	1032.500000
796.378052	1027.200000
796.413940	1017.000000
796.449951	1017.600000
796.485901	1014.600000
796.521790	1014.900000
796.557800	1031.100000
796.593689	1026.700000
796.629639	1007.500000
796.665649	1011.200000
796.701599	1009.700000
796.737488	1007.000000
796.773437	1012.200000
796.809387	1018.100000
796.845337	1007.900000
796.881287	995.000000
796.917175	977.000000
796.953125	982.300000
796.989075	993.700000
797.024963	999.800000
797.060913	999.400000
797.096863	999.100000
797.132751	986.700000
797.168701	972.400000
797.204590	980.500000
797.240540	977.600000
797.276489	984.200000
797.312439	989.800000
797.348328	982.800000
797.384277	970.300000
797.420166	964.700000
797.456055	963.800000
797.492004	962.100000
797.527893	976.500000
797.563843	979.400000
797.599731	956.900000
797.635620	945.800000
797.671570	955.600000
797.707520	956.500000
797.743347	959.400000
797.779297	964.900000
797.815125	955.800000
797.851074	949.400000
797.887024	938.400000
797.922913	934.600000
797.958801	948.300000
797.994690	949.000000
798.030579	950.500000
798.066467	954.100000
798.102356	933.300000
798.138245	929.700000
798.174133	926.700000
798.210083	935.200000
798.245911	945.100000
798.281799	947.400000
798.317749	936.200000
798.353577	928.700000
798.389465	928.800000
798.425293	924.600000
798.461243	923.800000
798.497131	923.600000
798.532959	921.700000
798.568848	930.900000
798.604736	914.000000
798.640564	898.800000
798.676453	901.800000
798.712402	908.100000
798.748230	916.000000
798.784119	915.200000
798.820007	916.800000
798.855835	909.700000
798.891724	901.000000
798.927551	897.600000
798.963379	910.400000
798.999268	902.600000
799.035095	899.800000
799.070984	892.300000
799.106873	877.100000
799.142700	893.100000
799.178528	879.600000
799.214417	878.500000
799.250244	896.800000
799.286133	889.900000
799.321960	881.700000
799.357788	876.900000
799.393677	880.900000
799.429504	875.700000
799.465332	882.000000
799.501221	892.300000
799.537048	884.300000
799.572876	872.700000
799.608704	877.600000
799.644531	885.300000
799.680359	882.300000
799.716248	886.200000
799.752014	892.000000
799.787903	875.700000
799.823730	873.000000
799.859558	866.600000
799.895386	869.600000
799.931213	869.300000
799.967041	861.000000
800.002869	861.000000
800.038696	874.600000
800.074463	846.100000
800.110352	854.600000
800.146179	844.400000
800.181946	854.100000
800.217773	852.000000
800.253540	849.300000
800.289429	843.800000
800.325256	842.000000
800.361023	834.400000
800.396851	838.100000
800.432678	833.100000
800.468445	834.800000
800.504272	826.900000
800.540100	809.700000
800.575867	807.500000
800.611694	814.900000
800.647461	807.000000
800.683289	807.200000
800.719116	813.000000
800.754883	803.100000
800.790649	785.400000
800.826477	777.800000
800.862244	805.100000
800.898071	782.400000
800.933838	782.700000
800.969604	780.700000
801.005432	776.300000
801.041199	775.800000
801.076965	773.900000
801.112793	762.100000
801.148560	753.300000
801.184326	756.500000
801.220154	760.900000
801.255859	744.700000
801.291687	743.700000
801.327454	736.400000
801.363281	742.000000
801.398987	739.700000
801.434814	742.300000
801.470520	752.400000
801.506287	735.400000
801.542114	729.800000
801.577820	733.400000
801.613647	728.700000
801.649414	722.500000
801.685120	724.300000
801.720886	730.800000
801.756714	719.100000
801.792419	710.500000
801.828186	704.600000
801.863892	714.200000
801.899719	706.200000
801.935486	704.800000
801.971252	707.300000
802.006958	703.100000
802.042725	694.200000
802.078430	695.900000
802.114197	692.900000
802.149963	705.400000
802.185669	690.700000
802.221436	692.400000
802.257202	691.200000
802.292908	688.200000
802.328674	696.600000
802.364441	694.600000
802.400146	691.800000
802.435913	688.100000
802.471558	684.300000
802.507324	676.700000
802.543091	669.200000
802.578796	681.300000
802.614502	685.000000
802.650269	685.600000
802.685974	667.400000
802.721741	673.500000
802.757446	674.900000
802.793152	670.600000
802.828918	677.900000
802.864624	671.900000
802.900330	670.400000
802.936035	667.400000
802.971802	665.800000
803.007446	662.100000
803.043213	654.900000
803.078857	658.500000
803.114624	647.300000
803.150330	652.300000
803.185974	643.400000
803.221741	640.400000
803.257446	647.800000
803.293152	650.000000
803.328857	642.900000
803.364563	637.500000
803.400208	629.400000
803.435974	640.500000
803.471680	632.400000
803.507324	626.800000
803.543030	632.100000
803.578735	633.000000
803.614441	626.000000
803.650146	629.200000
803.685791	619.100000
803.721497	618.000000
803.757202	608.200000
803.792847	621.500000
803.828552	609.000000
803.864258	612.100000
803.899902	610.800000
803.935608	592.500000
803.971313	599.600000
804.006958	600.700000
804.042664	596.900000
804.078308	604.500000
804.113953	598.800000
804.149658	602.800000
804.185364	590.600000
804.221008	600.100000
804.256714	587.300000
804.292297	586.400000
804.328003	585.000000
804.363708	575.000000
804.399292	577.200000
804.434998	576.500000
804.470703	568.100000
804.506287	584.400000
804.541992	575.100000
804.577637	579.100000
804.613281	568.300000
804.648926	564.400000
804.684570	571.200000
804.720215	564.800000
804.755920	566.000000
804.791565	560.400000
804.827209	565.700000
804.862854	560.100000
804.898437	551.900000
804.934143	553.300000
804.969788	553.400000
805.005371	556.700000
805.041077	555.700000
805.076721	555.700000
805.112305	544.400000
805.147949	545.800000
805.183655	542.500000
805.219238	547.700000
805.254883	546.600000
805.290466	549.400000
805.326111	542.000000
805.361755	537.300000
805.397400	535.900000
805.432983	540.500000
805.468628	542.000000
805.504211	546.400000
805.539856	543.600000
805.575500	543.700000
805.611084	536.500000
805.646729	523.700000
805.682373	527.100000
805.717957	536.900000
805.753601	539.900000
805.789246	525.300000
805.824768	533.900000
805.860413	535.400000
805.895996	523.200000
805.931641	525.300000
805.967224	528.700000
806.002869	524.500000
806.038452	534.400000
806.074036	529.100000
806.109619	518.300000
806.145264	512.300000
806.180847	518.100000
806.216431	510.500000
806.252014	516.200000
806.287659	512.700000
806.323181	523.900000
806.358826	516.600000
806.394409	497.100000
806.429993	499.400000
806.465576	515.500000
806.501160	499.000000
806.536743	491.300000
806.572327	502.200000
806.607910	497.300000
806.643494	496.300000
806.679077	494.300000
806.714661	495.800000
806.750244	496.900000
806.785828	485.800000
806.821350	487.200000
806.856934	493.000000
806.892517	491.600000
806.928101	482.300000
806.963684	483.800000
806.999268	491.000000
807.034790	474.400000
807.070374	477.200000
807.105896	473.200000
807.141479	468.200000
807.177063	477.200000
807.212585	467.300000
807.248169	469.300000
807.283752	473.900000
807.319275	465.500000
807.354858	465.600000
807.390381	464.200000
807.425903	460.600000
807.461487	460.900000
807.497070	450.500000
807.532593	454.000000
807.568115	451.400000
807.603699	446.600000
807.639221	447.000000
807.674744	449.100000
807.710266	452.200000
807.745850	455.700000
807.781372	447.800000
807.816895	445.100000
807.852417	445.000000
807.888000	444.900000
807.923523	438.200000
807.959045	444.000000
807.994629	431.300000
808.030090	429.400000
808.065613	436.300000
808.101135	435.000000
808.136658	434.800000
808.172241	431.600000
808.207764	433.100000
808.243225	424.300000
808.278809	423.900000
808.314270	433.100000
808.349792	421.100000
808.385315	418.100000
808.420837	422.500000
808.456360	427.700000
808.491882	424.800000
808.527344	420.600000
808.562866	429.100000
808.598389	422.400000
808.633850	412.900000
808.669434	411.200000
808.704895	421.300000
808.740417	423.000000
808.775940	414.800000
808.811462	408.800000
808.846924	403.900000
808.882385	398.400000
808.917847	399.200000
808.953369	400.600000
808.988892	395.900000
809.024353	405.300000
809.059875	404.200000
809.095398	398.200000
809.130798	392.700000
809.166321	391.800000
809.201843	392.100000
809.237305	392.900000
809.272766	398.700000
809.308228	383.100000
809.343750	382.200000
809.379211	387.900000
809.414734	387.200000
809.450134	395.400000
809.485657	376.100000
809.521118	386.900000
809.556580	380.400000
809.592102	379.900000
809.627502	377.900000
809.663025	376.600000
809.698486	372.400000
809.733887	368.500000
809.769409	372.300000
809.804871	361.100000
809.840271	365.100000
809.875793	369.000000
809.911194	371.000000
809.946655	363.500000
809.982178	358.200000
810.017639	362.800000
810.053040	359.000000
810.088501	359.600000
810.123901	357.000000
810.159424	353.600000
810.194885	347.400000
810.230286	356.400000
810.265747	349.400000
810.301208	346.900000
810.336609	347.600000
810.372070	341.800000
810.407532	343.600000
810.442932	346.300000
810.478394	349.800000
810.513794	347.900000
810.549255	341.900000
810.584717	343.100000
810.620117	336.600000
810.655518	345.600000
810.690979	340.300000
810.726379	342.200000
810.761841	330.000000
810.797302	330.600000
810.832642	330.800000
810.868103	342.400000
810.903564	329.300000
810.938904	335.800000
810.974365	322.300000
811.009827	329.000000
811.045166	325.000000
811.080627	318.000000
811.115967	325.800000
811.151428	334.300000
811.186829	323.700000
811.222229	326.000000
811.257629	318.100000
811.293091	324.400000
811.328430	330.800000
811.363892	324.500000
811.399292	328.200000
811.434631	318.700000
811.470093	325.300000
811.505493	313.800000
811.540833	319.000000
811.576294	320.100000
811.611694	318.900000
811.647034	311.300000
811.682434	316.100000
811.717773	317.600000
811.753235	320.000000
811.788635	313.900000
811.823975	317.500000
811.859375	322.800000
811.894775	307.400000
811.930115	309.100000
811.965515	311.300000
812.000916	313.600000
812.036255	309.800000
812.071655	313.400000
812.106995	305.800000
812.142395	304.700000
812.177795	315.700000
812.213196	311.400000
812.248474	311.100000
812.283875	301.000000
812.319214	306.700000
812.354614	306.300000
812.390015	302.600000
812.425293	302.500000
812.460693	303.000000
812.496094	298.400000
812.531433	295.100000
812.566772	294.700000
812.602173	297.100000
812.637451	298.300000
812.672852	293.900000
812.708191	297.700000
812.743530	291.700000
812.778931	284.900000
812.814270	289.700000
812.849609	297.000000
812.884949	291.600000
812.920227	285.800000
812.955627	300.900000
812.990967	292.700000
813.026306	284.600000
813.061646	277.000000
813.096985	275.000000
813.132324	273.400000
813.167664	276.700000
813.203003	284.400000
813.238281	270.500000
813.273682	271.300000
813.308960	268.500000
813.344299	270.600000
813.379639	279.400000
813.414978	271.300000
813.450256	271.100000
813.485596	276.400000
813.520874	265.400000
813.556213	271.400000
813.591614	273.300000
813.626831	267.400000
813.662170	269.000000
813.697510	280.700000
813.732788	261.100000
813.768127	269.000000
813.803467	269.800000
813.838745	264.900000
813.874084	268.100000
813.909363	269.600000
813.944641	269.400000
813.979980	258.600000
814.015320	262.900000
814.050598	261.400000
814.085876	264.800000
814.121155	260.600000
814.156494	261.000000
814.191772	263.200000
814.227051	258.000000
814.262390	260.600000
814.297668	260.400000
814.332947	262.400000
814.368225	254.600000
814.403564	257.000000
814.438782	254.300000
814.474121	257.000000
814.509338	252.500000
814.544617	260.400000
814.579956	250.400000
814.615173	261.800000
814.650513	258.200000
814.685791	251.400000
814.721008	254.300000
814.756348	252.200000
814.791626	248.500000
814.826843	249.900000
814.862122	252.500000
814.897400	246.600000
814.932678	252.100000
814.967957	249.700000
815.003235	249.000000
815.038452	242.900000
815.073730	241.900000
815.108948	250.500000
815.144226	249.900000
815.179504	251.300000
815.214722	237.500000
815.250000	234.600000
815.285278	246.400000
815.320496	238.100000
815.355774	242.000000
815.391052	244.700000
815.426270	240.300000
815.461487	238.200000
815.496765	234.400000
815.531982	230.600000
815.567261	237.100000
815.602539	245.900000
815.637695	240.600000
815.672974	240.500000
815.708191	242.900000
815.743408	242.600000
815.778687	236.300000
815.813904	244.900000
815.849121	227.700000
815.884399	230.100000
815.919556	230.500000
815.954834	230.600000
815.990051	234.500000
816.025269	240.500000
816.060486	230.100000
816.095703	227.900000
816.130920	233.400000
816.166199	227.700000
816.201416	233.600000
816.236572	237.200000
816.271851	228.300000
816.307007	234.700000
816.342224	223.800000
816.377441	228.200000
816.412659	220.900000
816.447876	232.300000
816.483093	226.000000
816.518250	228.200000
816.553467	224.500000
816.588745	231.100000
816.623901	221.200000
816.659119	218.500000
816.694275	221.500000
816.729492	220.200000
816.764709	254.000000
816.799927	216.800000
816.835083	221.000000
816.870300	214.700000
816.905457	219.600000
816.940674	223.200000
816.975830	216.500000
817.010986	214.900000
817.046204	217.100000
817.081421	214.900000
817.116577	213.800000
817.151733	223.400000
817.186951	221.500000
817.222107	219.200000
817.257324	221.200000
817.292419	218.600000
817.327637	210.000000
817.362854	216.100000
817.398010	211.400000
817.433167	212.100000
817.468323	213.900000
817.503479	213.500000
817.538635	220.700000
817.573853	216.900000
817.608948	215.300000
817.644165	210.000000
817.679321	209.400000
817.714478	208.100000
817.749634	213.900000
817.784790	225.700000
817.819946	219.500000
817.855103	201.200000
817.890198	210.900000
817.925415	203.600000
817.960571	213.000000
817.995667	209.400000
818.030823	213.200000
818.066040	206.500000
818.101135	211.000000
818.136292	207.700000
818.171448	204.200000
818.206543	209.000000
818.241699	212.800000
818.276855	209.100000
818.311951	207.100000
818.347107	203.700000
818.382263	210.100000
818.417358	215.400000
818.452515	217.000000
818.487610	214.100000
818.522766	204.600000
818.557922	215.000000
818.593018	210.300000
818.628113	207.500000
818.663269	203.400000
818.698364	205.600000
818.733521	204.800000
818.768677	208.800000
818.803711	200.400000
818.838867	202.300000
818.874023	205.500000
818.909058	200.700000
818.944214	202.600000
818.979370	208.200000
819.014404	206.000000
819.049561	200.300000
819.084595	206.500000
819.119751	197.700000
819.154846	206.800000
819.189941	202.400000
819.225037	198.100000
819.260193	193.000000
819.295227	196.700000
819.330322	192.400000
819.365479	193.000000
819.400513	225.900000
819.435608	191.800000
819.470764	190.900000
819.505798	194.500000
819.540894	196.700000
819.575989	193.400000
819.611084	204.800000
819.646179	203.600000
819.681213	201.500000
819.716309	196.700000
819.751404	197.600000
819.786438	200.700000
819.821533	194.600000
819.856628	199.800000
819.891663	203.300000
819.926758	206.900000
819.961853	205.100000
819.996887	194.800000
820.031982	201.600000
820.067017	195.800000
820.102112	224.500000
820.137207	195.200000
820.172302	213.100000
820.207275	193.600000
820.242371	195.000000
820.277405	193.300000
820.312500	196.800000
820.347534	197.800000
820.382568	203.200000
820.417664	193.800000
820.452759	194.000000
820.487732	191.800000
820.522827	194.400000
820.557861	190.700000
820.592896	195.500000
820.627930	194.300000
820.662964	193.200000
820.698059	197.400000
820.733093	194.900000
820.768127	199.600000
820.803162	195.600000
820.838196	191.700000
820.873230	196.500000
820.908264	194.800000
820.943298	192.600000
820.978333	200.300000
821.013367	194.700000
821.048401	199.200000
821.083435	200.600000
821.118469	186.600000
821.153503	199.200000
821.188477	197.500000
821.223511	187.700000
821.258484	195.000000
821.293579	196.700000
821.328613	188.600000
821.363647	193.300000
821.398621	188.400000
821.433655	190.700000
821.468628	207.300000
821.503662	192.300000
821.538696	196.900000
821.573669	188.200000
821.608704	197.900000
821.643677	190.700000
821.678650	198.700000
821.713684	202.100000
821.748718	192.400000
821.783691	193.100000
821.818726	193.900000
821.853638	194.200000
821.888672	193.200000
821.923706	193.400000
821.958618	191.600000
821.993652	189.800000
822.028687	199.200000
822.063599	198.800000
822.098633	194.900000
822.133667	189.400000
822.168579	191.800000
822.203613	194.400000
822.238586	190.000000
822.273560	196.400000
822.308533	190.200000
822.343567	190.600000
822.378479	192.500000
822.413452	191.200000
822.448425	189.100000
822.483398	197.300000
822.518372	198.300000
822.553345	191.000000
822.588318	200.500000
822.623291	192.000000
822.658203	190.400000
822.693237	192.200000
822.728210	188.600000
822.763123	193.700000
822.798096	187.500000
822.833069	193.400000
822.867981	193.200000
822.902954	195.400000
822.937927	195.500000
822.972900	205.000000
823.007874	185.600000
823.042725	198.000000
823.077698	204.400000
823.112671	188.800000
823.147583	191.500000
823.182556	196.900000
823.217529	196.500000
823.252441	191.800000
823.287415	205.300000
823.322388	195.800000
823.357239	192.700000
823.392212	200.800000
823.427185	195.500000
823.462097	189.900000
823.497009	195.200000
823.531982	191.500000
823.566895	192.700000
823.601807	188.800000
823.636719	190.600000
823.671631	196.600000
823.706604	190.900000
823.741455	196.100000
823.776428	185.100000
823.811340	197.000000
823.846252	199.300000
823.881165	200.400000
823.916138	194.300000
823.950989	202.500000
823.985901	189.500000
824.020813	194.600000
824.055725	190.800000
824.090637	189.200000
824.125610	194.100000
824.160461	193.400000
824.195374	195.100000
824.230225	197.700000
824.265198	185.500000
824.300110	189.400000
824.334961	204.000000
824.369873	182.600000
824.404785	193.200000
824.439636	200.300000
824.474548	183.900000
824.509460	182.100000
824.544312	200.700000
824.579224	194.900000
824.614075	196.600000
824.648987	191.800000
824.683899	191.500000
824.718811	190.300000
824.753662	200.700000
824.788574	198.300000
824.823364	195.300000
824.858276	188.800000
824.893188	199.700000
824.928040	198.700000
824.962952	196.200000
824.997803	195.800000
825.032654	195.600000
825.067566	195.700000
825.102417	191.300000
825.137268	190.800000
825.172119	194.200000
825.206970	189.900000
825.241882	190.800000
825.276733	188.100000
825.311646	191.300000
825.346436	186.400000
825.381348	188.500000
825.416138	192.400000
825.450989	188.100000
825.485901	182.300000
825.520691	184.300000
825.555542	185.800000
825.590454	194.700000
825.625244	184.700000
825.660095	200.600000
825.695007	195.800000
825.729797	192.000000
825.764648	188.800000
825.799438	191.700000
825.834290	193.300000
825.869202	186.800000
825.903992	193.100000
825.938843	189.000000
825.973694	186.500000
826.008484	203.300000
826.043335	186.500000
826.078186	183.000000
826.112976	198.600000
826.147827	197.200000
826.182678	202.100000
826.217468	184.200000
826.252319	198.100000
826.287109	188.100000
826.321899	200.000000
826.356750	190.300000
826.391541	186.600000
826.426392	196.200000
826.461182	191.300000
826.495972	186.000000
826.530823	183.600000
826.565613	191.100000
826.600403	188.200000
826.635254	195.000000
826.670044	184.000000
826.704834	183.400000
826.739685	187.700000
826.774475	192.200000
826.809265	192.000000
826.844055	188.200000
826.878906	197.500000
826.913635	192.400000
826.948425	195.300000
826.983215	191.300000
827.018005	197.300000
827.052856	189.800000
827.087585	194.900000
827.122375	182.700000
827.157227	191.600000
827.191956	203.700000
827.226746	187.900000
827.261536	196.300000
827.296265	184.800000
827.331116	187.700000
827.365906	195.200000
827.400635	187.100000
827.435425	182.600000
827.470215	198.300000
827.504944	189.900000
827.539734	197.200000
827.574463	190.800000
827.609253	197.500000
827.644043	192.700000
827.678772	196.900000
827.713562	189.900000
827.748352	188.600000
827.783081	187.000000
827.817871	191.600000
827.852600	188.300000
827.887329	192.400000
827.922119	182.500000
827.956848	194.600000
827.991638	204.500000
828.026367	193.900000
828.061157	191.400000
828.095886	191.400000
828.130615	203.800000
828.165344	182.300000
828.200073	191.600000
828.234863	190.100000
828.269592	190.200000
828.304321	197.400000
828.339111	192.100000
828.373779	188.200000
828.408569	196.100000
828.443298	196.300000
828.477966	190.000000
828.512756	191.900000
828.547424	185.000000
828.582214	190.700000
828.616943	189.700000
828.651672	190.400000
828.686340	194.800000
828.721130	189.300000
828.755798	189.100000
828.790527	191.200000
828.825256	193.500000
828.859924	192.600000
828.894714	197.200000
828.929443	200.400000
828.964111	186.800000
828.998840	194.400000
829.033569	187.300000
829.068237	189.000000
829.102966	188.400000
829.137634	193.800000
829.172363	191.300000
829.207092	193.400000
829.241821	188.000000
829.276489	183.600000
829.311157	191.800000
829.345825	190.200000
829.380554	196.900000
829.415283	187.500000
829.449951	184.600000
829.484619	199.400000
829.519348	198.700000
829.554016	191.800000
829.588745	189.000000
829.623413	185.300000
829.658081	204.000000
829.692749	183.900000
829.727417	196.100000
829.762146	193.100000
829.796814	187.400000
829.831482	190.600000
829.866150	194.300000
829.900879	187.400000
829.935486	194.900000
829.970154	189.300000
830.004883	203.400000
830.039490	191.900000
830.074219	189.300000
830.108887	192.600000
830.143494	190.800000
830.178223	184.300000
830.212891	189.900000
830.247498	190.300000
830.282166	200.500000
830.316772	196.700000
830.351501	189.200000
830.386169	190.200000
830.420776	190.600000
830.455444	191.700000
830.490112	190.300000
830.524719	182.600000
830.559387	193.800000
830.594055	194.100000
830.628662	191.200000
830.663330	190.400000
830.697998	200.500000
830.732605	190.100000
830.767273	194.300000
830.801941	190.800000
830.836487	201.600000
830.871155	192.600000
830.905762	193.500000
830.940430	184.200000
830.975098	187.700000
831.009644	192.400000
831.044312	199.800000
831.078979	193.500000
831.113525	182.900000
831.148193	190.800000
831.182861	188.700000
831.217407	194.800000
831.252075	208.500000
831.286621	190.400000
831.321289	186.300000
831.355896	192.400000
831.390564	200.100000
831.425110	192.400000
831.459778	197.700000
831.494324	205.500000
831.528931	194.100000
831.563599	195.400000
831.598145	183.000000
831.632751	190.900000
831.667419	188.400000
831.701965	195.500000
831.736572	194.200000
831.771179	185.100000
831.805786	188.500000
831.840393	198.700000
831.874939	182.000000
831.909546	197.800000
831.944153	181.900000
831.978760	190.800000
832.013306	186.200000
832.047913	199.500000
832.082458	198.300000
832.117065	189.100000
832.151672	200.000000
832.186218	193.200000
832.220825	194.200000
832.255432	184.100000
832.289978	186.700000
832.324585	194.200000
832.359192	194.200000
832.393677	189.300000
832.428284	193.300000
832.462830	191.100000
832.497437	189.400000
832.531982	195.000000
832.566589	189.700000
832.601135	193.300000
832.635681	183.500000
832.670227	190.800000
832.704773	198.300000
832.739380	192.800000
832.773926	192.500000
832.808472	187.100000
832.843079	191.700000
832.877563	193.100000
832.912170	190.000000
832.946716	183.400000
832.981201	198.200000
833.015808	194.000000
833.050293	190.800000
833.084839	186.400000
833.119446	190.000000
833.153992	194.000000
833.188477	191.300000
833.223022	186.400000
833.257568	194.400000
833.292114	197.400000
833.326660	202.500000
833.361145	188.100000
833.395691	183.500000
833.430237	190.200000
833.464783	195.800000
833.499329	186.200000
833.533875	186.800000
833.568359	193.900000
833.602905	197.700000
833.637390	197.700000
833.671875	189.400000
833.706421	189.200000
833.740906	188.200000
833.775452	179.800000
833.809998	189.700000
833.844482	197.400000
833.879028	193.000000
833.913513	189.200000
833.947998	194.600000
833.982544	187.200000
834.017090	188.500000
834.051514	180.800000
834.086060	194.300000
834.120544	191.700000
834.155029	193.300000
834.189575	189.600000
834.223999	193.700000
834.258545	191.800000
834.293030	192.400000
834.327515	192.800000
834.362000	188.900000
834.396545	195.200000
834.430969	189.200000
834.465454	194.700000
834.500000	184.600000
834.534424	193.800000
834.568970	181.900000
834.603455	183.300000
834.637878	188.000000
834.672363	192.700000
834.706909	191.700000
834.741333	193.500000
834.775818	183.000000
834.810242	187.900000
834.844727	191.200000
834.879211	190.500000
834.913635	192.300000
834.948181	194.100000
834.982666	190.800000
835.017090	190.500000
835.051575	193.800000
835.086060	188.400000
835.120483	195.000000
835.154907	196.100000
835.189331	189.700000
835.223816	195.500000
835.258301	185.800000
835.292786	186.900000
835.327209	195.600000
835.361694	188.500000
835.396057	187.700000
835.430542	193.800000
835.465027	191.700000
835.499390	185.200000
835.533875	209.400000
835.568359	190.400000
835.602722	183.300000
835.637207	192.100000
835.671692	185.600000
835.706055	207.400000
835.740540	194.100000
835.774902	194.000000
835.809387	192.800000
835.843811	186.100000
835.878235	199.300000
835.912659	185.400000
835.947083	188.600000
835.981506	192.100000
836.015930	183.900000
836.050354	196.400000
836.084778	201.300000
836.119202	197.600000
836.153625	205.200000
836.187988	186.900000
836.222473	189.600000
836.256897	192.700000
836.291260	191.000000
836.325684	193.200000
836.360046	190.000000
836.394470	190.700000
836.428894	198.400000
836.463318	187.300000
836.497681	196.200000
836.532104	198.600000
836.566467	193.100000
836.600891	189.200000
836.635315	198.100000
836.669678	193.600000
836.704102	198.000000
836.738525	191.900000
836.772888	183.600000
836.807251	189.100000
836.841675	194.400000
836.876038	185.100000
836.910461	187.300000
836.944763	195.200000
836.979187	188.300000
837.013611	196.500000
837.047974	183.300000
837.082336	201.900000
837.116699	195.900000
837.151062	189.800000
837.185486	186.400000
837.219849	190.200000
837.254211	195.300000
837.288574	190.300000
837.322937	187.200000
837.357300	179.300000
837.391663	204.400000
837.426086	196.600000
837.460388	191.600000
837.494751	196.900000
837.529114	190.900000
837.563477	195.800000
837.597839	193.400000
837.632141	191.400000
837.666565	188.900000
837.700928	195.200000
837.735229	194.900000
837.769592	193.900000
837.803955	197.300000
837.838257	189.500000
837.872620	188.900000
837.906982	200.000000
837.941284	193.400000
837.975647	192.700000
838.010010	197.500000
838.044312	189.400000
838.078674	188.500000
838.112976	192.900000
838.147339	195.300000
838.181702	191.100000
838.216003	200.300000
838.250366	194.300000
838.284668	192.900000
838.318970	184.000000
838.353333	192.000000
838.387634	189.500000
838.421936	191.700000
838.456299	192.600000
838.490601	197.500000
838.524902	195.100000
838.559265	196.400000
838.593567	196.600000
838.627869	185.700000
838.662170	195.800000
838.696472	183.300000
838.730774	188.700000
838.765137	196.100000
838.799377	177.400000
838.833740	191.400000
838.868042	196.900000
838.902283	183.300000
838.936646	198.000000
838.970947	191.900000
839.005188	197.200000
839.039551	184.800000
839.073792	199.500000
839.108093	189.700000
839.142395	201.000000
839.176697	184.200000
839.210937	192.200000
839.245300	203.000000
839.279541	184.200000
839.313843	189.800000
839.348145	194.900000
839.382385	197.000000
839.416687	195.400000
839.450989	195.300000
839.485229	191.100000
839.519531	186.800000
839.553833	196.900000
839.588013	192.800000
839.622314	191.600000
839.656555	194.800000
839.690857	191.300000
839.725159	185.800000
839.759460	191.500000
839.793640	189.500000
839.827942	190.100000
839.862183	187.200000
839.896423	193.100000
839.930725	201.300000
839.964966	198.800000
839.999207	199.800000
840.033508	196.800000
840.067688	189.000000
840.101990	200.200000
840.136230	191.800000
840.170471	199.900000
840.204712	188.300000
840.238953	187.100000
840.273193	194.200000
840.307434	195.000000
840.341736	187.800000
840.375916	183.900000
840.410217	189.400000
840.444397	194.600000
840.478638	195.500000
840.512878	197.800000
840.547119	192.700000
840.581360	194.300000
840.615601	201.500000
840.649780	200.100000
840.684021	191.700000
840.718262	200.400000
840.752441	197.200000
840.786682	193.300000
840.820862	194.200000
840.855103	199.300000
840.889343	192.900000
840.923584	198.200000
840.957764	193.900000
840.992004	194.900000
841.026184	205.700000
841.060425	191.000000
841.094666	188.600000
841.128845	196.700000
841.163025	192.700000
841.197266	195.700000
841.231445	194.500000
841.265686	193.200000
841.299866	186.900000
841.334045	199.900000
841.368286	190.000000
841.402405	201.000000
841.436646	195.700000
841.470825	190.100000
841.505005	190.300000
841.539185	188.200000
841.573425	188.700000
841.607544	192.000000
841.641785	191.100000
841.675964	187.000000
841.710144	192.500000
841.744324	189.500000
841.778503	190.200000
841.812683	188.500000
841.846863	200.900000
841.881042	199.200000
841.915222	190.500000
841.949402	208.500000
841.983521	183.200000
842.017700	192.000000
842.051880	194.400000
842.086060	194.200000
842.120239	192.400000
842.154419	190.400000
842.188538	193.300000
842.222717	189.000000
842.256897	202.100000
842.291016	190.700000
842.325195	194.400000
842.359375	203.800000
842.393494	199.800000
842.427673	192.800000
842.461853	196.200000
842.495911	200.300000
842.530090	194.700000
842.564209	190.100000
842.598389	193.500000
842.632568	193.300000
842.666626	198.400000
842.700806	188.100000
842.734985	190.300000
842.769043	194.600000
842.803223	191.200000
842.837402	190.700000
842.871460	191.800000
842.905640	200.900000
842.939697	189.500000
842.973877	193.100000
843.007996	198.600000
843.042175	200.500000
843.076233	190.000000
843.110413	193.300000
843.144470	202.800000
843.178589	196.400000
843.212769	190.800000
843.246826	196.700000
843.280945	189.300000
843.315125	188.900000
843.349182	188.800000
843.383301	197.700000
843.417419	205.200000
843.451538	192.200000
843.485657	191.800000
843.519714	190.100000
843.553833	194.000000
843.587952	189.700000
843.622070	190.100000
843.656128	196.800000
843.690247	190.300000
843.724304	189.600000
843.758423	193.600000
843.792542	189.400000
843.826599	192.100000
843.860718	190.300000
843.894836	186.300000
843.928894	193.700000
843.963013	194.900000
843.997070	190.000000
844.031128	187.200000
844.065247	197.700000
844.099304	197.700000
844.133362	193.800000
844.167480	195.200000
844.201599	200.400000
844.235596	194.900000
844.269714	194.700000
844.303711	193.000000
844.337830	185.500000
844.371948	196.300000
844.405945	192.500000
844.440063	186.900000
844.474121	208.000000
844.508118	193.100000
844.542236	192.000000
844.576294	190.600000
844.610352	188.300000
844.644409	191.100000
844.678406	185.200000
844.712524	197.100000
844.746582	200.900000
844.780640	191.500000
844.814636	193.200000
844.848755	203.100000
844.882751	191.900000
844.916809	196.900000
844.950867	194.600000
844.984863	200.500000
845.018921	193.600000
845.052979	188.800000
845.086975	195.100000
845.121033	186.200000
845.155090	188.800000
845.189087	198.900000
845.223145	189.700000
845.257141	192.100000
845.291199	196.200000
845.325256	200.800000
845.359253	194.000000
845.393250	202.900000
845.427307	191.900000
845.461304	194.700000
845.495361	193.800000
845.529358	203.700000
845.563354	189.200000
845.597412	189.200000
845.631409	200.400000
845.665405	199.600000
845.699463	199.200000
845.733459	190.600000
845.767456	199.500000
845.801453	191.300000
845.835449	199.400000
845.869446	198.300000
845.903503	197.300000
845.937439	190.000000
845.971497	199.800000
846.005493	188.100000
846.039429	196.700000
846.073486	204.200000
846.107483	189.600000
846.141418	194.300000
846.175476	191.000000
846.209473	202.400000
846.243408	188.800000
846.277405	195.100000
846.311401	188.000000
846.345337	194.600000
846.379395	198.900000
846.413330	191.500000
846.447327	201.400000
846.481323	187.400000
846.515259	189.800000
846.549255	194.100000
846.583252	194.200000
846.617187	188.200000
846.651184	194.500000
846.685120	191.100000
846.719055	200.600000
846.753052	197.500000
846.786987	197.200000
846.820984	187.000000
846.854980	199.900000
846.888916	188.700000
846.922852	194.900000
846.956848	202.600000
846.990723	188.800000
847.024719	194.500000
847.058716	190.900000
847.092590	200.200000
847.126587	194.400000
847.160522	190.100000
847.194458	197.900000
847.228455	188.700000
847.262390	186.400000
847.296265	191.700000
847.330261	199.200000
847.364136	191.500000
847.398132	188.400000
847.432068	192.300000
847.466003	191.900000
847.499939	192.000000
847.533875	195.700000
847.567749	191.100000
847.601746	192.400000
847.635681	196.500000
847.669556	184.400000
847.703491	198.200000
847.737427	209.100000
847.771301	187.600000
847.805237	194.600000
847.839233	193.800000
847.873108	192.800000
847.907043	190.800000
847.940918	197.900000
847.974854	195.400000
848.008789	197.600000
848.042664	192.200000
848.076538	196.900000
848.110474	192.300000
848.144348	194.900000
848.178284	187.300000
848.212219	195.900000
848.246094	191.400000
848.279968	195.000000
848.313904	195.900000
848.347778	195.200000
848.381653	191.900000
848.415588	189.000000
848.449463	190.600000
848.483337	195.900000
848.517212	198.500000
848.551086	194.900000
848.585022	189.900000
848.618835	202.000000
848.652771	190.100000
848.686646	188.200000
848.720520	200.500000
848.754395	191.700000
848.788330	197.900000
848.822144	198.200000
848.856018	192.500000
848.889954	201.700000
848.923767	188.400000
848.957642	190.100000
848.991577	197.700000
849.025391	190.500000
849.059265	192.500000
849.093079	189.400000
849.126953	188.000000
849.160828	198.600000
849.194641	194.900000
849.228577	189.900000
849.262451	193.300000
849.296265	192.000000
849.330139	189.000000
849.364014	193.500000
849.397827	196.900000
849.431702	193.800000
849.465515	198.700000
849.499329	183.900000
849.533203	187.700000
849.567078	182.400000
849.600891	197.300000
849.634766	191.400000
849.668518	199.600000
849.702393	193.200000
849.736267	186.400000
849.770020	203.900000
849.803894	197.100000
849.837769	193.400000
849.871521	193.300000
849.905396	198.000000
849.939270	188.900000
849.973022	191.500000
850.006897	197.000000
850.040710	195.800000
850.074524	196.900000
850.108337	192.700000
850.142151	197.100000
850.175964	200.500000
850.209778	193.800000
850.243530	180.100000
850.277405	198.300000
850.311218	192.000000
850.344971	191.200000
850.378845	201.500000
850.412659	190.500000
850.446411	193.600000
850.480225	192.700000
850.514038	200.300000
850.547791	195.800000
850.581665	191.200000
850.615417	189.800000
850.649231	195.000000
850.683044	192.600000
850.716858	193.300000
850.750610	193.400000
850.784424	198.100000
850.818176	188.800000
850.851929	191.700000
850.885742	189.600000
850.919495	192.900000
850.953308	198.400000
850.987122	201.900000
851.020874	187.500000
851.054626	185.500000
851.088440	195.300000
851.122192	196.700000
851.156006	193.800000
851.189697	192.400000
851.223511	188.100000
851.257263	198.500000
851.291077	194.700000
851.324829	192.100000
851.358582	188.800000
851.392334	190.600000
851.426086	191.700000
851.459900	201.900000
851.493591	192.500000
851.527344	193.400000
851.561157	192.600000
851.594849	195.400000
851.628662	194.500000
851.662415	201.700000
851.696106	196.400000
851.729858	199.500000
851.763611	186.400000
851.797363	193.600000
851.831116	189.900000
851.864868	195.800000
851.898560	197.100000
851.932312	190.300000
851.966064	194.500000
851.999817	194.100000
852.033569	193.500000
852.067261	198.400000
852.101013	189.700000
852.134766	192.900000
852.168457	181.600000
852.202209	196.900000
852.235901	189.100000
852.269592	196.200000
852.303345	202.400000
852.337036	195.600000
852.370789	193.800000
852.404541	197.300000
852.438171	188.400000
852.471924	191.100000
852.505676	187.300000
852.539307	195.800000
852.573059	189.100000
852.606812	190.800000
852.640442	191.300000
852.674194	198.000000
852.707886	204.600000
852.741577	200.800000
852.775269	188.600000
852.809021	192.700000
852.842651	194.400000
852.876404	197.400000
852.910034	194.500000
852.943787	198.800000
852.977478	197.100000
853.011108	189.600000
853.044861	191.800000
853.078552	199.700000
853.112183	195.700000
853.145874	194.200000
853.179626	184.000000
853.213257	193.500000
853.246948	190.600000
853.280640	198.700000
853.314270	193.900000
853.347961	199.700000
853.381653	195.800000
853.415283	197.100000
853.448975	190.100000
853.482605	193.000000
853.516296	192.600000
853.549988	188.200000
853.583618	195.100000
853.617310	194.500000
853.651001	195.900000
853.684631	187.000000
853.718323	191.100000
853.751953	201.500000
853.785583	184.700000
853.819275	197.500000
853.852966	194.500000
853.886536	182.400000
853.920227	187.900000
853.953918	198.400000
853.987488	190.800000
854.021179	197.600000
854.054749	200.900000
854.088440	196.000000
854.122131	187.200000
854.155701	197.500000
854.189331	189.100000
854.223022	197.000000
854.256592	196.500000
854.290283	192.000000
854.323914	196.600000
854.357483	195.000000
854.391174	196.300000
854.424744	203.300000
854.458374	194.900000
854.492065	204.800000
854.525696	192.000000
854.559265	201.200000
854.592896	204.800000
854.626465	193.200000
854.660095	193.000000
854.693787	195.100000
854.727356	191.400000
854.760986	198.200000
854.794617	194.100000
854.828186	192.600000
854.861816	197.500000
854.895447	194.100000
854.929016	194.000000
854.962585	197.100000
854.996155	200.600000
855.029785	195.800000
855.063416	196.500000
855.097046	198.300000
855.130615	187.800000
855.164185	200.300000
855.197754	194.000000
855.231384	197.500000
855.264954	192.400000
855.298523	198.000000
855.332153	196.200000
855.365723	202.100000
855.399292	189.600000
855.432922	191.400000
855.466492	195.700000
855.500061	188.800000
855.533630	190.500000
855.567200	195.800000
855.600769	199.400000
855.634338	199.100000
855.667969	196.400000
855.701477	189.700000
855.735046	189.900000
855.768616	185.000000
855.802185	196.200000
855.835754	208.000000
855.869324	186.300000
855.902893	189.800000
855.936401	200.900000
855.969971	194.600000
856.003540	185.500000
856.037109	196.900000
856.070618	194.300000
856.104187	187.600000
856.137695	192.500000
856.171265	184.500000
856.204834	194.500000
856.238403	200.100000
856.271912	192.200000
856.305481	194.500000
856.338989	187.300000
856.372559	196.300000
856.406128	195.800000
856.439636	197.500000
856.473145	191.300000
856.506653	199.800000
856.540222	194.100000
856.573792	198.900000
856.607300	198.200000
856.640808	187.500000
856.674377	195.900000
856.707825	221.300000
856.741394	198.200000
856.774902	189.700000
856.808472	185.000000
856.841980	196.400000
856.875488	202.800000
856.908936	184.700000
856.942505	191.600000
856.976013	192.900000
857.009521	189.400000
857.043030	195.000000
857.076477	191.300000
857.110046	198.700000
857.143555	194.800000
857.177063	201.300000
857.210571	191.700000
857.244080	187.300000
857.277527	195.100000
857.311035	192.900000
857.344543	196.700000
857.378052	194.000000
857.411499	197.800000
857.445068	204.000000
857.478516	192.400000
857.512024	188.300000
857.545532	190.700000
857.578979	195.800000
857.612427	193.100000
857.645874	189.500000
857.679382	194.100000
857.712891	199.100000
857.746399	192.100000
857.779846	200.100000
857.813354	199.000000
857.846741	193.600000
857.880249	189.400000
857.913757	194.400000
857.947266	194.400000
857.980652	196.800000
858.014160	190.600000
858.047546	192.600000
858.081055	190.800000
858.114563	202.100000
858.147949	188.200000
858.181458	197.900000
858.214844	191.800000
858.248352	185.600000
858.281799	198.200000
858.315308	206.000000
858.348694	197.500000
858.382141	201.900000
858.415588	196.900000
858.449036	199.600000
858.482483	197.000000
858.515930	190.600000
858.549377	194.900000
858.582825	201.000000
858.616211	197.300000
858.649658	195.800000
858.683105	189.600000
858.716553	190.200000
858.750000	187.200000
858.783386	191.900000
858.816833	186.100000
858.850281	195.100000
858.883728	196.100000
858.917114	192.300000
858.950562	203.200000
858.983948	202.400000
859.017395	199.100000
859.050781	191.900000
859.084167	191.900000
859.117615	186.000000
859.151062	197.200000
859.184448	189.400000
859.217834	191.200000
859.251282	192.200000
859.284668	189.400000
859.318054	183.300000
859.351440	190.400000
859.384888	201.200000
859.418274	184.800000
859.451721	183.300000
859.485046	197.900000
859.518494	194.700000
859.551819	191.000000
859.585266	194.700000
859.618652	196.900000
859.652039	187.800000
859.685425	188.800000
859.718811	187.200000
859.752197	181.900000
859.785583	201.600000
859.819031	201.600000
859.852356	195.900000
859.885742	190.600000
859.919067	192.400000
859.952454	192.000000
859.985901	198.500000
860.019287	191.500000
860.052612	0.000000
860.085999	0.000000
860.119324	0.000000
860.152710	0.000000
860.186096	0.000000
860.219421	0.000000
860.252808	0.000000
860.286133	0.000000
860.319519	0.000000
860.352905	0.000000
860.386292	0.000000
860.419617	0.000000
860.452942	0.000000
860.486267	0.000000
860.519653	0.000000
860.553040	0.000000
860.586365	0.000000
860.619690	0.000000
860.653076	0.000000
860.686340	0.000000
860.719727	0.000000
860.753113	0.000000
860.786377	0.000000
860.819763	0.000000
860.853027	0.000000
860.886414	0.000000
860.919739	0.000000
860.953125	0.000000
860.986389	0.000000
861.019714	0.000000
861.053040	0.000000
861.086365	0.000000
861.119690	0.000000
861.153076	0.000000
861.186340	0.000000
861.219666	0.000000
861.252930	0.000000
861.286316	0.000000
861.319641	0.000000
861.352905	0.000000
861.386230	0.000000
861.419495	0.000000
861.452820	0.000000
861.486145	0.000000
861.519470	0.000000
861.552734	0.000000
861.586060	0.000000
861.619324	0.000000
861.652649	0.000000
861.685974	0.000000
861.719238	0.000000
861.752563	0.000000
861.785828	0.000000
861.819092	0.000000
861.852417	0.000000
861.885742	0.000000
861.918945	0.000000
861.952271	0.000000
861.985535	0.000000
862.018799	0.000000
862.052124	0.000000
862.085449	0.000000
862.118652	0.000000
862.151978	0.000000
862.185181	0.000000
862.218506	0.000000
862.251770	0.000000
862.285034	0.000000
862.318298	0.000000
862.351562	0.000000
862.384827	0.000000
862.418091	0.000000
862.451355	0.000000
862.484619	0.000000
862.517883	0.000000
862.551086	0.000000
862.584351	0.000000
862.617676	0.000000
862.650940	0.000000
862.684143	0.000000
862.717407	0.000000
862.750610	0.000000
862.783875	0.000000
862.817139	0.000000
862.850342	0.000000
862.883606	0.000000
862.916870	0.000000
862.950073	0.000000
862.983337	0.000000
863.016602	0.000000
863.049805	0.000000
863.083069	0.000000
863.116211	0.000000
863.149475	0.000000
863.182739	0.000000
863.216003	0.000000
863.249146	0.000000
863.282410	0.000000
863.315613	0.000000
863.348816	0.000000
863.382080	0.000000
863.415222	0.000000
863.448486	0.000000
863.481689	0.000000
863.514893	0.000000
863.548157	0.000000
863.581360	0.000000
863.614502	0.000000
863.647766	0.000000
863.680908	0.000000
863.714172	0.000000
863.747375	0.000000
863.780579	0.000000
863.813721	0.000000
863.846985	0.000000
863.880127	0.000000
863.913330	0.000000
863.946533	0.000000
863.979675	0.000000
864.012939	0.000000
