Model Number: SPM-001-M   
Serial Number: 10090201
Firmware Version: 004.17.6
Exposure Time: 500000.000000us
Data Taken on: 10-03-2021 12:27:40.958
Wavelength	Amplitude
733.770752	0.000000
733.808716	0.000000
733.846619	0.000000
733.884583	0.000000
733.922546	0.000000
733.960449	0.000000
733.998413	0.000000
734.036377	0.000000
734.074219	0.000000
734.112183	0.000000
734.150085	0.000000
734.188049	0.000000
734.226013	0.000000
734.263916	0.000000
734.301819	0.000000
734.339783	0.000000
734.377686	0.000000
734.415588	0.000000
734.453552	0.000000
734.491455	0.000000
734.529419	0.000000
734.567322	0.000000
734.605225	0.000000
734.643127	0.000000
734.681091	0.000000
734.718994	0.000000
734.756897	0.000000
734.794800	0.000000
734.832703	0.000000
734.870667	0.000000
734.908508	0.000000
734.946472	0.000000
734.984375	0.000000
735.022278	0.000000
735.060181	0.000000
735.098083	0.000000
735.135986	0.000000
735.173889	0.000000
735.211792	0.000000
735.249695	0.000000
735.287598	0.000000
735.325439	0.000000
735.363403	0.000000
735.401306	0.000000
735.439148	0.000000
735.477051	0.000000
735.515015	0.000000
735.552856	0.000000
735.590759	0.000000
735.628662	0.000000
735.666504	0.000000
735.704407	0.000000
735.742310	0.000000
735.780212	0.000000
735.818115	0.000000
735.856018	0.000000
735.893860	0.000000
735.931763	0.000000
735.969604	0.000000
736.007507	0.000000
736.045410	0.000000
736.083252	0.000000
736.121094	0.000000
736.158997	0.000000
736.196838	0.000000
736.234741	0.000000
736.272644	0.000000
736.310486	0.000000
736.348389	0.000000
736.386230	0.000000
736.424072	0.000000
736.461975	0.000000
736.499878	0.000000
736.537720	0.000000
736.575562	0.000000
736.613403	0.000000
736.651306	0.000000
736.689148	0.000000
736.726990	0.000000
736.764893	0.000000
736.802734	0.000000
736.840576	0.000000
736.878418	0.000000
736.916321	0.000000
736.954102	0.000000
736.992004	0.000000
737.029846	0.000000
737.067688	0.000000
737.105530	0.000000
737.143372	0.000000
737.181213	0.000000
737.219116	0.000000
737.256897	0.000000
737.294739	0.000000
737.332642	0.000000
737.370422	0.000000
737.408325	0.000000
737.446167	0.000000
737.483948	0.000000
737.521790	0.000000
737.559692	0.000000
737.597473	0.000000
737.635315	0.000000
737.673157	0.000000
737.710999	0.000000
737.748840	0.000000
737.786621	0.000000
737.824463	0.000000
737.862305	0.000000
737.900085	0.000000
737.937927	0.000000
737.975769	0.000000
738.013550	0.000000
738.051392	0.000000
738.089233	0.000000
738.127014	0.000000
738.164856	0.000000
738.202698	0.000000
738.240479	0.000000
738.278320	0.000000
738.316162	0.000000
738.353943	0.000000
738.391785	0.000000
738.429565	0.000000
738.467407	0.000000
738.505188	0.000000
738.542969	0.000000
738.580811	0.000000
738.618652	0.000000
738.656372	0.000000
738.694214	0.000000
738.732056	0.000000
738.769836	0.000000
738.807617	0.000000
738.845459	0.000000
738.883240	0.000000
738.921021	0.000000
738.958862	0.000000
738.996582	0.000000
739.034424	0.000000
739.072205	0.000000
739.109985	0.000000
739.147827	0.000000
739.185547	0.000000
739.223389	0.000000
739.261169	0.000000
739.298889	0.000000
739.336731	0.000000
739.374512	0.000000
739.412292	0.000000
739.450073	0.000000
739.487854	0.000000
739.525635	0.000000
739.563416	0.000000
739.601135	0.000000
739.638977	0.000000
739.676758	0.000000
739.714478	0.000000
739.752258	0.000000
739.790100	0.000000
739.827820	0.000000
739.865601	0.000000
739.903381	0.000000
739.941101	0.000000
739.978882	194.100000
740.016724	191.500000
740.054443	196.900000
740.092224	189.200000
740.130005	187.200000
740.167725	188.900000
740.205505	188.900000
740.243225	198.000000
740.281006	193.000000
740.318787	184.300000
740.356506	197.500000
740.394287	195.600000
740.432068	187.500000
740.469727	185.100000
740.507507	195.000000
740.545288	191.700000
740.583008	193.800000
740.620789	192.800000
740.658569	182.800000
740.696228	191.000000
740.734009	197.100000
740.771790	180.500000
740.809509	195.600000
740.847229	185.800000
740.884949	188.000000
740.922729	184.100000
740.960449	188.800000
740.998169	186.200000
741.035950	186.800000
741.073669	192.200000
741.111389	190.800000
741.149170	201.500000
741.186890	203.000000
741.224609	194.100000
741.262329	192.100000
741.300110	202.200000
741.337769	186.300000
741.375549	186.600000
741.413208	193.800000
741.450989	187.800000
741.488708	189.300000
741.526367	190.100000
741.564148	195.500000
741.601868	196.300000
741.639526	192.100000
741.677307	192.900000
741.715027	194.200000
741.752686	187.300000
741.790466	198.800000
741.828186	195.200000
741.865845	187.700000
741.903564	185.000000
741.941345	192.500000
741.979004	187.200000
742.016724	195.900000
742.054382	192.300000
742.092102	198.300000
742.129822	185.500000
742.167480	190.400000
742.205200	190.500000
742.242920	192.600000
742.280640	197.400000
742.318359	187.300000
742.356079	188.000000
742.393738	195.000000
742.431396	190.100000
742.469116	194.800000
742.506775	181.200000
742.544495	193.900000
742.582214	195.000000
742.619873	191.000000
742.657593	199.600000
742.695251	196.300000
742.732971	190.500000
742.770630	193.200000
742.808289	191.200000
742.846008	191.700000
742.883728	195.700000
742.921326	191.000000
742.959045	188.900000
742.996765	192.500000
743.034424	191.800000
743.072083	189.100000
743.109802	192.100000
743.147400	185.600000
743.185120	192.500000
743.222839	191.800000
743.260437	198.300000
743.298157	194.000000
743.335754	184.100000
743.373474	190.600000
743.411133	184.900000
743.448792	194.800000
743.486450	191.900000
743.524170	184.000000
743.561768	192.800000
743.599487	197.400000
743.637146	203.500000
743.674744	191.500000
743.712463	189.100000
743.750122	193.800000
743.787720	193.900000
743.825439	187.000000
743.863037	189.400000
743.900696	190.900000
743.938416	216.300000
743.976013	191.300000
744.013672	200.000000
744.051331	196.700000
744.088928	200.200000
744.126587	198.200000
744.164307	192.800000
744.201904	188.200000
744.239563	194.500000
744.277222	194.100000
744.314819	190.400000
744.352478	198.700000
744.390137	192.900000
744.427734	194.100000
744.465393	188.600000
744.502991	188.100000
744.540649	195.400000
744.578308	193.300000
744.615906	185.500000
744.653564	181.400000
744.691223	196.600000
744.728821	183.900000
744.766418	193.000000
744.804077	194.800000
744.841675	187.700000
744.879333	185.400000
744.916992	192.000000
744.954529	189.000000
744.992187	198.100000
745.029785	190.000000
745.067444	188.100000
745.105042	192.800000
745.142639	194.400000
745.180298	202.000000
745.217896	190.200000
745.255493	191.500000
745.293152	196.300000
745.330750	195.400000
745.368347	199.900000
745.405945	196.200000
745.443604	192.500000
745.481140	197.300000
745.518799	191.400000
745.556396	195.800000
745.593994	197.400000
745.631592	191.600000
745.669189	186.200000
745.706787	194.400000
745.744385	188.700000
745.781982	193.600000
745.819580	188.600000
745.857178	190.600000
745.894775	191.400000
745.932373	193.200000
745.969971	192.700000
746.007568	183.100000
746.045166	200.400000
746.082764	198.000000
746.120300	195.200000
746.157898	195.700000
746.195557	191.700000
746.233093	185.200000
746.270691	195.500000
746.308228	192.900000
746.345825	196.500000
746.383423	196.200000
746.420959	186.000000
746.458557	189.600000
746.496155	190.200000
746.533691	190.900000
746.571289	186.400000
746.608887	192.500000
746.646423	192.900000
746.684021	191.700000
746.721619	190.200000
746.759155	194.100000
746.796753	186.100000
746.834351	186.300000
746.871826	189.100000
746.909424	199.500000
746.946960	195.000000
746.984558	190.800000
747.022156	190.800000
747.059631	201.100000
747.097229	195.100000
747.134827	191.300000
747.172363	199.700000
747.209900	195.400000
747.247498	187.200000
747.285034	199.100000
747.322571	198.600000
747.360168	190.500000
747.397644	184.700000
747.435242	195.900000
747.472778	199.800000
747.510315	189.300000
747.547913	189.000000
747.585388	199.700000
747.622925	190.600000
747.660522	183.600000
747.697998	188.200000
747.735596	190.400000
747.773132	189.000000
747.810669	191.900000
747.848206	196.400000
747.885742	187.600000
747.923279	186.200000
747.960815	194.100000
747.998352	192.500000
748.035889	197.200000
748.073425	197.300000
748.110901	189.600000
748.148437	188.300000
748.185974	193.300000
748.223511	202.800000
748.261047	193.000000
748.298584	195.200000
748.336060	191.400000
748.373596	195.600000
748.411133	210.200000
748.448608	188.500000
748.486145	196.800000
748.523682	200.900000
748.561218	197.900000
748.598755	193.400000
748.636292	197.100000
748.673706	190.300000
748.711243	200.100000
748.748718	194.200000
748.786255	192.400000
748.823792	194.000000
748.861267	187.800000
748.898804	194.400000
748.936340	195.700000
748.973816	190.200000
749.011292	198.500000
749.048828	194.000000
749.086304	195.200000
749.123840	204.100000
749.161316	187.100000
749.198792	201.100000
749.236328	200.600000
749.273743	192.400000
749.311279	190.900000
749.348816	194.800000
749.386230	192.400000
749.423767	180.700000
749.461304	195.200000
749.498718	194.000000
749.536255	199.000000
749.573730	206.200000
749.611206	197.900000
749.648682	191.200000
749.686218	191.100000
749.723633	196.900000
749.761169	189.800000
749.798645	188.700000
749.836060	190.600000
749.873596	189.800000
749.911011	191.400000
749.948547	198.700000
749.986023	192.300000
750.023437	190.400000
750.060913	186.200000
750.098450	185.600000
750.135864	191.000000
750.173340	192.900000
750.210815	197.900000
750.248291	187.000000
750.285767	192.000000
750.323242	199.700000
750.360657	194.400000
750.398132	186.900000
750.435608	197.600000
750.473022	188.900000
750.510498	188.400000
750.547974	188.900000
750.585449	189.900000
750.622925	182.800000
750.660339	203.000000
750.697815	193.400000
750.735291	191.900000
750.772644	192.500000
750.810120	194.000000
750.847595	195.200000
750.885010	187.800000
750.922485	200.100000
750.959961	191.600000
750.997375	199.100000
751.034851	196.500000
751.072266	197.100000
751.109680	186.400000
751.147156	198.200000
751.184570	195.200000
751.221985	194.000000
751.259460	184.200000
751.296875	191.900000
751.334290	193.200000
751.371765	197.500000
751.409180	195.200000
751.446594	197.500000
751.484070	195.300000
751.521423	194.700000
751.558899	194.200000
751.596375	201.100000
751.633728	199.500000
751.671204	206.000000
751.708618	188.300000
751.746033	193.800000
751.783447	186.300000
751.820801	188.700000
751.858276	195.500000
751.895691	192.300000
751.933105	189.800000
751.970520	186.500000
752.007935	190.900000
752.045349	197.200000
752.082764	192.200000
752.120178	190.600000
752.157532	189.100000
752.195007	190.700000
752.232422	195.500000
752.269775	197.400000
752.307190	195.700000
752.344543	188.300000
752.382019	190.900000
752.419434	191.900000
752.456787	195.400000
752.494202	197.700000
752.531616	194.700000
752.568970	197.600000
752.606384	193.800000
752.643799	195.400000
752.681152	201.300000
752.718567	196.100000
752.755981	185.000000
752.793335	196.200000
752.830750	183.300000
752.868164	198.400000
752.905518	187.700000
752.942932	196.800000
752.980225	187.900000
753.017639	199.100000
753.055054	191.200000
753.092407	195.600000
753.129822	198.000000
753.167175	202.600000
753.204529	192.400000
753.241943	189.100000
753.279358	185.900000
753.316650	195.600000
753.354065	195.300000
753.391479	197.700000
753.428772	201.200000
753.466187	196.600000
753.503479	185.400000
753.540894	190.400000
753.578308	187.400000
753.615601	187.300000
753.653015	192.800000
753.690369	191.200000
753.727722	188.000000
753.765076	186.300000
753.802490	187.600000
753.839783	184.400000
753.877136	191.000000
753.914551	207.900000
753.951843	186.700000
753.989258	196.100000
754.026611	193.800000
754.063904	195.700000
754.101257	187.800000
754.138611	185.400000
754.175964	195.000000
754.213318	205.400000
754.250610	186.300000
754.288025	189.600000
754.325378	187.900000
754.362671	198.700000
754.400024	190.200000
754.437378	202.000000
754.474670	202.800000
754.512085	188.700000
754.549438	192.100000
754.586731	189.800000
754.624084	192.200000
754.661438	188.000000
754.698730	201.200000
754.736084	190.300000
754.773376	190.700000
754.810730	195.000000
754.848083	191.900000
754.885315	196.900000
754.922668	184.900000
754.960022	187.000000
754.997314	197.000000
755.034668	194.000000
755.072021	194.500000
755.109253	190.900000
755.146606	201.400000
755.183960	193.000000
755.221252	203.300000
755.258545	199.300000
755.295898	200.800000
755.333191	201.500000
755.370544	197.100000
755.407776	193.600000
755.445129	196.100000
755.482422	200.300000
755.519714	192.500000
755.557068	187.500000
755.594360	187.100000
755.631653	199.800000
755.668945	203.300000
755.706299	197.400000
755.743530	206.700000
755.780884	203.100000
755.818176	203.200000
755.855408	201.600000
755.892761	199.700000
755.930054	197.300000
755.967346	198.400000
756.004639	202.000000
756.041870	198.800000
756.079224	203.700000
756.116516	194.300000
756.153748	202.900000
756.191040	205.800000
756.228394	200.900000
756.265625	193.500000
756.302917	200.400000
756.340210	196.000000
756.377441	204.300000
756.414795	205.500000
756.452087	199.900000
756.489319	192.600000
756.526611	202.200000
756.563843	200.000000
756.601135	210.200000
756.638428	208.300000
756.675659	199.400000
756.712952	202.400000
756.750244	204.100000
756.787476	199.800000
756.824768	208.000000
756.862061	198.100000
756.899292	246.800000
756.936584	205.600000
756.973816	211.800000
757.011047	212.700000
757.048340	203.400000
757.085632	201.500000
757.122864	217.300000
757.160156	198.600000
757.197327	204.100000
757.234619	206.800000
757.271912	201.500000
757.309082	207.000000
757.346375	200.200000
757.383667	211.200000
757.420837	204.300000
757.458130	205.000000
757.495422	204.900000
757.532593	205.500000
757.569885	197.200000
757.607117	200.700000
757.644348	206.800000
757.681580	218.900000
757.718811	192.500000
757.756042	205.900000
757.793335	203.200000
757.830505	209.500000
757.867798	203.300000
757.905029	203.000000
757.942200	208.800000
757.979492	201.800000
758.016724	205.800000
758.053894	204.300000
758.091187	223.600000
758.128418	206.800000
758.165588	205.300000
758.202820	217.900000
758.240112	208.700000
758.277283	217.700000
758.314514	208.800000
758.351685	203.400000
758.388916	217.700000
758.426147	215.400000
758.463379	217.800000
758.500610	211.600000
758.537842	209.400000
758.575012	215.100000
758.612244	206.100000
758.649475	222.000000
758.686646	203.100000
758.723877	216.000000
758.761108	216.600000
758.798279	210.900000
758.835510	212.500000
758.872742	216.400000
758.909851	212.600000
758.947083	215.700000
758.984253	212.900000
759.021484	217.700000
759.058716	216.100000
759.095886	216.500000
759.133057	212.600000
759.170288	216.300000
759.207458	209.400000
759.244690	223.800000
759.281860	224.600000
759.319031	213.700000
759.356262	211.000000
759.393433	211.800000
759.430603	212.800000
759.467773	213.900000
759.505005	221.300000
759.542175	219.400000
759.579346	212.500000
759.616516	215.500000
759.653687	218.300000
759.690918	211.700000
759.728027	216.600000
759.765259	216.500000
759.802429	220.100000
759.839539	217.900000
759.876770	222.900000
759.913940	226.500000
759.951111	217.700000
759.988281	217.400000
760.025452	213.600000
760.062561	212.900000
760.099792	226.500000
760.136963	218.700000
760.174072	216.800000
760.211243	210.800000
760.248413	212.800000
760.285583	213.100000
760.322754	229.300000
760.359863	223.600000
760.397034	224.200000
760.434204	217.000000
760.471375	219.300000
760.508545	216.900000
760.545715	219.200000
760.582825	214.000000
760.619995	224.800000
760.657166	213.300000
760.694275	226.900000
760.731445	221.900000
760.768555	222.000000
760.805664	225.100000
760.842834	224.400000
760.879944	226.500000
760.917114	223.400000
760.954285	221.900000
760.991394	215.400000
761.028564	229.100000
761.065674	228.200000
761.102783	220.000000
761.139954	229.400000
761.177124	229.400000
761.214172	231.400000
761.251343	223.600000
761.288452	226.300000
761.325562	230.100000
761.362732	223.800000
761.399841	227.100000
761.436951	231.300000
761.474121	225.400000
761.511169	230.300000
761.548340	233.500000
761.585449	233.500000
761.622559	234.500000
761.659668	233.600000
761.696838	239.600000
761.733887	233.900000
761.771057	231.900000
761.808167	233.700000
761.845276	239.100000
761.882385	246.600000
761.919434	235.700000
761.956604	254.000000
761.993713	232.000000
762.030762	242.600000
762.067871	236.800000
762.105042	236.100000
762.142090	244.800000
762.179199	239.300000
762.216309	243.400000
762.253418	254.100000
762.290527	249.500000
762.327637	245.100000
762.364685	235.300000
762.401794	246.300000
762.438904	244.000000
762.475952	239.700000
762.513062	238.800000
762.550110	239.900000
762.587219	253.600000
762.624329	254.300000
762.661377	247.500000
762.698486	246.200000
762.735596	247.500000
762.772644	240.700000
762.809753	237.900000
762.846863	247.900000
762.883911	251.300000
762.921021	250.700000
762.958069	250.700000
762.995117	256.600000
763.032227	258.200000
763.069336	249.800000
763.106323	244.300000
763.143433	245.500000
763.180481	251.900000
763.217590	252.700000
763.254639	250.300000
763.291687	253.000000
763.328735	259.500000
763.365845	253.300000
763.402893	250.600000
763.439941	254.400000
763.477051	259.100000
763.514038	259.800000
763.551147	253.800000
763.588196	257.100000
763.625244	255.400000
763.662292	263.500000
763.699402	265.800000
763.736389	262.100000
763.773499	271.900000
763.810486	266.200000
763.847534	262.000000
763.884644	264.600000
763.921631	258.400000
763.958679	273.600000
763.995728	262.900000
764.032776	271.900000
764.069824	256.800000
764.106873	266.800000
764.143860	273.200000
764.180969	265.800000
764.218018	275.100000
764.255005	264.600000
764.292053	268.800000
764.329102	279.500000
764.366089	278.900000
764.403137	279.300000
764.440125	266.600000
764.477173	270.800000
764.514221	273.800000
764.551208	271.600000
764.588257	266.900000
764.625305	280.000000
764.662292	285.300000
764.699341	288.100000
764.736389	277.800000
764.773376	296.600000
764.810425	284.600000
764.847473	290.000000
764.884399	285.500000
764.921448	292.800000
764.958435	291.700000
764.995483	282.000000
765.032532	297.300000
765.069458	283.600000
765.106506	285.000000
765.143555	284.400000
765.180481	286.900000
765.217529	294.400000
765.254578	280.700000
765.291504	290.500000
765.328552	287.200000
765.365540	283.900000
765.402527	298.500000
765.439575	284.400000
765.476501	281.200000
765.513550	279.200000
765.550537	285.300000
765.587463	294.300000
765.624512	286.600000
765.661499	278.200000
765.698486	295.800000
765.735474	287.500000
765.772461	289.400000
765.809448	298.900000
765.846436	296.800000
765.883423	299.900000
765.920410	292.600000
765.957397	289.100000
765.994385	295.500000
766.031311	303.300000
766.068359	298.400000
766.105286	298.200000
766.142273	305.400000
766.179260	300.000000
766.216187	294.800000
766.253174	292.000000
766.290161	303.500000
766.327148	305.600000
766.364136	305.400000
766.401123	323.400000
766.438049	299.800000
766.475037	313.100000
766.512024	310.400000
766.548950	324.700000
766.585937	319.800000
766.622864	315.200000
766.659790	314.300000
766.696777	303.900000
766.733704	321.300000
766.770691	313.500000
766.807678	328.100000
766.844604	322.400000
766.881531	322.100000
766.918518	329.400000
766.955444	329.800000
766.992432	323.300000
767.029358	327.300000
767.066284	331.600000
767.103271	329.200000
767.140198	359.500000
767.177124	347.000000
767.214050	335.900000
767.251038	338.000000
767.287964	337.900000
767.324890	331.200000
767.361816	338.600000
767.398743	347.600000
767.435730	338.900000
767.472595	343.500000
767.509583	348.900000
767.546509	337.800000
767.583374	345.600000
767.620361	339.000000
767.657288	346.200000
767.694214	346.400000
767.731140	346.100000
767.768066	348.300000
767.804993	352.000000
767.841919	342.800000
767.878845	352.600000
767.915710	358.700000
767.952698	351.800000
767.989563	357.200000
768.026489	359.000000
768.063416	354.200000
768.100281	353.700000
768.137207	366.300000
768.174133	367.000000
768.211060	365.500000
768.247986	364.900000
768.284912	364.500000
768.321777	367.900000
768.358704	366.000000
768.395630	368.400000
768.432495	363.500000
768.469421	371.800000
768.506348	377.400000
768.543152	382.400000
768.580078	377.800000
768.616943	381.800000
768.653870	383.100000
768.690796	385.400000
768.727661	380.500000
768.764587	383.000000
768.801453	381.900000
768.838318	388.700000
768.875244	387.200000
768.912109	396.000000
768.948975	386.000000
768.985901	392.900000
769.022766	390.300000
769.059631	396.400000
769.096558	392.100000
769.133362	393.200000
769.170288	393.000000
769.207214	395.900000
769.244019	401.100000
769.280945	401.100000
769.317810	408.600000
769.354675	400.800000
769.391541	412.000000
769.428406	409.900000
769.465271	423.200000
769.502136	411.700000
769.539062	412.200000
769.575867	410.700000
769.612732	412.300000
769.649597	418.500000
769.686462	427.800000
769.723328	418.800000
769.760193	415.500000
769.797058	420.900000
769.833923	429.500000
769.870728	425.600000
769.907593	430.300000
769.944519	429.100000
769.981323	431.900000
770.018188	432.400000
770.055054	431.000000
770.091858	431.900000
770.128723	445.900000
770.165588	452.700000
770.202393	433.800000
770.239258	445.000000
770.276062	440.300000
770.312927	440.000000
770.349792	450.500000
770.386597	447.400000
770.423462	454.500000
770.460327	464.100000
770.497131	445.900000
770.533997	439.900000
770.570862	457.500000
770.607605	459.500000
770.644470	450.900000
770.681335	452.800000
770.718140	454.600000
770.754944	443.800000
770.791809	445.600000
770.828613	449.300000
770.865479	449.800000
770.902222	466.500000
770.939087	455.100000
770.975952	444.000000
771.012695	450.500000
771.049561	470.000000
771.086365	455.000000
771.123169	457.000000
771.159973	459.100000
771.196838	457.900000
771.233582	458.500000
771.270447	461.100000
771.307251	463.000000
771.344055	457.800000
771.380859	463.700000
771.417664	460.000000
771.454468	466.800000
771.491272	470.100000
771.528076	466.900000
771.564880	467.200000
771.601685	479.200000
771.638428	469.200000
771.675293	474.700000
771.712097	464.200000
771.748840	482.300000
771.785645	474.800000
771.822449	477.900000
771.859253	480.600000
771.896057	478.800000
771.932861	495.000000
771.969604	482.400000
772.006409	475.800000
772.043213	490.200000
772.079956	488.800000
772.116760	478.300000
772.153503	486.500000
772.190308	496.800000
772.227112	487.000000
772.263855	481.800000
772.300659	491.300000
772.337463	498.300000
772.374207	488.000000
772.411011	486.600000
772.447754	492.400000
772.484497	514.700000
772.521301	505.700000
772.558105	504.900000
772.594849	504.100000
772.631592	511.600000
772.668396	511.100000
772.705139	516.300000
772.741882	515.200000
772.778625	524.200000
772.815430	531.500000
772.852173	525.700000
772.888916	534.900000
772.925720	536.300000
772.962463	545.100000
772.999207	541.900000
773.035950	549.600000
773.072754	548.700000
773.109436	546.100000
773.146240	549.500000
773.182922	549.500000
773.219727	559.200000
773.256470	555.200000
773.293152	541.200000
773.329956	551.100000
773.366699	557.500000
773.403381	548.900000
773.440186	562.100000
773.476929	563.800000
773.513611	556.400000
773.550354	553.800000
773.587158	559.100000
773.623840	556.000000
773.660583	569.700000
773.697327	580.500000
773.734009	568.200000
773.770813	567.200000
773.807495	568.700000
773.844238	577.900000
773.880981	594.500000
773.917664	590.400000
773.954407	592.700000
773.991150	584.300000
774.027832	590.700000
774.064575	583.100000
774.101318	592.800000
774.138000	601.500000
774.174744	596.700000
774.211487	597.600000
774.248108	585.200000
774.284851	586.200000
774.321594	599.300000
774.358276	603.600000
774.395020	617.200000
774.431702	612.600000
774.468384	606.800000
774.505127	604.500000
774.541809	617.600000
774.578491	634.900000
774.615234	635.600000
774.651917	626.800000
774.688599	631.800000
774.725342	636.600000
774.762024	634.900000
774.798706	641.000000
774.835449	644.000000
774.872070	649.000000
774.908813	646.600000
774.945496	641.800000
774.982178	645.000000
775.018860	649.000000
775.055542	646.000000
775.092224	652.200000
775.128967	658.700000
775.165588	653.500000
775.202271	646.800000
775.239014	664.400000
775.275635	663.900000
775.312317	659.300000
775.349060	665.000000
775.385681	661.400000
775.422363	659.600000
775.459045	671.100000
775.495667	674.400000
775.532410	676.200000
775.569092	676.800000
775.605713	673.600000
775.642395	673.800000
775.679016	677.400000
775.715698	682.000000
775.752380	690.600000
775.789001	677.900000
775.825684	678.300000
775.862366	682.700000
775.898987	696.500000
775.935669	689.600000
775.972351	711.800000
776.008972	707.400000
776.045654	702.500000
776.082336	693.100000
776.118958	693.500000
776.155640	706.900000
776.192322	715.700000
776.228882	718.500000
776.265564	715.900000
776.302185	705.700000
776.338867	710.800000
776.375488	701.300000
776.412109	712.200000
776.448792	719.700000
776.485413	731.100000
776.522034	719.600000
776.558716	710.300000
776.595337	707.000000
776.631958	718.700000
776.668579	717.600000
776.705261	721.800000
776.741882	717.200000
776.778503	714.500000
776.815186	710.700000
776.851746	721.000000
776.888367	724.700000
776.924988	737.000000
776.961609	720.600000
776.998291	723.400000
777.034851	710.800000
777.071472	728.900000
777.108154	721.700000
777.144714	735.200000
777.181335	734.900000
777.218018	725.100000
777.254578	729.600000
777.291199	732.100000
777.327759	738.600000
777.364380	743.700000
777.401062	753.200000
777.437622	764.300000
777.474243	749.800000
777.510864	758.900000
777.547424	759.500000
777.584045	758.600000
777.620667	762.100000
777.657227	766.000000
777.693848	772.500000
777.730469	786.100000
777.767029	775.800000
777.803650	779.800000
777.840271	771.200000
777.876831	772.400000
777.913452	781.900000
777.950012	762.000000
777.986633	764.900000
778.023193	760.400000
778.059753	763.500000
778.096375	765.500000
778.132996	774.200000
778.169556	768.700000
778.206116	774.200000
778.242737	767.700000
778.279297	780.800000
778.315857	770.600000
778.352478	783.300000
778.389038	798.700000
778.425598	793.800000
778.462219	805.500000
778.498718	809.100000
778.535339	814.600000
778.571838	811.200000
778.608459	820.000000
778.645020	817.400000
778.681580	830.800000
778.718140	831.200000
778.754761	828.000000
778.791260	831.300000
778.827881	842.300000
778.864441	835.800000
778.900940	841.400000
778.937561	843.000000
778.974121	842.400000
779.010620	831.000000
779.047241	838.600000
779.083801	848.500000
779.120300	849.800000
779.156860	846.600000
779.193359	845.900000
779.229980	845.300000
779.266541	857.600000
779.303040	865.300000
779.339600	856.900000
779.376160	849.600000
779.412659	857.700000
779.449219	854.200000
779.485779	864.900000
779.522278	872.500000
779.558838	871.400000
779.595398	874.200000
779.631897	872.400000
779.668457	863.500000
779.705017	878.300000
779.741516	869.700000
779.778076	870.400000
779.814575	874.800000
779.851074	885.600000
779.887634	880.100000
779.924133	888.500000
779.960693	875.700000
779.997253	881.800000
780.033691	893.400000
780.070251	900.800000
780.106812	910.900000
780.143250	903.300000
780.179810	907.800000
780.216370	914.400000
780.252808	921.300000
780.289368	925.300000
780.325867	923.900000
780.362366	914.400000
780.398865	933.300000
780.435364	930.500000
780.471863	946.900000
780.508423	942.800000
780.544861	954.500000
780.581421	960.700000
780.617920	946.500000
780.654419	936.700000
780.690918	949.900000
780.727417	961.800000
780.763916	962.400000
780.800415	965.700000
780.836914	950.100000
780.873352	959.500000
780.909912	943.700000
780.946411	954.400000
780.982849	963.200000
781.019348	983.100000
781.055786	981.300000
781.092346	973.900000
781.128845	981.600000
781.165283	989.500000
781.201782	995.300000
781.238281	991.500000
781.274719	1001.300000
781.311218	987.000000
781.347717	1004.500000
781.384155	988.900000
781.420654	990.500000
781.457092	1005.800000
781.493591	1007.100000
781.530090	994.400000
781.566528	999.500000
781.602966	1001.700000
781.639465	1002.800000
781.675903	1002.600000
781.712402	1009.300000
781.748901	1011.600000
781.785278	1011.700000
781.821777	1011.300000
781.858276	1005.200000
781.894714	1022.100000
781.931152	1014.000000
781.967651	1023.800000
782.004089	1009.300000
782.040527	1023.300000
782.076965	1024.700000
782.113403	1024.800000
782.149902	1029.400000
782.186340	1030.000000
782.222778	1043.800000
782.259277	1028.100000
782.295654	1020.200000
782.332092	1028.300000
782.368591	1021.800000
782.404968	1008.600000
782.441467	1018.100000
782.477905	1019.000000
782.514282	1016.400000
782.550781	1034.600000
782.587219	1032.100000
782.623596	1037.500000
782.660095	1046.900000
782.696472	1045.600000
782.732910	1044.100000
782.769348	1057.500000
782.805786	1069.900000
782.842224	1061.900000
782.878662	1060.100000
782.915039	1063.000000
782.951477	1057.900000
782.987915	1046.500000
783.024292	1060.500000
783.060730	1058.000000
783.097168	1049.400000
783.133545	1044.200000
783.169983	1032.400000
783.206421	1031.200000
783.242798	1030.300000
783.279236	1013.700000
783.315613	1012.200000
783.352051	1007.600000
783.388489	1001.800000
783.424866	984.800000
783.461304	992.500000
783.497681	996.900000
783.534058	989.200000
783.570496	986.400000
783.606934	974.800000
783.643250	975.100000
783.679687	965.000000
783.716125	920.300000
783.752441	876.400000
783.788879	818.900000
783.825317	735.200000
783.861633	659.100000
783.898071	596.500000
783.934448	569.200000
783.970825	576.800000
784.007263	606.600000
784.043579	680.100000
784.080017	765.600000
784.116394	839.400000
784.152710	916.800000
784.189148	986.900000
784.225525	1037.600000
784.261902	1048.400000
784.298279	1070.400000
784.334656	1080.400000
784.371033	1074.100000
784.407410	1089.300000
784.443787	1069.000000
784.480164	1053.400000
784.516541	1039.400000
784.552856	1041.200000
784.589233	1029.200000
784.625610	1031.100000
784.661987	1066.100000
784.698364	1055.900000
784.734741	1041.300000
784.771057	1035.000000
784.807434	1047.200000
784.843811	1073.200000
784.880127	1066.300000
784.916504	1101.400000
784.952881	1108.800000
784.989197	1097.400000
785.025574	1092.600000
785.061951	1107.300000
785.098267	1138.100000
785.134644	1138.300000
785.170959	1135.700000
785.207275	1139.200000
785.243652	1135.700000
785.279968	1124.000000
785.316345	1133.200000
785.352722	1132.400000
785.388977	1132.800000
785.425354	1116.700000
785.461731	1092.400000
785.498047	1090.900000
785.534363	1081.400000
785.570679	1079.900000
785.606995	1087.400000
785.643372	1090.100000
785.679687	1087.900000
785.716003	1067.400000
785.752380	1067.400000
785.788635	1066.400000
785.825012	1094.600000
785.861328	1104.900000
785.897644	1097.400000
785.933960	1101.900000
785.970337	1108.100000
786.006592	1124.000000
786.042908	1141.300000
786.079285	1158.500000
786.115540	1166.700000
786.151855	1163.200000
786.188171	1156.800000
786.224487	1147.900000
786.260803	1153.600000
786.297119	1177.800000
786.333435	1183.100000
786.369751	1169.500000
786.406006	1170.600000
786.442322	1150.200000
786.478638	1137.800000
786.514954	1164.900000
786.551270	1165.300000
786.587585	1173.100000
786.623840	1162.900000
786.660156	1154.000000
786.696472	1142.000000
786.732727	1137.800000
786.769043	1129.700000
786.805298	1119.600000
786.841614	1125.400000
786.877930	1134.400000
786.914124	1118.800000
786.950439	1132.700000
786.986755	1143.200000
787.023010	1162.300000
787.059326	1175.000000
787.095642	1164.600000
787.131836	1178.500000
787.168152	1165.000000
787.204468	1170.500000
787.240723	1191.700000
787.276978	1215.300000
787.313293	1214.500000
787.349548	1206.400000
787.385803	1212.200000
787.422058	1204.200000
787.458313	1210.400000
787.494629	1215.300000
787.530823	1211.100000
787.567139	1196.500000
787.603455	1192.700000
787.639648	1178.200000
787.675903	1173.800000
787.712219	1173.100000
787.748413	1166.600000
787.784729	1181.300000
787.820984	1171.300000
787.857178	1157.700000
787.893494	1141.700000
787.929749	1143.100000
787.965942	1154.900000
788.002258	1170.400000
788.038452	1181.200000
788.074707	1172.200000
788.110962	1179.500000
788.147217	1167.800000
788.183472	1176.500000
788.219727	1189.200000
788.255920	1200.900000
788.292175	1203.500000
788.328430	1206.100000
788.364624	1188.600000
788.400879	1174.800000
788.437134	1177.200000
788.473328	1176.900000
788.509583	1181.100000
788.545837	1176.500000
788.582031	1167.900000
788.618286	1148.000000
788.654480	1147.200000
788.690735	1156.300000
788.726990	1185.200000
788.763184	1176.700000
788.799377	1190.600000
788.835632	1182.200000
788.871826	1194.700000
788.908081	1195.200000
788.944336	1195.800000
788.980469	1215.000000
789.016724	1203.500000
789.052979	1205.400000
789.089111	1183.800000
789.125366	1188.100000
789.161621	1173.000000
789.197754	1183.200000
789.234009	1177.400000
789.270142	1158.900000
789.306396	1137.700000
789.342590	1136.400000
789.378784	1112.500000
789.414978	1110.600000
789.451233	1135.600000
789.487366	1129.400000
789.523621	1140.000000
789.559814	1131.900000
789.595947	1122.900000
789.632202	1123.000000
789.668335	1136.200000
789.704529	1159.900000
789.740784	1179.400000
789.776917	1179.800000
789.813110	1161.500000
789.849304	1175.800000
789.885498	1179.900000
789.921692	1204.100000
789.957886	1211.300000
789.994019	1209.300000
790.030212	1208.600000
790.066406	1207.400000
790.102539	1193.700000
790.138733	1206.900000
790.174927	1199.900000
790.211060	1214.000000
790.247253	1199.300000
790.283386	1181.500000
790.319580	1168.300000
790.355774	1144.700000
790.391907	1153.700000
790.428101	1185.400000
790.464294	1196.100000
790.500427	1196.500000
790.536621	1171.800000
790.572754	1154.800000
790.608887	1150.100000
790.645081	1169.400000
790.681274	1187.700000
790.717346	1177.600000
790.753540	1139.600000
790.789734	1069.400000
790.825867	1012.100000
790.862000	1004.400000
790.898132	1041.200000
790.934265	1093.500000
790.970459	1150.400000
791.006592	1168.100000
791.042725	1166.500000
791.078918	1167.600000
791.114990	1177.600000
791.151184	1193.600000
791.187317	1209.300000
791.223389	1187.700000
791.259583	1178.900000
791.295715	1191.000000
791.331848	1199.200000
791.367981	1207.300000
791.404114	1212.600000
791.440247	1206.800000
791.476379	1202.100000
791.512451	1186.000000
791.548584	1190.500000
791.584778	1179.700000
791.620850	1204.900000
791.656982	1214.900000
791.693115	1205.300000
791.729187	1200.000000
791.765381	1190.600000
791.801514	1188.400000
791.837585	1188.200000
791.873718	1199.300000
791.909851	1212.700000
791.945923	1212.600000
791.982056	1181.300000
792.018188	1174.900000
792.054260	1185.100000
792.090393	1186.000000
792.126465	1178.400000
792.162598	1187.800000
792.198669	1168.200000
792.234741	1162.800000
792.270874	1160.500000
792.307007	1146.400000
792.343079	1154.500000
792.379150	1175.200000
792.415283	1158.700000
792.451355	1158.100000
792.487488	1131.600000
792.523560	1130.700000
792.559631	1139.700000
792.595764	1139.800000
792.631836	1148.600000
792.667908	1155.600000
792.703979	1134.400000
792.740051	1132.900000
792.776184	1136.200000
792.812256	1135.700000
792.848328	1148.100000
792.884399	1152.000000
792.920471	1146.900000
792.956543	1140.100000
792.992615	1141.000000
793.028748	1138.900000
793.064758	1150.300000
793.100830	1169.400000
793.136963	1182.400000
793.172974	1168.800000
793.209045	1158.300000
793.245178	1177.200000
793.281189	1154.700000
793.317261	1162.200000
793.353271	1164.300000
793.389404	1169.500000
793.425476	1158.300000
793.461487	1146.800000
793.497559	1143.000000
793.533630	1157.400000
793.569641	1154.400000
793.605713	1155.400000
793.641785	1150.700000
793.677795	1163.900000
793.713867	1156.000000
793.749878	1163.200000
793.785950	1170.900000
793.822021	1178.000000
793.858032	1162.400000
793.894104	1174.100000
793.930176	1150.800000
793.966187	1160.200000
794.002258	1153.000000
794.038269	1161.000000
794.074280	1151.600000
794.110352	1180.100000
794.146423	1146.600000
794.182373	1134.300000
794.218445	1138.100000
794.254517	1131.100000
794.290466	1110.000000
794.326538	1113.400000
794.362549	1116.800000
794.398560	1124.500000
794.434631	1118.300000
794.470581	1094.900000
794.506653	1094.300000
794.542664	1092.700000
794.578674	1089.700000
794.614685	1091.800000
794.650757	1081.400000
794.686707	1079.600000
794.722778	1063.600000
794.758789	1073.000000
794.794739	1084.800000
794.830811	1108.500000
794.866821	1128.500000
794.902771	1114.500000
794.938843	1092.300000
794.974792	1099.400000
795.010803	1100.000000
795.046814	1095.200000
795.082825	1089.900000
795.118835	1104.300000
795.154846	1078.800000
795.190796	1085.600000
795.226807	1065.500000
795.262817	1064.600000
795.298767	1065.600000
795.334778	1073.600000
795.370850	1060.400000
795.406799	1057.200000
795.442810	1038.200000
795.478821	1041.800000
795.514709	1043.000000
795.550720	1056.500000
795.586670	1045.100000
795.622681	1049.000000
795.658691	1042.300000
795.694641	1033.000000
795.730652	1021.900000
795.766663	1033.500000
795.802551	1036.400000
795.838562	1048.700000
795.874573	1040.300000
795.910522	1034.900000
795.946472	1018.600000
795.982483	1027.200000
796.018433	1029.600000
796.054382	1043.300000
796.090393	1028.800000
796.126282	1014.900000
796.162292	1003.400000
796.198242	1004.700000
796.234192	1006.200000
796.270203	1002.400000
796.306091	1005.400000
796.342041	1020.300000
796.378052	1005.600000
796.413940	999.500000
796.449951	1008.800000
796.485901	1004.400000
796.521790	1005.100000
796.557800	1020.900000
796.593689	1015.500000
796.629639	1000.500000
796.665649	1001.100000
796.701599	1004.000000
796.737488	998.600000
796.773437	1005.600000
796.809387	1000.300000
796.845337	994.000000
796.881287	981.900000
796.917175	967.900000
796.953125	974.600000
796.989075	987.200000
797.024963	991.700000
797.060913	989.000000
797.096863	986.600000
797.132751	982.200000
797.168701	962.300000
797.204590	971.900000
797.240540	976.300000
797.276489	978.800000
797.312439	981.100000
797.348328	980.400000
797.384277	967.100000
797.420166	954.100000
797.456055	958.800000
797.492004	951.300000
797.527893	962.600000
797.563843	968.000000
797.599731	950.500000
797.635620	938.600000
797.671570	942.700000
797.707520	942.200000
797.743347	950.000000
797.779297	961.700000
797.815125	952.200000
797.851074	942.000000
797.887024	929.400000
797.922913	921.000000
797.958801	936.900000
797.994690	934.300000
798.030579	945.900000
798.066467	941.800000
798.102356	931.900000
798.138245	923.600000
798.174133	924.900000
798.210083	933.000000
798.245911	939.300000
798.281799	936.100000
798.317749	932.300000
798.353577	923.000000
798.389465	917.500000
798.425293	917.300000
798.461243	912.300000
798.497131	911.700000
798.532959	913.600000
798.568848	921.400000
798.604736	906.700000
798.640564	896.600000
798.676453	896.600000
798.712402	902.500000
798.748230	909.900000
798.784119	905.300000
798.820007	902.600000
798.855835	900.700000
798.891724	891.400000
798.927551	887.000000
798.963379	898.700000
798.999268	895.800000
799.035095	890.400000
799.070984	884.000000
799.106873	874.600000
799.142700	886.700000
799.178528	874.100000
799.214417	872.400000
799.250244	889.700000
799.286133	878.700000
799.321960	873.400000
799.357788	871.800000
799.393677	871.300000
799.429504	870.100000
799.465332	872.900000
799.501221	879.300000
799.537048	877.000000
799.572876	860.500000
799.608704	863.000000
799.644531	868.700000
799.680359	867.800000
799.716248	878.300000
799.752014	886.700000
799.787903	874.800000
799.823730	869.400000
799.859558	858.100000
799.895386	860.300000
799.931213	864.800000
799.967041	854.600000
800.002869	847.500000
800.038696	862.600000
800.074463	840.800000
800.110352	846.100000
800.146179	838.100000
800.181946	844.400000
800.217773	843.200000
800.253540	838.200000
800.289429	834.700000
800.325256	830.400000
800.361023	821.500000
800.396851	824.800000
800.432678	824.700000
800.468445	824.400000
800.504272	819.300000
800.540100	802.100000
800.575867	802.700000
800.611694	810.600000
800.647461	800.600000
800.683289	803.700000
800.719116	803.200000
800.754883	794.400000
800.790649	782.400000
800.826477	777.700000
800.862244	797.800000
800.898071	777.900000
800.933838	772.600000
800.969604	771.100000
801.005432	771.300000
801.041199	770.300000
801.076965	761.200000
801.112793	752.800000
801.148560	749.800000
801.184326	751.500000
801.220154	754.100000
801.255859	741.500000
801.291687	741.600000
801.327454	732.400000
801.363281	736.800000
801.398987	735.800000
801.434814	731.300000
801.470520	741.300000
801.506287	730.300000
801.542114	720.800000
801.577820	726.900000
801.613647	727.700000
801.649414	718.600000
801.685120	717.300000
801.720886	726.000000
801.756714	712.700000
801.792419	704.100000
801.828186	699.500000
801.863892	708.200000
801.899719	701.100000
801.935486	698.300000
801.971252	706.300000
802.006958	696.000000
802.042725	689.600000
802.078430	694.300000
802.114197	685.200000
802.149963	702.300000
802.185669	691.300000
802.221436	682.700000
802.257202	682.300000
802.292908	680.400000
802.328674	687.500000
802.364441	689.700000
802.400146	682.200000
802.435913	674.300000
802.471558	671.500000
802.507324	672.900000
802.543091	661.500000
802.578796	673.600000
802.614502	674.500000
802.650269	675.400000
802.685974	660.300000
802.721741	664.800000
802.757446	669.600000
802.793152	664.400000
802.828918	669.200000
802.864624	665.400000
802.900330	662.300000
802.936035	658.400000
802.971802	657.000000
803.007446	655.000000
803.043213	646.000000
803.078857	655.000000
803.114624	640.500000
803.150330	648.900000
803.185974	635.900000
803.221741	635.200000
803.257446	646.200000
803.293152	646.700000
803.328857	635.100000
803.364563	629.500000
803.400208	626.000000
803.435974	634.700000
803.471680	622.100000
803.507324	621.300000
803.543030	629.600000
803.578735	628.600000
803.614441	617.700000
803.650146	626.500000
803.685791	612.500000
803.721497	611.800000
803.757202	600.000000
803.792847	610.000000
803.828552	602.000000
803.864258	603.700000
803.899902	604.600000
803.935608	586.600000
803.971313	591.700000
804.006958	594.600000
804.042664	591.700000
804.078308	597.700000
804.113953	587.900000
804.149658	597.500000
804.185364	584.200000
804.221008	594.900000
804.256714	582.000000
804.292297	582.200000
804.328003	580.100000
804.363708	571.400000
804.399292	572.800000
804.434998	574.100000
804.470703	561.900000
804.506287	577.600000
804.541992	570.400000
804.577637	573.100000
804.613281	561.300000
804.648926	559.400000
804.684570	563.500000
804.720215	560.700000
804.755920	560.100000
804.791565	552.800000
804.827209	556.600000
804.862854	552.900000
804.898437	550.100000
804.934143	551.900000
804.969788	550.000000
805.005371	552.500000
805.041077	548.100000
805.076721	551.600000
805.112305	537.400000
805.147949	540.200000
805.183655	535.000000
805.219238	538.600000
805.254883	534.900000
805.290466	542.300000
805.326111	538.300000
805.361755	528.200000
805.397400	537.500000
805.432983	539.300000
805.468628	537.200000
805.504211	540.700000
805.539856	535.800000
805.575500	536.200000
805.611084	528.400000
805.646729	515.200000
805.682373	523.600000
805.717957	536.600000
805.753601	538.200000
805.789246	517.200000
805.824768	528.400000
805.860413	530.800000
805.895996	517.600000
805.931641	520.200000
805.967224	524.400000
806.002869	517.800000
806.038452	528.200000
806.074036	522.800000
806.109619	510.300000
806.145264	509.900000
806.180847	510.700000
806.216431	507.100000
806.252014	514.000000
806.287659	509.200000
806.323181	518.300000
806.358826	512.700000
806.394409	493.300000
806.429993	495.900000
806.465576	512.900000
806.501160	492.700000
806.536743	490.100000
806.572327	498.200000
806.607910	493.400000
806.643494	492.700000
806.679077	486.300000
806.714661	493.700000
806.750244	490.400000
806.785828	482.400000
806.821350	482.800000
806.856934	485.900000
806.892517	483.900000
806.928101	475.900000
806.963684	475.200000
806.999268	482.900000
807.034790	463.900000
807.070374	471.700000
807.105896	466.600000
807.141479	465.300000
807.177063	472.900000
807.212585	462.400000
807.248169	465.400000
807.283752	469.000000
807.319275	460.400000
807.354858	461.900000
807.390381	455.900000
807.425903	458.300000
807.461487	451.400000
807.497070	449.000000
807.532593	449.000000
807.568115	444.600000
807.603699	446.300000
807.639221	442.600000
807.674744	442.400000
807.710266	447.000000
807.745850	449.600000
807.781372	441.800000
807.816895	435.200000
807.852417	442.400000
807.888000	439.100000
807.923523	435.600000
807.959045	439.100000
807.994629	426.800000
808.030090	424.400000
808.065613	434.600000
808.101135	433.700000
808.136658	431.700000
808.172241	425.300000
808.207764	425.300000
808.243225	420.800000
808.278809	418.500000
808.314270	428.600000
808.349792	414.100000
808.385315	413.700000
808.420837	420.300000
808.456360	421.000000
808.491882	423.300000
808.527344	417.500000
808.562866	426.700000
808.598389	416.600000
808.633850	410.300000
808.669434	406.700000
808.704895	416.000000
808.740417	420.000000
808.775940	412.100000
808.811462	405.900000
808.846924	398.700000
808.882385	396.500000
808.917847	394.700000
808.953369	397.500000
808.988892	391.500000
809.024353	400.600000
809.059875	396.400000
809.095398	395.800000
809.130798	387.000000
809.166321	386.400000
809.201843	388.300000
809.237305	389.900000
809.272766	395.400000
809.308228	379.900000
809.343750	381.000000
809.379211	381.800000
809.414734	381.400000
809.450134	391.000000
809.485657	372.800000
809.521118	380.300000
809.556580	377.600000
809.592102	374.000000
809.627502	373.100000
809.663025	371.100000
809.698486	368.800000
809.733887	365.400000
809.769409	369.400000
809.804871	358.200000
809.840271	360.500000
809.875793	363.400000
809.911194	367.000000
809.946655	361.300000
809.982178	354.800000
810.017639	359.800000
810.053040	358.200000
810.088501	352.000000
810.123901	351.500000
810.159424	349.200000
810.194885	345.200000
810.230286	351.100000
810.265747	344.500000
810.301208	340.300000
810.336609	345.800000
810.372070	338.200000
810.407532	341.200000
810.442932	344.300000
810.478394	348.700000
810.513794	343.500000
810.549255	340.400000
810.584717	337.600000
810.620117	331.700000
810.655518	341.000000
810.690979	339.900000
810.726379	337.200000
810.761841	326.900000
810.797302	328.500000
810.832642	327.400000
810.868103	338.900000
810.903564	325.500000
810.938904	334.200000
810.974365	320.600000
811.009827	327.400000
811.045166	322.500000
811.080627	313.700000
811.115967	322.500000
811.151428	330.600000
811.186829	320.500000
811.222229	322.400000
811.257629	314.600000
811.293091	321.100000
811.328430	329.500000
811.363892	325.200000
811.399292	325.000000
811.434631	317.300000
811.470093	323.100000
811.505493	313.600000
811.540833	316.300000
811.576294	320.700000
811.611694	315.200000
811.647034	312.000000
811.682434	312.400000
811.717773	312.200000
811.753235	317.400000
811.788635	311.200000
811.823975	313.600000
811.859375	319.800000
811.894775	306.100000
811.930115	308.600000
811.965515	309.300000
812.000916	311.300000
812.036255	307.200000
812.071655	312.300000
812.106995	302.000000
812.142395	303.700000
812.177795	311.300000
812.213196	306.900000
812.248474	305.600000
812.283875	298.000000
812.319214	302.500000
812.354614	303.600000
812.390015	298.900000
812.425293	299.800000
812.460693	299.100000
812.496094	297.300000
812.531433	289.800000
812.566772	290.400000
812.602173	295.700000
812.637451	297.400000
812.672852	290.700000
812.708191	294.900000
812.743530	288.100000
812.778931	282.900000
812.814270	287.000000
812.849609	295.600000
812.884949	287.900000
812.920227	281.100000
812.955627	296.100000
812.990967	290.100000
813.026306	282.700000
813.061646	275.800000
813.096985	271.500000
813.132324	269.200000
813.167664	274.100000
813.203003	281.400000
813.238281	267.600000
813.273682	269.800000
813.308960	265.100000
813.344299	269.100000
813.379639	277.100000
813.414978	269.600000
813.450256	269.000000
813.485596	272.400000
813.520874	265.900000
813.556213	270.000000
813.591614	272.400000
813.626831	264.700000
813.662170	268.200000
813.697510	277.800000
813.732788	260.900000
813.768127	266.600000
813.803467	267.200000
813.838745	261.500000
813.874084	266.400000
813.909363	264.300000
813.944641	266.000000
813.979980	255.400000
814.015320	261.500000
814.050598	257.700000
814.085876	262.600000
814.121155	259.700000
814.156494	257.000000
814.191772	260.200000
814.227051	255.400000
814.262390	256.800000
814.297668	257.900000
814.332947	259.100000
814.368225	251.700000
814.403564	255.500000
814.438782	252.900000
814.474121	254.400000
814.509338	252.100000
814.544617	259.900000
814.579956	250.600000
814.615173	261.500000
814.650513	258.800000
814.685791	249.100000
814.721008	252.100000
814.756348	252.900000
814.791626	247.800000
814.826843	249.300000
814.862122	250.200000
814.897400	246.100000
814.932678	249.600000
814.967957	248.000000
815.003235	246.900000
815.038452	241.700000
815.073730	240.100000
815.108948	250.400000
815.144226	247.400000
815.179504	251.100000
815.214722	236.200000
815.250000	235.500000
815.285278	243.300000
815.320496	237.900000
815.355774	240.100000
815.391052	241.500000
815.426270	239.200000
815.461487	236.400000
815.496765	233.200000
815.531982	229.100000
815.567261	237.800000
815.602539	244.300000
815.637695	236.200000
815.672974	238.100000
815.708191	238.900000
815.743408	239.400000
815.778687	232.100000
815.813904	245.000000
815.849121	225.000000
815.884399	229.400000
815.919556	229.200000
815.954834	228.700000
815.990051	233.100000
816.025269	237.500000
816.060486	227.600000
816.095703	226.600000
816.130920	231.200000
816.166199	226.800000
816.201416	230.600000
816.236572	236.300000
816.271851	226.300000
816.307007	234.400000
816.342224	223.300000
816.377441	226.100000
816.412659	219.300000
816.447876	231.400000
816.483093	225.000000
816.518250	227.400000
816.553467	224.700000
816.588745	229.700000
816.623901	220.700000
816.659119	215.400000
816.694275	220.300000
816.729492	218.700000
816.764709	253.600000
816.799927	215.500000
816.835083	220.600000
816.870300	215.000000
816.905457	219.900000
816.940674	221.700000
816.975830	215.600000
817.010986	212.300000
817.046204	215.000000
817.081421	212.600000
817.116577	212.200000
817.151733	219.800000
817.186951	220.100000
817.222107	218.200000
817.257324	219.100000
817.292419	217.300000
817.327637	210.700000
817.362854	215.200000
817.398010	208.600000
817.433167	211.100000
817.468323	210.400000
817.503479	210.900000
817.538635	220.300000
817.573853	215.600000
817.608948	214.300000
817.644165	207.800000
817.679321	208.600000
817.714478	208.900000
817.749634	211.900000
817.784790	223.500000
817.819946	219.400000
817.855103	201.200000
817.890198	211.100000
817.925415	202.900000
817.960571	211.300000
817.995667	210.500000
818.030823	212.900000
818.066040	206.100000
818.101135	210.800000
818.136292	207.900000
818.171448	203.000000
818.206543	208.900000
818.241699	211.100000
818.276855	208.200000
818.311951	207.500000
818.347107	202.600000
818.382263	211.700000
818.417358	212.800000
818.452515	214.700000
818.487610	213.900000
818.522766	203.200000
818.557922	213.800000
818.593018	210.600000
818.628113	208.000000
818.663269	201.100000
818.698364	206.700000
818.733521	203.100000
818.768677	208.400000
818.803711	199.200000
818.838867	201.400000
818.874023	205.000000
818.909058	200.400000
818.944214	198.100000
818.979370	206.400000
819.014404	204.400000
819.049561	200.800000
819.084595	206.700000
819.119751	196.500000
819.154846	207.300000
819.189941	201.700000
819.225037	196.200000
819.260193	193.100000
819.295227	196.200000
819.330322	191.400000
819.365479	192.900000
819.400513	226.900000
819.435608	190.900000
819.470764	189.100000
819.505798	192.300000
819.540894	196.300000
819.575989	194.300000
819.611084	203.800000
819.646179	201.700000
819.681213	201.000000
819.716309	196.700000
819.751404	196.900000
819.786438	201.800000
819.821533	194.100000
819.856628	198.100000
819.891663	200.700000
819.926758	209.300000
819.961853	203.100000
819.996887	194.600000
820.031982	201.400000
820.067017	196.200000
820.102112	225.000000
820.137207	194.000000
820.172302	212.900000
820.207275	193.200000
820.242371	193.300000
820.277405	192.600000
820.312500	196.300000
820.347534	198.100000
820.382568	201.700000
820.417664	193.400000
820.452759	194.200000
820.487732	191.400000
820.522827	195.200000
820.557861	190.800000
820.592896	193.900000
820.627930	194.300000
820.662964	191.700000
820.698059	196.900000
820.733093	192.600000
820.768127	198.700000
820.803162	193.300000
820.838196	190.200000
820.873230	196.500000
820.908264	196.100000
820.943298	191.300000
820.978333	200.100000
821.013367	195.000000
821.048401	198.200000
821.083435	200.700000
821.118469	185.800000
821.153503	198.600000
821.188477	196.700000
821.223511	187.200000
821.258484	195.200000
821.293579	196.600000
821.328613	186.700000
821.363647	192.500000
821.398621	189.700000
821.433655	190.800000
821.468628	207.300000
821.503662	192.100000
821.538696	196.300000
821.573669	188.500000
821.608704	197.900000
821.643677	190.800000
821.678650	197.100000
821.713684	202.600000
821.748718	192.100000
821.783691	193.500000
821.818726	196.500000
821.853638	196.200000
821.888672	192.200000
821.923706	193.000000
821.958618	190.800000
821.993652	190.400000
822.028687	196.900000
822.063599	198.500000
822.098633	195.400000
822.133667	188.800000
822.168579	191.200000
822.203613	194.300000
822.238586	189.000000
822.273560	194.800000
822.308533	189.100000
822.343567	189.300000
822.378479	192.200000
822.413452	192.300000
822.448425	188.200000
822.483398	197.700000
822.518372	196.700000
822.553345	189.800000
822.588318	201.400000
822.623291	191.500000
822.658203	191.100000
822.693237	193.700000
822.728210	187.900000
822.763123	194.600000
822.798096	186.300000
822.833069	192.400000
822.867981	192.700000
822.902954	195.600000
822.937927	196.800000
822.972900	205.200000
823.007874	185.000000
823.042725	195.900000
823.077698	204.500000
823.112671	188.500000
823.147583	190.700000
823.182556	196.200000
823.217529	197.900000
823.252441	191.300000
823.287415	205.800000
823.322388	195.200000
823.357239	193.500000
823.392212	201.900000
823.427185	195.800000
823.462097	188.800000
823.497009	195.700000
823.531982	190.800000
823.566895	192.700000
823.601807	187.000000
823.636719	190.400000
823.671631	195.600000
823.706604	190.500000
823.741455	195.100000
823.776428	185.500000
823.811340	196.300000
823.846252	199.200000
823.881165	199.800000
823.916138	195.200000
823.950989	200.500000
823.985901	189.300000
824.020813	192.300000
824.055725	189.400000
824.090637	189.300000
824.125610	194.300000
824.160461	191.400000
824.195374	195.200000
824.230225	198.300000
824.265198	184.900000
824.300110	189.300000
824.334961	203.200000
824.369873	182.600000
824.404785	193.900000
824.439636	198.800000
824.474548	184.200000
824.509460	183.100000
824.544312	198.800000
824.579224	194.300000
824.614075	195.700000
824.648987	192.000000
824.683899	191.900000
824.718811	190.900000
824.753662	201.000000
824.788574	198.100000
824.823364	195.400000
824.858276	190.000000
824.893188	199.500000
824.928040	199.600000
824.962952	194.700000
824.997803	197.200000
825.032654	194.200000
825.067566	195.100000
825.102417	191.200000
825.137268	191.800000
825.172119	193.900000
825.206970	190.600000
825.241882	191.400000
825.276733	189.500000
825.311646	191.100000
825.346436	188.400000
825.381348	187.600000
825.416138	192.500000
825.450989	188.900000
825.485901	183.900000
825.520691	184.400000
825.555542	184.400000
825.590454	190.600000
825.625244	184.100000
825.660095	198.400000
825.695007	195.500000
825.729797	190.300000
825.764648	188.000000
825.799438	191.300000
825.834290	192.300000
825.869202	184.900000
825.903992	193.600000
825.938843	189.200000
825.973694	186.100000
826.008484	203.000000
826.043335	187.800000
826.078186	182.200000
826.112976	199.200000
826.147827	197.100000
826.182678	202.000000
826.217468	184.600000
826.252319	196.600000
826.287109	188.600000
826.321899	199.900000
826.356750	190.900000
826.391541	187.600000
826.426392	197.300000
826.461182	192.000000
826.495972	185.400000
826.530823	182.800000
826.565613	192.300000
826.600403	186.700000
826.635254	195.200000
826.670044	182.800000
826.704834	182.800000
826.739685	186.900000
826.774475	193.800000
826.809265	191.000000
826.844055	189.100000
826.878906	198.000000
826.913635	194.100000
826.948425	193.200000
826.983215	193.900000
827.018005	195.900000
827.052856	189.400000
827.087585	194.800000
827.122375	182.700000
827.157227	190.600000
827.191956	202.400000
827.226746	186.600000
827.261536	195.000000
827.296265	185.100000
827.331116	188.900000
827.365906	194.700000
827.400635	186.500000
827.435425	182.500000
827.470215	196.200000
827.504944	188.800000
827.539734	197.100000
827.574463	191.100000
827.609253	198.700000
827.644043	192.400000
827.678772	196.200000
827.713562	188.400000
827.748352	190.200000
827.783081	188.600000
827.817871	191.500000
827.852600	186.800000
827.887329	192.900000
827.922119	180.400000
827.956848	194.000000
827.991638	205.800000
828.026367	193.900000
828.061157	191.800000
828.095886	191.800000
828.130615	205.300000
828.165344	181.600000
828.200073	191.100000
828.234863	190.200000
828.269592	192.500000
828.304321	197.000000
828.339111	192.600000
828.373779	188.900000
828.408569	195.800000
828.443298	196.800000
828.477966	188.900000
828.512756	192.500000
828.547424	186.300000
828.582214	189.000000
828.616943	188.600000
828.651672	190.000000
828.686340	195.900000
828.721130	187.900000
828.755798	189.900000
828.790527	191.100000
828.825256	192.300000
828.859924	192.100000
828.894714	197.600000
828.929443	199.100000
828.964111	187.800000
828.998840	193.100000
829.033569	187.900000
829.068237	188.300000
829.102966	186.900000
829.137634	192.600000
829.172363	191.900000
829.207092	192.400000
829.241821	188.100000
829.276489	182.200000
829.311157	192.800000
829.345825	189.100000
829.380554	194.900000
829.415283	186.300000
829.449951	184.600000
829.484619	199.400000
829.519348	199.200000
829.554016	192.400000
829.588745	190.600000
829.623413	186.200000
829.658081	202.100000
829.692749	186.000000
829.727417	196.300000
829.762146	193.400000
829.796814	186.300000
829.831482	190.400000
829.866150	193.500000
829.900879	189.400000
829.935486	193.800000
829.970154	189.400000
830.004883	203.300000
830.039490	191.900000
830.074219	188.900000
830.108887	191.400000
830.143494	189.900000
830.178223	184.400000
830.212891	189.500000
830.247498	190.400000
830.282166	200.600000
830.316772	197.700000
830.351501	188.000000
830.386169	191.000000
830.420776	189.900000
830.455444	191.300000
830.490112	188.800000
830.524719	182.600000
830.559387	193.000000
830.594055	193.200000
830.628662	189.400000
830.663330	190.500000
830.697998	198.900000
830.732605	190.700000
830.767273	192.800000
830.801941	190.700000
830.836487	199.900000
830.871155	191.100000
830.905762	193.400000
830.940430	183.800000
830.975098	186.800000
831.009644	192.400000
831.044312	199.800000
831.078979	192.900000
831.113525	182.700000
831.148193	192.000000
831.182861	190.400000
831.217407	194.900000
831.252075	207.600000
831.286621	188.800000
831.321289	187.100000
831.355896	191.900000
831.390564	199.900000
831.425110	192.700000
831.459778	198.400000
831.494324	205.600000
831.528931	195.500000
831.563599	196.200000
831.598145	185.800000
831.632751	190.900000
831.667419	190.400000
831.701965	193.300000
831.736572	195.700000
831.771179	185.600000
831.805786	188.600000
831.840393	197.900000
831.874939	183.100000
831.909546	195.400000
831.944153	182.900000
831.978760	190.600000
832.013306	186.700000
832.047913	199.000000
832.082458	199.600000
832.117065	187.200000
832.151672	199.100000
832.186218	191.400000
832.220825	193.900000
832.255432	182.900000
832.289978	187.700000
832.324585	193.300000
832.359192	192.900000
832.393677	189.000000
832.428284	193.000000
832.462830	189.200000
832.497437	190.000000
832.531982	195.500000
832.566589	189.600000
832.601135	191.700000
832.635681	182.700000
832.670227	190.300000
832.704773	198.200000
832.739380	193.500000
832.773926	191.900000
832.808472	186.900000
832.843079	191.700000
832.877563	194.800000
832.912170	189.000000
832.946716	185.100000
832.981201	198.100000
833.015808	194.500000
833.050293	190.400000
833.084839	187.300000
833.119446	190.300000
833.153992	194.600000
833.188477	190.800000
833.223022	188.600000
833.257568	193.600000
833.292114	197.600000
833.326660	203.400000
833.361145	189.400000
833.395691	184.500000
833.430237	190.700000
833.464783	195.600000
833.499329	187.700000
833.533875	185.600000
833.568359	194.400000
833.602905	197.300000
833.637390	196.100000
833.671875	188.400000
833.706421	189.400000
833.740906	187.900000
833.775452	181.300000
833.809998	187.100000
833.844482	197.900000
833.879028	190.700000
833.913513	187.600000
833.947998	193.900000
833.982544	186.900000
834.017090	188.200000
834.051514	179.200000
834.086060	192.100000
834.120544	189.700000
834.155029	192.800000
834.189575	189.000000
834.223999	194.900000
834.258545	192.400000
834.293030	192.100000
834.327515	191.200000
834.362000	188.300000
834.396545	194.900000
834.430969	189.900000
834.465454	194.900000
834.500000	184.600000
834.534424	194.800000
834.568970	182.100000
834.603455	182.900000
834.637878	187.900000
834.672363	192.700000
834.706909	193.500000
834.741333	192.000000
834.775818	183.200000
834.810242	186.500000
834.844727	193.100000
834.879211	190.300000
834.913635	191.800000
834.948181	193.500000
834.982666	192.100000
835.017090	190.200000
835.051575	193.700000
835.086060	188.200000
835.120483	195.000000
835.154907	196.700000
835.189331	190.900000
835.223816	193.800000
835.258301	185.700000
835.292786	185.900000
835.327209	196.700000
835.361694	187.100000
835.396057	186.900000
835.430542	193.000000
835.465027	191.900000
835.499390	184.800000
835.533875	210.500000
835.568359	189.100000
835.602722	182.500000
835.637207	191.800000
835.671692	185.000000
835.706055	206.400000
835.740540	192.400000
835.774902	193.100000
835.809387	191.500000
835.843811	183.900000
835.878235	199.600000
835.912659	185.100000
835.947083	188.200000
835.981506	190.900000
836.015930	184.300000
836.050354	196.000000
836.084778	199.900000
836.119202	196.600000
836.153625	203.900000
836.187988	187.100000
836.222473	187.300000
836.256897	192.100000
836.291260	190.200000
836.325684	192.400000
836.360046	189.400000
836.394470	190.800000
836.428894	198.900000
836.463318	186.900000
836.497681	195.900000
836.532104	198.600000
836.566467	192.900000
836.600891	188.800000
836.635315	197.400000
836.669678	194.100000
836.704102	195.900000
836.738525	191.200000
836.772888	182.900000
836.807251	189.300000
836.841675	194.200000
836.876038	185.500000
836.910461	186.400000
836.944763	195.900000
836.979187	187.200000
837.013611	196.900000
837.047974	183.100000
837.082336	202.000000
837.116699	195.200000
837.151062	190.100000
837.185486	184.700000
837.219849	189.000000
837.254211	194.500000
837.288574	191.000000
837.322937	186.700000
837.357300	179.000000
837.391663	204.200000
837.426086	197.600000
837.460388	192.100000
837.494751	196.500000
837.529114	190.200000
837.563477	195.800000
837.597839	192.500000
837.632141	191.700000
837.666565	188.000000
837.700928	193.900000
837.735229	196.400000
837.769592	194.500000
837.803955	198.900000
837.838257	191.500000
837.872620	188.000000
837.906982	200.000000
837.941284	191.500000
837.975647	192.400000
838.010010	197.900000
838.044312	189.600000
838.078674	188.600000
838.112976	192.000000
838.147339	195.400000
838.181702	190.900000
838.216003	201.700000
838.250366	194.600000
838.284668	194.400000
838.318970	184.300000
838.353333	190.700000
838.387634	189.800000
838.421936	191.600000
838.456299	193.500000
838.490601	198.000000
838.524902	193.700000
838.559265	196.600000
838.593567	196.500000
838.627869	185.500000
838.662170	194.500000
838.696472	183.800000
838.730774	187.500000
838.765137	196.400000
838.799377	177.200000
838.833740	192.000000
838.868042	197.400000
838.902283	182.500000
838.936646	196.800000
838.970947	192.900000
839.005188	195.500000
839.039551	183.800000
839.073792	199.500000
839.108093	189.500000
839.142395	200.500000
839.176697	185.100000
839.210937	191.400000
839.245300	203.700000
839.279541	185.800000
839.313843	190.100000
839.348145	195.000000
839.382385	196.800000
839.416687	195.500000
839.450989	195.000000
839.485229	191.200000
839.519531	187.000000
839.553833	196.800000
839.588013	191.500000
839.622314	193.300000
839.656555	194.500000
839.690857	191.000000
839.725159	186.300000
839.759460	191.600000
839.793640	188.900000
839.827942	191.100000
839.862183	187.600000
839.896423	192.000000
839.930725	201.400000
839.964966	198.900000
839.999207	198.100000
840.033508	199.000000
840.067688	188.800000
840.101990	200.700000
840.136230	192.000000
840.170471	199.100000
840.204712	187.600000
840.238953	187.200000
840.273193	192.600000
840.307434	195.100000
840.341736	187.000000
840.375916	183.800000
840.410217	188.600000
840.444397	194.700000
840.478638	195.100000
840.512878	198.400000
840.547119	192.100000
840.581360	194.700000
840.615601	202.000000
840.649780	200.800000
840.684021	191.400000
840.718262	200.700000
840.752441	198.300000
840.786682	194.000000
840.820862	194.700000
840.855103	199.400000
840.889343	192.600000
840.923584	197.400000
840.957764	193.800000
840.992004	194.300000
841.026184	206.200000
841.060425	190.500000
841.094666	188.100000
841.128845	197.300000
841.163025	193.400000
841.197266	196.000000
841.231445	194.400000
841.265686	192.400000
841.299866	187.200000
841.334045	200.200000
841.368286	192.300000
841.402405	201.800000
841.436646	196.400000
841.470825	189.600000
841.505005	192.700000
841.539185	187.700000
841.573425	188.500000
841.607544	192.600000
841.641785	192.100000
841.675964	186.900000
841.710144	192.700000
841.744324	188.800000
841.778503	191.500000
841.812683	187.300000
841.846863	200.200000
841.881042	199.500000
841.915222	189.200000
841.949402	206.700000
841.983521	182.900000
842.017700	191.100000
842.051880	192.600000
842.086060	192.800000
842.120239	192.600000
842.154419	190.200000
842.188538	192.400000
842.222717	188.400000
842.256897	200.500000
842.291016	191.000000
842.325195	194.000000
842.359375	203.200000
842.393494	199.300000
842.427673	191.700000
842.461853	196.100000
842.495911	200.400000
842.530090	193.600000
842.564209	190.800000
842.598389	195.000000
842.632568	192.400000
842.666626	196.900000
842.700806	188.400000
842.734985	191.700000
842.769043	196.800000
842.803223	192.100000
842.837402	191.200000
842.871460	190.500000
842.905640	201.500000
842.939697	188.700000
842.973877	196.400000
843.007996	199.000000
843.042175	201.500000
843.076233	189.700000
843.110413	193.400000
843.144470	202.200000
843.178589	197.000000
843.212769	190.200000
843.246826	196.200000
843.280945	190.400000
843.315125	190.700000
843.349182	189.100000
843.383301	199.100000
843.417419	205.900000
843.451538	192.000000
843.485657	191.900000
843.519714	190.600000
843.553833	193.700000
843.587952	190.400000
843.622070	189.600000
843.656128	195.300000
843.690247	189.800000
843.724304	190.000000
843.758423	193.600000
843.792542	191.400000
843.826599	191.000000
843.860718	190.300000
843.894836	185.500000
843.928894	192.800000
843.963013	194.800000
843.997070	187.600000
844.031128	184.600000
844.065247	198.200000
844.099304	198.100000
844.133362	191.900000
844.167480	195.200000
844.201599	199.500000
844.235596	194.400000
844.269714	195.300000
844.303711	196.800000
844.337830	184.600000
844.371948	195.700000
844.405945	193.400000
844.440063	188.300000
844.474121	208.100000
844.508118	192.100000
844.542236	191.800000
844.576294	191.600000
844.610352	188.000000
844.644409	191.700000
844.678406	186.200000
844.712524	197.700000
844.746582	200.700000
844.780640	193.700000
844.814636	192.700000
844.848755	203.700000
844.882751	191.300000
844.916809	199.000000
844.950867	195.600000
844.984863	200.500000
845.018921	193.000000
845.052979	189.900000
845.086975	194.300000
845.121033	186.200000
845.155090	188.100000
845.189087	200.700000
845.223145	188.900000
845.257141	192.900000
845.291199	195.100000
845.325256	199.500000
845.359253	192.600000
845.393250	202.500000
845.427307	192.300000
845.461304	194.300000
845.495361	192.900000
845.529358	203.000000
845.563354	189.500000
845.597412	189.000000
845.631409	200.600000
845.665405	199.600000
845.699463	197.200000
845.733459	192.000000
845.767456	199.200000
845.801453	191.400000
845.835449	199.500000
845.869446	196.800000
845.903503	197.500000
845.937439	189.400000
845.971497	199.400000
846.005493	186.900000
846.039429	197.900000
846.073486	202.700000
846.107483	191.300000
846.141418	194.300000
846.175476	193.200000
846.209473	200.400000
846.243408	190.800000
846.277405	193.500000
846.311401	189.100000
846.345337	193.300000
846.379395	199.800000
846.413330	191.000000
846.447327	200.800000
846.481323	188.200000
846.515259	189.900000
846.549255	193.200000
846.583252	195.600000
846.617187	187.800000
846.651184	195.300000
846.685120	190.700000
846.719055	200.600000
846.753052	198.000000
846.786987	198.100000
846.820984	186.600000
846.854980	199.700000
846.888916	187.800000
846.922852	194.200000
846.956848	201.800000
846.990723	189.000000
847.024719	192.800000
847.058716	191.800000
847.092590	199.900000
847.126587	194.500000
847.160522	191.100000
847.194458	197.900000
847.228455	189.800000
847.262390	188.100000
847.296265	191.300000
847.330261	198.900000
847.364136	191.900000
847.398132	189.500000
847.432068	192.300000
847.466003	189.600000
847.499939	192.700000
847.533875	196.200000
847.567749	191.800000
847.601746	191.100000
847.635681	198.500000
847.669556	185.300000
847.703491	198.500000
847.737427	209.100000
847.771301	188.000000
847.805237	196.200000
847.839233	194.700000
847.873108	194.500000
847.907043	193.200000
847.940918	200.500000
847.974854	195.200000
848.008789	197.900000
848.042664	193.100000
848.076538	196.900000
848.110474	193.600000
848.144348	195.200000
848.178284	186.500000
848.212219	193.400000
848.246094	190.200000
848.279968	193.600000
848.313904	196.400000
848.347778	193.100000
848.381653	191.800000
848.415588	190.500000
848.449463	190.800000
848.483337	195.800000
848.517212	198.200000
848.551086	193.200000
848.585022	188.300000
848.618835	201.000000
848.652771	189.800000
848.686646	187.900000
848.720520	201.300000
848.754395	191.900000
848.788330	197.800000
848.822144	197.400000
848.856018	191.600000
848.889954	201.600000
848.923767	189.100000
848.957642	189.400000
848.991577	197.300000
849.025391	190.200000
849.059265	192.200000
849.093079	190.000000
849.126953	187.900000
849.160828	198.300000
849.194641	194.600000
849.228577	191.600000
849.262451	192.900000
849.296265	191.100000
849.330139	187.700000
849.364014	193.900000
849.397827	196.800000
849.431702	194.100000
849.465515	198.700000
849.499329	184.600000
849.533203	189.100000
849.567078	183.500000
849.600891	198.200000
849.634766	192.400000
849.668518	197.400000
849.702393	192.500000
849.736267	186.800000
849.770020	203.900000
849.803894	196.300000
849.837769	193.300000
849.871521	193.500000
849.905396	198.300000
849.939270	188.500000
849.973022	191.300000
850.006897	196.100000
850.040710	195.500000
850.074524	197.600000
850.108337	191.000000
850.142151	197.500000
850.175964	199.600000
850.209778	192.400000
850.243530	182.200000
850.277405	198.200000
850.311218	193.700000
850.344971	189.800000
850.378845	201.400000
850.412659	190.700000
850.446411	193.200000
850.480225	191.800000
850.514038	198.800000
850.547791	194.700000
850.581665	193.000000
850.615417	190.400000
850.649231	193.600000
850.683044	191.400000
850.716858	193.200000
850.750610	193.500000
850.784424	198.200000
850.818176	191.900000
850.851929	191.400000
850.885742	191.200000
850.919495	193.200000
850.953308	199.300000
850.987122	200.700000
851.020874	188.000000
851.054626	186.100000
851.088440	197.100000
851.122192	198.700000
851.156006	193.900000
851.189697	193.100000
851.223511	187.000000
851.257263	197.300000
851.291077	195.700000
851.324829	192.200000
851.358582	191.100000
851.392334	191.000000
851.426086	192.200000
851.459900	201.500000
851.493591	193.300000
851.527344	195.300000
851.561157	193.300000
851.594849	195.700000
851.628662	194.000000
851.662415	201.200000
851.696106	195.100000
851.729858	197.500000
851.763611	187.800000
851.797363	194.900000
851.831116	189.200000
851.864868	196.300000
851.898560	197.600000
851.932312	190.700000
851.966064	195.200000
851.999817	193.900000
852.033569	192.500000
852.067261	196.000000
852.101013	189.300000
852.134766	192.500000
852.168457	182.900000
852.202209	197.300000
852.235901	189.300000
852.269592	195.800000
852.303345	203.800000
852.337036	196.900000
852.370789	194.200000
852.404541	197.900000
852.438171	188.400000
852.471924	192.700000
852.505676	188.700000
852.539307	196.300000
852.573059	189.900000
852.606812	191.000000
852.640442	192.900000
852.674194	199.800000
852.707886	205.800000
852.741577	200.700000
852.775269	188.400000
852.809021	194.700000
852.842651	195.900000
852.876404	199.600000
852.910034	195.200000
852.943787	198.900000
852.977478	197.100000
853.011108	190.400000
853.044861	192.200000
853.078552	201.100000
853.112183	196.900000
853.145874	194.600000
853.179626	184.100000
853.213257	194.800000
853.246948	189.700000
853.280640	201.800000
853.314270	192.300000
853.347961	200.100000
853.381653	195.600000
853.415283	196.000000
853.448975	189.800000
853.482605	194.500000
853.516296	192.700000
853.549988	188.000000
853.583618	192.600000
853.617310	195.300000
853.651001	193.500000
853.684631	188.400000
853.718323	190.700000
853.751953	200.900000
853.785583	184.700000
853.819275	197.300000
853.852966	194.100000
853.886536	184.200000
853.920227	187.500000
853.953918	199.700000
853.987488	190.800000
854.021179	197.500000
854.054749	201.700000
854.088440	195.300000
854.122131	188.500000
854.155701	197.400000
854.189331	190.200000
854.223022	197.400000
854.256592	195.600000
854.290283	191.200000
854.323914	197.900000
854.357483	195.200000
854.391174	196.300000
854.424744	204.100000
854.458374	195.500000
854.492065	204.100000
854.525696	192.100000
854.559265	199.800000
854.592896	204.700000
854.626465	193.600000
854.660095	192.900000
854.693787	193.700000
854.727356	191.900000
854.760986	198.300000
854.794617	194.100000
854.828186	191.200000
854.861816	196.300000
854.895447	196.000000
854.929016	194.500000
854.962585	196.000000
854.996155	200.500000
855.029785	195.600000
855.063416	196.400000
855.097046	198.100000
855.130615	187.700000
855.164185	199.200000
855.197754	192.400000
855.231384	197.300000
855.264954	191.800000
855.298523	197.500000
855.332153	194.700000
855.365723	201.800000
855.399292	189.100000
855.432922	192.300000
855.466492	195.100000
855.500061	188.500000
855.533630	191.600000
855.567200	196.600000
855.600769	197.900000
855.634338	198.800000
855.667969	195.400000
855.701477	189.100000
855.735046	190.800000
855.768616	185.600000
855.802185	195.200000
855.835754	208.100000
855.869324	186.300000
855.902893	193.000000
855.936401	200.700000
855.969971	194.200000
856.003540	187.600000
856.037109	196.300000
856.070618	192.300000
856.104187	188.000000
856.137695	192.200000
856.171265	183.800000
856.204834	194.900000
856.238403	199.100000
856.271912	190.800000
856.305481	195.400000
856.338989	186.500000
856.372559	196.100000
856.406128	194.800000
856.439636	197.500000
856.473145	190.000000
856.506653	200.300000
856.540222	193.800000
856.573792	200.700000
856.607300	196.000000
856.640808	188.100000
856.674377	193.000000
856.707825	221.600000
856.741394	197.500000
856.774902	188.500000
856.808472	184.700000
856.841980	196.700000
856.875488	202.400000
856.908936	186.400000
856.942505	190.300000
856.976013	193.100000
857.009521	188.500000
857.043030	193.800000
857.076477	191.900000
857.110046	198.800000
857.143555	195.200000
857.177063	199.200000
857.210571	190.300000
857.244080	187.700000
857.277527	196.700000
857.311035	191.900000
857.344543	197.800000
857.378052	192.200000
857.411499	198.300000
857.445068	204.100000
857.478516	193.400000
857.512024	187.800000
857.545532	192.400000
857.578979	197.100000
857.612427	194.700000
857.645874	191.800000
857.679382	195.500000
857.712891	199.200000
857.746399	193.700000
857.779846	199.700000
857.813354	199.300000
857.846741	195.000000
857.880249	190.600000
857.913757	194.400000
857.947266	194.800000
857.980652	196.700000
858.014160	190.200000
858.047546	191.500000
858.081055	191.600000
858.114563	201.100000
858.147949	187.200000
858.181458	196.200000
858.214844	193.000000
858.248352	184.200000
858.281799	198.600000
858.315308	205.200000
858.348694	197.100000
858.382141	203.000000
858.415588	195.800000
858.449036	199.200000
858.482483	197.600000
858.515930	189.700000
858.549377	193.200000
858.582825	201.400000
858.616211	196.300000
858.649658	195.000000
858.683105	189.900000
858.716553	189.800000
858.750000	189.300000
858.783386	190.900000
858.816833	186.700000
858.850281	194.100000
858.883728	197.800000
858.917114	192.100000
858.950562	204.500000
858.983948	203.300000
859.017395	198.400000
859.050781	192.800000
859.084167	190.800000
859.117615	187.600000
859.151062	198.400000
859.184448	189.900000
859.217834	192.900000
859.251282	192.600000
859.284668	189.800000
859.318054	184.200000
859.351440	191.200000
859.384888	201.800000
859.418274	186.300000
859.451721	183.900000
859.485046	194.700000
859.518494	195.400000
859.551819	190.300000
859.585266	195.500000
859.618652	196.500000
859.652039	187.000000
859.685425	187.500000
859.718811	186.700000
859.752197	181.500000
859.785583	200.300000
859.819031	199.900000
859.852356	196.400000
859.885742	189.600000
859.919067	192.600000
859.952454	190.800000
859.985901	198.500000
860.019287	190.100000
860.052612	0.000000
860.085999	0.000000
860.119324	0.000000
860.152710	0.000000
860.186096	0.000000
860.219421	0.000000
860.252808	0.000000
860.286133	0.000000
860.319519	0.000000
860.352905	0.000000
860.386292	0.000000
860.419617	0.000000
860.452942	0.000000
860.486267	0.000000
860.519653	0.000000
860.553040	0.000000
860.586365	0.000000
860.619690	0.000000
860.653076	0.000000
860.686340	0.000000
860.719727	0.000000
860.753113	0.000000
860.786377	0.000000
860.819763	0.000000
860.853027	0.000000
860.886414	0.000000
860.919739	0.000000
860.953125	0.000000
860.986389	0.000000
861.019714	0.000000
861.053040	0.000000
861.086365	0.000000
861.119690	0.000000
861.153076	0.000000
861.186340	0.000000
861.219666	0.000000
861.252930	0.000000
861.286316	0.000000
861.319641	0.000000
861.352905	0.000000
861.386230	0.000000
861.419495	0.000000
861.452820	0.000000
861.486145	0.000000
861.519470	0.000000
861.552734	0.000000
861.586060	0.000000
861.619324	0.000000
861.652649	0.000000
861.685974	0.000000
861.719238	0.000000
861.752563	0.000000
861.785828	0.000000
861.819092	0.000000
861.852417	0.000000
861.885742	0.000000
861.918945	0.000000
861.952271	0.000000
861.985535	0.000000
862.018799	0.000000
862.052124	0.000000
862.085449	0.000000
862.118652	0.000000
862.151978	0.000000
862.185181	0.000000
862.218506	0.000000
862.251770	0.000000
862.285034	0.000000
862.318298	0.000000
862.351562	0.000000
862.384827	0.000000
862.418091	0.000000
862.451355	0.000000
862.484619	0.000000
862.517883	0.000000
862.551086	0.000000
862.584351	0.000000
862.617676	0.000000
862.650940	0.000000
862.684143	0.000000
862.717407	0.000000
862.750610	0.000000
862.783875	0.000000
862.817139	0.000000
862.850342	0.000000
862.883606	0.000000
862.916870	0.000000
862.950073	0.000000
862.983337	0.000000
863.016602	0.000000
863.049805	0.000000
863.083069	0.000000
863.116211	0.000000
863.149475	0.000000
863.182739	0.000000
863.216003	0.000000
863.249146	0.000000
863.282410	0.000000
863.315613	0.000000
863.348816	0.000000
863.382080	0.000000
863.415222	0.000000
863.448486	0.000000
863.481689	0.000000
863.514893	0.000000
863.548157	0.000000
863.581360	0.000000
863.614502	0.000000
863.647766	0.000000
863.680908	0.000000
863.714172	0.000000
863.747375	0.000000
863.780579	0.000000
863.813721	0.000000
863.846985	0.000000
863.880127	0.000000
863.913330	0.000000
863.946533	0.000000
863.979675	0.000000
864.012939	0.000000
