Model Number: SPM-001-M   
Serial Number: 10090201
Firmware Version: 004.17.6
Exposure Time: 500000.000000us
Data Taken on: 10-03-2021 11:57:45.968
Wavelength	Amplitude
733.770752	0.000000
733.808716	0.000000
733.846619	0.000000
733.884583	0.000000
733.922546	0.000000
733.960449	0.000000
733.998413	0.000000
734.036377	0.000000
734.074219	0.000000
734.112183	0.000000
734.150085	0.000000
734.188049	0.000000
734.226013	0.000000
734.263916	0.000000
734.301819	0.000000
734.339783	0.000000
734.377686	0.000000
734.415588	0.000000
734.453552	0.000000
734.491455	0.000000
734.529419	0.000000
734.567322	0.000000
734.605225	0.000000
734.643127	0.000000
734.681091	0.000000
734.718994	0.000000
734.756897	0.000000
734.794800	0.000000
734.832703	0.000000
734.870667	0.000000
734.908508	0.000000
734.946472	0.000000
734.984375	0.000000
735.022278	0.000000
735.060181	0.000000
735.098083	0.000000
735.135986	0.000000
735.173889	0.000000
735.211792	0.000000
735.249695	0.000000
735.287598	0.000000
735.325439	0.000000
735.363403	0.000000
735.401306	0.000000
735.439148	0.000000
735.477051	0.000000
735.515015	0.000000
735.552856	0.000000
735.590759	0.000000
735.628662	0.000000
735.666504	0.000000
735.704407	0.000000
735.742310	0.000000
735.780212	0.000000
735.818115	0.000000
735.856018	0.000000
735.893860	0.000000
735.931763	0.000000
735.969604	0.000000
736.007507	0.000000
736.045410	0.000000
736.083252	0.000000
736.121094	0.000000
736.158997	0.000000
736.196838	0.000000
736.234741	0.000000
736.272644	0.000000
736.310486	0.000000
736.348389	0.000000
736.386230	0.000000
736.424072	0.000000
736.461975	0.000000
736.499878	0.000000
736.537720	0.000000
736.575562	0.000000
736.613403	0.000000
736.651306	0.000000
736.689148	0.000000
736.726990	0.000000
736.764893	0.000000
736.802734	0.000000
736.840576	0.000000
736.878418	0.000000
736.916321	0.000000
736.954102	0.000000
736.992004	0.000000
737.029846	0.000000
737.067688	0.000000
737.105530	0.000000
737.143372	0.000000
737.181213	0.000000
737.219116	0.000000
737.256897	0.000000
737.294739	0.000000
737.332642	0.000000
737.370422	0.000000
737.408325	0.000000
737.446167	0.000000
737.483948	0.000000
737.521790	0.000000
737.559692	0.000000
737.597473	0.000000
737.635315	0.000000
737.673157	0.000000
737.710999	0.000000
737.748840	0.000000
737.786621	0.000000
737.824463	0.000000
737.862305	0.000000
737.900085	0.000000
737.937927	0.000000
737.975769	0.000000
738.013550	0.000000
738.051392	0.000000
738.089233	0.000000
738.127014	0.000000
738.164856	0.000000
738.202698	0.000000
738.240479	0.000000
738.278320	0.000000
738.316162	0.000000
738.353943	0.000000
738.391785	0.000000
738.429565	0.000000
738.467407	0.000000
738.505188	0.000000
738.542969	0.000000
738.580811	0.000000
738.618652	0.000000
738.656372	0.000000
738.694214	0.000000
738.732056	0.000000
738.769836	0.000000
738.807617	0.000000
738.845459	0.000000
738.883240	0.000000
738.921021	0.000000
738.958862	0.000000
738.996582	0.000000
739.034424	0.000000
739.072205	0.000000
739.109985	0.000000
739.147827	0.000000
739.185547	0.000000
739.223389	0.000000
739.261169	0.000000
739.298889	0.000000
739.336731	0.000000
739.374512	0.000000
739.412292	0.000000
739.450073	0.000000
739.487854	0.000000
739.525635	0.000000
739.563416	0.000000
739.601135	0.000000
739.638977	0.000000
739.676758	0.000000
739.714478	0.000000
739.752258	0.000000
739.790100	0.000000
739.827820	0.000000
739.865601	0.000000
739.903381	0.000000
739.941101	0.000000
739.978882	197.200000
740.016724	192.500000
740.054443	198.000000
740.092224	190.400000
740.130005	188.800000
740.167725	191.300000
740.205505	188.700000
740.243225	200.700000
740.281006	195.200000
740.318787	186.700000
740.356506	198.700000
740.394287	199.100000
740.432068	188.500000
740.469727	187.800000
740.507507	198.100000
740.545288	193.200000
740.583008	196.500000
740.620789	194.400000
740.658569	185.100000
740.696228	194.000000
740.734009	200.200000
740.771790	182.000000
740.809509	196.900000
740.847229	190.600000
740.884949	191.800000
740.922729	187.000000
740.960449	190.500000
740.998169	188.500000
741.035950	188.000000
741.073669	195.700000
741.111389	194.600000
741.149170	203.100000
741.186890	203.300000
741.224609	199.300000
741.262329	195.300000
741.300110	204.800000
741.337769	188.400000
741.375549	187.700000
741.413208	194.900000
741.450989	189.300000
741.488708	191.600000
741.526367	191.300000
741.564148	197.900000
741.601868	199.200000
741.639526	193.300000
741.677307	194.600000
741.715027	196.000000
741.752686	189.100000
741.790466	202.200000
741.828186	198.000000
741.865845	188.700000
741.903564	184.700000
741.941345	193.000000
741.979004	189.400000
742.016724	195.600000
742.054382	193.900000
742.092102	199.800000
742.129822	184.900000
742.167480	190.800000
742.205200	192.200000
742.242920	194.600000
742.280640	197.700000
742.318359	189.600000
742.356079	190.800000
742.393738	197.800000
742.431396	193.400000
742.469116	197.300000
742.506775	182.700000
742.544495	197.500000
742.582214	198.500000
742.619873	194.500000
742.657593	199.800000
742.695251	198.900000
742.732971	192.600000
742.770630	195.000000
742.808289	191.900000
742.846008	194.500000
742.883728	195.800000
742.921326	194.800000
742.959045	191.300000
742.996765	193.100000
743.034424	193.200000
743.072083	191.200000
743.109802	193.400000
743.147400	187.500000
743.185120	195.500000
743.222839	191.800000
743.260437	199.500000
743.298157	196.600000
743.335754	185.100000
743.373474	191.400000
743.411133	185.300000
743.448792	193.000000
743.486450	193.200000
743.524170	184.900000
743.561768	193.500000
743.599487	200.300000
743.637146	204.000000
743.674744	191.600000
743.712463	191.200000
743.750122	193.900000
743.787720	194.800000
743.825439	190.400000
743.863037	192.000000
743.900696	192.900000
743.938416	218.300000
743.976013	192.000000
744.013672	202.700000
744.051331	198.100000
744.088928	204.100000
744.126587	201.400000
744.164307	195.400000
744.201904	191.500000
744.239563	198.400000
744.277222	194.900000
744.314819	194.600000
744.352478	200.100000
744.390137	195.600000
744.427734	196.600000
744.465393	191.800000
744.502991	188.700000
744.540649	197.600000
744.578308	195.200000
744.615906	189.000000
744.653564	183.000000
744.691223	196.400000
744.728821	185.100000
744.766418	193.700000
744.804077	195.600000
744.841675	190.700000
744.879333	185.500000
744.916992	192.800000
744.954529	190.000000
744.992187	199.300000
745.029785	190.600000
745.067444	191.100000
745.105042	194.900000
745.142639	196.700000
745.180298	201.900000
745.217896	192.400000
745.255493	193.100000
745.293152	198.100000
745.330750	198.100000
745.368347	202.900000
745.405945	196.800000
745.443604	194.000000
745.481140	197.000000
745.518799	191.200000
745.556396	198.100000
745.593994	198.900000
745.631592	192.700000
745.669189	188.800000
745.706787	196.300000
745.744385	189.200000
745.781982	196.500000
745.819580	188.900000
745.857178	191.600000
745.894775	193.600000
745.932373	195.600000
745.969971	194.600000
746.007568	186.400000
746.045166	203.700000
746.082764	200.200000
746.120300	196.800000
746.157898	197.900000
746.195557	193.000000
746.233093	188.600000
746.270691	197.200000
746.308228	197.000000
746.345825	199.500000
746.383423	198.000000
746.420959	188.000000
746.458557	191.400000
746.496155	191.200000
746.533691	193.100000
746.571289	188.800000
746.608887	194.100000
746.646423	194.600000
746.684021	196.200000
746.721619	190.700000
746.759155	196.100000
746.796753	187.000000
746.834351	187.500000
746.871826	190.500000
746.909424	200.300000
746.946960	195.800000
746.984558	193.500000
747.022156	191.400000
747.059631	200.200000
747.097229	196.800000
747.134827	192.400000
747.172363	201.000000
747.209900	195.200000
747.247498	190.400000
747.285034	201.700000
747.322571	201.600000
747.360168	191.500000
747.397644	187.800000
747.435242	197.800000
747.472778	200.600000
747.510315	190.100000
747.547913	192.400000
747.585388	201.400000
747.622925	194.400000
747.660522	184.400000
747.697998	191.800000
747.735596	194.000000
747.773132	190.800000
747.810669	194.400000
747.848206	199.600000
747.885742	187.900000
747.923279	190.100000
747.960815	195.800000
747.998352	196.300000
748.035889	198.900000
748.073425	201.100000
748.110901	189.900000
748.148437	191.300000
748.185974	194.000000
748.223511	205.600000
748.261047	196.700000
748.298584	197.200000
748.336060	193.900000
748.373596	196.500000
748.411133	213.000000
748.448608	190.000000
748.486145	198.100000
748.523682	202.400000
748.561218	199.600000
748.598755	196.000000
748.636292	198.100000
748.673706	192.700000
748.711243	200.600000
748.748718	195.100000
748.786255	193.900000
748.823792	193.700000
748.861267	189.400000
748.898804	197.300000
748.936340	195.500000
748.973816	191.700000
749.011292	200.000000
749.048828	196.100000
749.086304	196.500000
749.123840	205.700000
749.161316	188.800000
749.198792	205.200000
749.236328	200.800000
749.273743	193.900000
749.311279	193.600000
749.348816	195.300000
749.386230	196.100000
749.423767	182.000000
749.461304	197.200000
749.498718	196.100000
749.536255	202.900000
749.573730	206.600000
749.611206	200.000000
749.648682	192.900000
749.686218	194.800000
749.723633	198.900000
749.761169	194.200000
749.798645	189.800000
749.836060	195.100000
749.873596	191.800000
749.911011	195.900000
749.948547	201.000000
749.986023	196.200000
750.023437	193.000000
750.060913	188.200000
750.098450	188.400000
750.135864	193.400000
750.173340	194.100000
750.210815	200.000000
750.248291	188.800000
750.285767	194.500000
750.323242	201.600000
750.360657	196.900000
750.398132	188.900000
750.435608	198.300000
750.473022	189.800000
750.510498	188.900000
750.547974	189.500000
750.585449	192.100000
750.622925	184.300000
750.660339	203.800000
750.697815	194.000000
750.735291	193.500000
750.772644	195.000000
750.810120	194.700000
750.847595	196.500000
750.885010	189.300000
750.922485	203.500000
750.959961	193.000000
750.997375	202.000000
751.034851	198.600000
751.072266	198.600000
751.109680	186.400000
751.147156	200.000000
751.184570	197.000000
751.221985	196.200000
751.259460	185.100000
751.296875	194.800000
751.334290	194.800000
751.371765	200.100000
751.409180	196.800000
751.446594	200.800000
751.484070	196.200000
751.521423	197.900000
751.558899	195.700000
751.596375	203.100000
751.633728	201.600000
751.671204	209.200000
751.708618	190.000000
751.746033	197.100000
751.783447	187.600000
751.820801	192.000000
751.858276	197.000000
751.895691	194.800000
751.933105	192.000000
751.970520	190.300000
752.007935	191.600000
752.045349	197.900000
752.082764	193.900000
752.120178	192.400000
752.157532	190.800000
752.195007	192.000000
752.232422	197.500000
752.269775	200.200000
752.307190	198.000000
752.344543	189.800000
752.382019	193.400000
752.419434	192.200000
752.456787	196.100000
752.494202	197.600000
752.531616	196.200000
752.568970	198.600000
752.606384	194.900000
752.643799	196.100000
752.681152	203.900000
752.718567	197.100000
752.755981	186.800000
752.793335	196.300000
752.830750	186.200000
752.868164	200.000000
752.905518	190.900000
752.942932	198.000000
752.980225	188.500000
753.017639	199.200000
753.055054	194.000000
753.092407	197.600000
753.129822	200.100000
753.167175	204.300000
753.204529	194.700000
753.241943	189.800000
753.279358	189.400000
753.316650	198.300000
753.354065	198.700000
753.391479	199.700000
753.428772	204.500000
753.466187	199.500000
753.503479	190.300000
753.540894	192.900000
753.578308	190.000000
753.615601	189.100000
753.653015	195.300000
753.690369	192.200000
753.727722	190.500000
753.765076	188.100000
753.802490	188.800000
753.839783	186.500000
753.877136	192.400000
753.914551	210.300000
753.951843	188.500000
753.989258	197.900000
754.026611	196.600000
754.063904	196.300000
754.101257	190.500000
754.138611	187.200000
754.175964	196.200000
754.213318	206.900000
754.250610	187.400000
754.288025	192.000000
754.325378	188.200000
754.362671	200.100000
754.400024	192.200000
754.437378	204.800000
754.474670	204.400000
754.512085	192.400000
754.549438	194.600000
754.586731	193.000000
754.624084	192.100000
754.661438	189.600000
754.698730	202.200000
754.736084	191.400000
754.773376	191.900000
754.810730	199.400000
754.848083	191.900000
754.885315	198.700000
754.922668	186.900000
754.960022	189.500000
754.997314	199.900000
755.034668	196.800000
755.072021	195.900000
755.109253	194.900000
755.146606	203.300000
755.183960	195.400000
755.221252	204.400000
755.258545	201.100000
755.295898	203.200000
755.333191	203.900000
755.370544	199.900000
755.407776	197.300000
755.445129	196.200000
755.482422	201.200000
755.519714	193.400000
755.557068	191.400000
755.594360	187.300000
755.631653	202.900000
755.668945	205.700000
755.706299	199.900000
755.743530	209.800000
755.780884	206.000000
755.818176	203.900000
755.855408	202.400000
755.892761	201.000000
755.930054	197.900000
755.967346	201.400000
756.004639	201.800000
756.041870	199.600000
756.079224	203.700000
756.116516	195.200000
756.153748	203.500000
756.191040	207.800000
756.228394	202.000000
756.265625	196.000000
756.302917	200.800000
756.340210	196.900000
756.377441	204.800000
756.414795	207.700000
756.452087	201.400000
756.489319	195.100000
756.526611	202.700000
756.563843	202.800000
756.601135	211.600000
756.638428	210.900000
756.675659	200.200000
756.712952	207.300000
756.750244	203.700000
756.787476	202.900000
756.824768	208.600000
756.862061	200.900000
756.899292	248.300000
756.936584	206.000000
756.973816	213.700000
757.011047	216.400000
757.048340	203.800000
757.085632	204.100000
757.122864	219.200000
757.160156	203.300000
757.197327	206.200000
757.234619	207.700000
757.271912	203.500000
757.309082	209.200000
757.346375	201.400000
757.383667	211.600000
757.420837	205.500000
757.458130	206.900000
757.495422	203.000000
757.532593	207.700000
757.569885	198.000000
757.607117	201.400000
757.644348	207.700000
757.681580	219.000000
757.718811	194.700000
757.756042	206.900000
757.793335	204.800000
757.830505	213.300000
757.867798	204.800000
757.905029	204.200000
757.942200	208.100000
757.979492	203.200000
758.016724	207.200000
758.053894	204.700000
758.091187	226.200000
758.128418	207.500000
758.165588	208.300000
758.202820	220.700000
758.240112	211.100000
758.277283	220.100000
758.314514	211.900000
758.351685	207.500000
758.388916	220.100000
758.426147	216.900000
758.463379	219.500000
758.500610	213.600000
758.537842	212.200000
758.575012	218.300000
758.612244	206.500000
758.649475	224.500000
758.686646	205.200000
758.723877	218.300000
758.761108	220.700000
758.798279	211.100000
758.835510	215.000000
758.872742	218.100000
758.909851	215.700000
758.947083	215.100000
758.984253	214.700000
759.021484	218.100000
759.058716	218.300000
759.095886	217.400000
759.133057	211.800000
759.170288	217.000000
759.207458	210.700000
759.244690	226.700000
759.281860	224.000000
759.319031	213.900000
759.356262	212.900000
759.393433	213.900000
759.430603	214.100000
759.467773	215.600000
759.505005	222.300000
759.542175	220.900000
759.579346	215.200000
759.616516	218.000000
759.653687	218.000000
759.690918	212.900000
759.728027	217.300000
759.765259	218.100000
759.802429	218.200000
759.839539	219.000000
759.876770	223.400000
759.913940	227.600000
759.951111	217.900000
759.988281	218.800000
760.025452	214.400000
760.062561	216.300000
760.099792	226.500000
760.136963	221.900000
760.174072	217.400000
760.211243	214.000000
760.248413	215.400000
760.285583	215.600000
760.322754	230.400000
760.359863	226.200000
760.397034	226.500000
760.434204	221.600000
760.471375	220.500000
760.508545	218.500000
760.545715	219.200000
760.582825	216.200000
760.619995	226.500000
760.657166	214.400000
760.694275	229.000000
760.731445	224.800000
760.768555	224.100000
760.805664	226.400000
760.842834	225.300000
760.879944	227.200000
760.917114	226.600000
760.954285	222.700000
760.991394	218.000000
761.028564	230.300000
761.065674	228.600000
761.102783	222.300000
761.139954	231.000000
761.177124	230.700000
761.214172	232.500000
761.251343	224.900000
761.288452	227.200000
761.325562	230.800000
761.362732	225.400000
761.399841	228.400000
761.436951	230.400000
761.474121	224.800000
761.511169	230.500000
761.548340	233.700000
761.585449	233.400000
761.622559	234.700000
761.659668	233.600000
761.696838	238.900000
761.733887	236.400000
761.771057	232.200000
761.808167	234.900000
761.845276	239.900000
761.882385	248.100000
761.919434	236.900000
761.956604	258.800000
761.993713	233.900000
762.030762	246.100000
762.067871	238.500000
762.105042	237.700000
762.142090	245.500000
762.179199	242.200000
762.216309	244.000000
762.253418	259.000000
762.290527	250.000000
762.327637	248.500000
762.364685	235.100000
762.401794	246.700000
762.438904	245.300000
762.475952	241.000000
762.513062	240.100000
762.550110	240.100000
762.587219	256.200000
762.624329	255.300000
762.661377	248.600000
762.698486	248.800000
762.735596	248.200000
762.772644	242.500000
762.809753	237.900000
762.846863	245.800000
762.883911	252.600000
762.921021	250.900000
762.958069	250.100000
762.995117	258.300000
763.032227	259.200000
763.069336	249.000000
763.106323	248.200000
763.143433	244.700000
763.180481	254.700000
763.217590	253.100000
763.254639	250.800000
763.291687	251.100000
763.328735	261.000000
763.365845	252.600000
763.402893	253.100000
763.439941	256.500000
763.477051	260.300000
763.514038	261.900000
763.551147	255.400000
763.588196	256.400000
763.625244	257.000000
763.662292	264.200000
763.699402	269.400000
763.736389	263.000000
763.773499	274.100000
763.810486	265.500000
763.847534	264.500000
763.884644	265.900000
763.921631	261.700000
763.958679	274.900000
763.995728	262.700000
764.032776	273.600000
764.069824	260.300000
764.106873	268.700000
764.143860	277.200000
764.180969	266.600000
764.218018	277.600000
764.255005	264.800000
764.292053	269.900000
764.329102	281.400000
764.366089	279.600000
764.403137	278.900000
764.440125	268.500000
764.477173	271.200000
764.514221	273.600000
764.551208	271.800000
764.588257	268.300000
764.625305	280.100000
764.662292	284.900000
764.699341	289.700000
764.736389	280.700000
764.773376	295.900000
764.810425	282.700000
764.847473	291.000000
764.884399	285.500000
764.921448	292.900000
764.958435	291.300000
764.995483	282.600000
765.032532	297.700000
765.069458	284.100000
765.106506	284.500000
765.143555	283.400000
765.180481	286.800000
765.217529	296.800000
765.254578	280.400000
765.291504	294.900000
765.328552	287.000000
765.365540	285.000000
765.402527	298.700000
765.439575	287.800000
765.476501	281.400000
765.513550	282.800000
765.550537	288.700000
765.587463	297.000000
765.624512	287.900000
765.661499	282.300000
765.698486	297.600000
765.735474	287.800000
765.772461	289.700000
765.809448	298.700000
765.846436	293.800000
765.883423	301.500000
765.920410	293.900000
765.957397	289.800000
765.994385	295.300000
766.031311	305.600000
766.068359	299.000000
766.105286	299.300000
766.142273	305.000000
766.179260	301.600000
766.216187	294.700000
766.253174	291.300000
766.290161	299.900000
766.327148	304.300000
766.364136	306.300000
766.401123	320.700000
766.438049	300.700000
766.475037	314.600000
766.512024	308.900000
766.548950	323.400000
766.585937	318.500000
766.622864	313.900000
766.659790	314.100000
766.696777	303.800000
766.733704	319.500000
766.770691	312.000000
766.807678	328.000000
766.844604	321.700000
766.881531	323.400000
766.918518	328.100000
766.955444	333.100000
766.992432	323.400000
767.029358	328.600000
767.066284	331.500000
767.103271	330.300000
767.140198	358.200000
767.177124	345.700000
767.214050	334.800000
767.251038	338.500000
767.287964	334.600000
767.324890	332.800000
767.361816	338.800000
767.398743	346.700000
767.435730	339.800000
767.472595	344.900000
767.509583	349.100000
767.546509	338.000000
767.583374	345.600000
767.620361	338.700000
767.657288	344.800000
767.694214	346.500000
767.731140	344.900000
767.768066	347.000000
767.804993	351.800000
767.841919	341.400000
767.878845	354.500000
767.915710	359.600000
767.952698	352.900000
767.989563	356.600000
768.026489	356.400000
768.063416	350.000000
768.100281	353.100000
768.137207	365.800000
768.174133	364.200000
768.211060	364.600000
768.247986	365.000000
768.284912	363.200000
768.321777	369.000000
768.358704	364.900000
768.395630	369.000000
768.432495	360.600000
768.469421	371.400000
768.506348	376.400000
768.543152	383.500000
768.580078	379.100000
768.616943	382.200000
768.653870	382.300000
768.690796	383.300000
768.727661	379.400000
768.764587	383.000000
768.801453	376.600000
768.838318	390.300000
768.875244	387.200000
768.912109	395.100000
768.948975	384.000000
768.985901	391.300000
769.022766	386.500000
769.059631	395.300000
769.096558	390.200000
769.133362	393.400000
769.170288	393.400000
769.207214	393.100000
769.244019	403.100000
769.280945	400.100000
769.317810	406.700000
769.354675	401.600000
769.391541	410.900000
769.428406	407.400000
769.465271	418.600000
769.502136	408.600000
769.539062	414.200000
769.575867	410.500000
769.612732	411.600000
769.649597	419.500000
769.686462	425.300000
769.723328	416.300000
769.760193	415.900000
769.797058	418.800000
769.833923	428.600000
769.870728	423.800000
769.907593	427.900000
769.944519	425.400000
769.981323	430.000000
770.018188	429.200000
770.055054	428.400000
770.091858	427.200000
770.128723	441.300000
770.165588	447.100000
770.202393	429.500000
770.239258	445.300000
770.276062	440.500000
770.312927	439.700000
770.349792	448.100000
770.386597	443.900000
770.423462	452.600000
770.460327	460.800000
770.497131	446.800000
770.533997	440.000000
770.570862	456.200000
770.607605	457.400000
770.644470	453.000000
770.681335	454.400000
770.718140	451.400000
770.754944	444.700000
770.791809	446.300000
770.828613	447.400000
770.865479	448.000000
770.902222	461.200000
770.939087	455.400000
770.975952	443.100000
771.012695	450.700000
771.049561	466.100000
771.086365	455.000000
771.123169	452.500000
771.159973	456.700000
771.196838	456.200000
771.233582	459.500000
771.270447	458.400000
771.307251	463.100000
771.344055	460.200000
771.380859	465.400000
771.417664	456.100000
771.454468	467.500000
771.491272	466.200000
771.528076	467.100000
771.564880	468.600000
771.601685	478.400000
771.638428	468.400000
771.675293	472.400000
771.712097	466.700000
771.748840	485.400000
771.785645	478.400000
771.822449	478.100000
771.859253	482.100000
771.896057	478.400000
771.932861	493.400000
771.969604	480.400000
772.006409	477.400000
772.043213	492.600000
772.079956	490.400000
772.116760	480.300000
772.153503	483.800000
772.190308	495.900000
772.227112	488.200000
772.263855	483.000000
772.300659	491.500000
772.337463	498.500000
772.374207	490.900000
772.411011	484.200000
772.447754	492.800000
772.484497	511.600000
772.521301	506.300000
772.558105	502.100000
772.594849	506.900000
772.631592	511.600000
772.668396	512.000000
772.705139	517.000000
772.741882	516.800000
772.778625	529.900000
772.815430	531.600000
772.852173	529.200000
772.888916	535.300000
772.925720	541.200000
772.962463	550.700000
772.999207	544.700000
773.035950	548.300000
773.072754	547.600000
773.109436	543.500000
773.146240	546.200000
773.182922	547.500000
773.219727	555.400000
773.256470	554.100000
773.293152	542.100000
773.329956	548.600000
773.366699	554.400000
773.403381	545.600000
773.440186	557.900000
773.476929	559.700000
773.513611	554.400000
773.550354	556.200000
773.587158	557.400000
773.623840	555.200000
773.660583	565.900000
773.697327	583.800000
773.734009	569.900000
773.770813	570.900000
773.807495	569.200000
773.844238	572.900000
773.880981	592.400000
773.917664	586.900000
773.954407	590.600000
773.991150	582.200000
774.027832	591.300000
774.064575	579.400000
774.101318	591.500000
774.138000	599.200000
774.174744	596.500000
774.211487	597.300000
774.248108	587.500000
774.284851	583.600000
774.321594	603.800000
774.358276	604.300000
774.395020	615.600000
774.431702	613.500000
774.468384	602.400000
774.505127	601.100000
774.541809	617.100000
774.578491	629.200000
774.615234	636.400000
774.651917	623.200000
774.688599	625.800000
774.725342	634.700000
774.762024	633.900000
774.798706	639.500000
774.835449	644.300000
774.872070	647.600000
774.908813	642.800000
774.945496	637.900000
774.982178	642.900000
775.018860	649.700000
775.055542	653.100000
775.092224	654.200000
775.128967	661.500000
775.165588	657.300000
775.202271	650.200000
775.239014	665.700000
775.275635	664.600000
775.312317	663.400000
775.349060	665.700000
775.385681	666.200000
775.422363	656.400000
775.459045	670.400000
775.495667	674.000000
775.532410	679.600000
775.569092	679.100000
775.605713	674.900000
775.642395	674.900000
775.679016	680.200000
775.715698	680.900000
775.752380	690.200000
775.789001	681.900000
775.825684	678.500000
775.862366	680.500000
775.898987	694.000000
775.935669	686.200000
775.972351	712.300000
776.008972	708.800000
776.045654	704.800000
776.082336	695.600000
776.118958	695.800000
776.155640	703.400000
776.192322	711.300000
776.228882	715.100000
776.265564	708.800000
776.302185	704.600000
776.338867	714.200000
776.375488	701.600000
776.412109	717.800000
776.448792	724.000000
776.485413	731.600000
776.522034	713.400000
776.558716	704.900000
776.595337	711.800000
776.631958	715.500000
776.668579	714.700000
776.705261	722.500000
776.741882	717.100000
776.778503	715.600000
776.815186	709.100000
776.851746	722.300000
776.888367	723.900000
776.924988	732.200000
776.961609	721.500000
776.998291	718.700000
777.034851	708.800000
777.071472	727.500000
777.108154	722.500000
777.144714	737.300000
777.181335	737.700000
777.218018	726.400000
777.254578	731.200000
777.291199	730.100000
777.327759	740.700000
777.364380	746.300000
777.401062	754.100000
777.437622	767.100000
777.474243	750.300000
777.510864	761.000000
777.547424	755.700000
777.584045	761.600000
777.620667	766.100000
777.657227	775.200000
777.693848	768.800000
777.730469	785.200000
777.767029	779.000000
777.803650	782.500000
777.840271	778.500000
777.876831	777.000000
777.913452	781.700000
777.950012	763.100000
777.986633	766.600000
778.023193	764.400000
778.059753	763.600000
778.096375	769.100000
778.132996	783.300000
778.169556	768.900000
778.206116	771.700000
778.242737	770.300000
778.279297	781.500000
778.315857	771.200000
778.352478	782.500000
778.389038	792.500000
778.425598	797.300000
778.462219	807.100000
778.498718	805.400000
778.535339	813.700000
778.571838	810.400000
778.608459	825.400000
778.645020	815.500000
778.681580	829.300000
778.718140	829.500000
778.754761	826.900000
778.791260	828.300000
778.827881	842.200000
778.864441	841.600000
778.900940	840.300000
778.937561	838.600000
778.974121	839.400000
779.010620	825.500000
779.047241	832.600000
779.083801	844.700000
779.120300	848.600000
779.156860	854.800000
779.193359	851.300000
779.229980	848.100000
779.266541	859.600000
779.303040	866.600000
779.339600	861.800000
779.376160	854.600000
779.412659	862.800000
779.449219	858.000000
779.485779	869.300000
779.522278	867.400000
779.558838	876.600000
779.595398	872.300000
779.631897	872.500000
779.668457	868.100000
779.705017	877.600000
779.741516	867.600000
779.778076	870.300000
779.814575	879.800000
779.851074	882.700000
779.887634	878.100000
779.924133	887.900000
779.960693	876.000000
779.997253	884.000000
780.033691	892.500000
780.070251	898.700000
780.106812	907.500000
780.143250	911.500000
780.179810	904.100000
780.216370	906.600000
780.252808	912.600000
780.289368	930.300000
780.325867	926.600000
780.362366	923.900000
780.398865	939.900000
780.435364	931.600000
780.471863	945.500000
780.508423	945.400000
780.544861	959.600000
780.581421	958.700000
780.617920	948.100000
780.654419	947.000000
780.690918	955.700000
780.727417	964.200000
780.763916	961.700000
780.800415	966.700000
780.836914	948.800000
780.873352	958.300000
780.909912	950.900000
780.946411	960.700000
780.982849	966.900000
781.019348	986.000000
781.055786	979.500000
781.092346	974.700000
781.128845	983.800000
781.165283	987.500000
781.201782	997.700000
781.238281	998.600000
781.274719	1008.700000
781.311218	998.300000
781.347717	1010.900000
781.384155	998.500000
781.420654	998.700000
781.457092	1012.200000
781.493591	1006.500000
781.530090	999.200000
781.566528	1006.900000
781.602966	1008.000000
781.639465	1004.800000
781.675903	1004.600000
781.712402	1016.900000
781.748901	1025.000000
781.785278	1010.500000
781.821777	1019.600000
781.858276	1012.900000
781.894714	1028.800000
781.931152	1021.200000
781.967651	1030.600000
782.004089	1020.000000
782.040527	1031.300000
782.076965	1030.600000
782.113403	1026.300000
782.149902	1030.200000
782.186340	1033.200000
782.222778	1048.100000
782.259277	1031.100000
782.295654	1024.700000
782.332092	1034.600000
782.368591	1031.300000
782.404968	1019.500000
782.441467	1022.400000
782.477905	1024.200000
782.514282	1021.500000
782.550781	1048.200000
782.587219	1042.300000
782.623596	1051.300000
782.660095	1047.700000
782.696472	1059.900000
782.732910	1051.600000
782.769348	1063.600000
782.805786	1076.400000
782.842224	1072.700000
782.878662	1066.000000
782.915039	1068.900000
782.951477	1067.500000
782.987915	1057.300000
783.024292	1063.800000
783.060730	1070.500000
783.097168	1053.700000
783.133545	1055.800000
783.169983	1046.900000
783.206421	1038.100000
783.242798	1041.300000
783.279236	1027.600000
783.315613	1019.700000
783.352051	1016.900000
783.388489	1005.900000
783.424866	987.300000
783.461304	995.700000
783.497681	1001.200000
783.534058	998.600000
783.570496	993.400000
783.606934	988.800000
783.643250	998.200000
783.679687	1007.100000
783.716125	1001.900000
783.752441	1011.900000
783.788879	1030.100000
783.825317	1035.800000
783.861633	1038.800000
783.898071	1038.900000
783.934448	1057.800000
783.970825	1071.600000
784.007263	1058.500000
784.043579	1025.200000
784.080017	942.300000
784.116394	786.500000
784.152710	611.200000
784.189148	455.900000
784.225525	347.300000
784.261902	299.600000
784.298279	292.800000
784.334656	298.100000
784.371033	293.900000
784.407410	307.600000
784.443787	325.900000
784.480164	392.400000
784.516541	507.900000
784.552856	677.400000
784.589233	829.800000
784.625610	941.400000
784.661987	1030.300000
784.698364	1030.400000
784.734741	1026.900000
784.771057	1031.200000
784.807434	1044.000000
784.843811	1067.100000
784.880127	1071.000000
784.916504	1096.100000
784.952881	1106.000000
784.989197	1098.800000
785.025574	1096.300000
785.061951	1111.400000
785.098267	1143.000000
785.134644	1140.900000
785.170959	1136.700000
785.207275	1147.000000
785.243652	1144.000000
785.279968	1134.100000
785.316345	1138.100000
785.352722	1150.900000
785.388977	1147.700000
785.425354	1125.200000
785.461731	1101.900000
785.498047	1094.500000
785.534363	1092.700000
785.570679	1092.600000
785.606995	1094.400000
785.643372	1094.600000
785.679687	1090.800000
785.716003	1074.400000
785.752380	1067.200000
785.788635	1077.200000
785.825012	1105.400000
785.861328	1116.100000
785.897644	1102.500000
785.933960	1112.700000
785.970337	1121.300000
786.006592	1139.800000
786.042908	1158.700000
786.079285	1171.700000
786.115540	1176.000000
786.151855	1169.900000
786.188171	1168.200000
786.224487	1172.600000
786.260803	1179.400000
786.297119	1190.900000
786.333435	1193.200000
786.369751	1187.800000
786.406006	1187.000000
786.442322	1167.300000
786.478638	1157.700000
786.514954	1178.900000
786.551270	1180.300000
786.587585	1190.500000
786.623840	1174.700000
786.660156	1165.600000
786.696472	1150.400000
786.732727	1145.300000
786.769043	1153.100000
786.805298	1142.000000
786.841614	1146.200000
786.877930	1147.200000
786.914124	1128.700000
786.950439	1143.100000
786.986755	1154.700000
787.023010	1173.000000
787.059326	1178.200000
787.095642	1178.500000
787.131836	1196.500000
787.168152	1184.600000
787.204468	1186.500000
787.240723	1213.300000
787.276978	1230.300000
787.313293	1235.800000
787.349548	1228.100000
787.385803	1230.000000
787.422058	1223.300000
787.458313	1227.200000
787.494629	1231.300000
787.530823	1229.100000
787.567139	1209.100000
787.603455	1207.200000
787.639648	1187.200000
787.675903	1194.600000
787.712219	1192.700000
787.748413	1193.700000
787.784729	1203.100000
787.820984	1183.700000
787.857178	1173.600000
787.893494	1166.700000
787.929749	1154.000000
787.965942	1164.400000
788.002258	1182.500000
788.038452	1191.100000
788.074707	1176.900000
788.110962	1179.600000
788.147217	1175.200000
788.183472	1183.800000
788.219727	1201.700000
788.255920	1223.900000
788.292175	1221.700000
788.328430	1225.300000
788.364624	1201.000000
788.400879	1191.900000
788.437134	1195.400000
788.473328	1199.700000
788.509583	1204.900000
788.545837	1192.500000
788.582031	1182.900000
788.618286	1169.000000
788.654480	1162.100000
788.690735	1178.000000
788.726990	1202.300000
788.763184	1199.500000
788.799377	1208.000000
788.835632	1196.500000
788.871826	1214.000000
788.908081	1212.700000
788.944336	1211.900000
788.980469	1233.800000
789.016724	1229.300000
789.052979	1225.400000
789.089111	1198.900000
789.125366	1198.100000
789.161621	1185.100000
789.197754	1200.500000
789.234009	1192.900000
789.270142	1180.500000
789.306396	1167.500000
789.342590	1152.700000
789.378784	1128.000000
789.414978	1130.900000
789.451233	1146.900000
789.487366	1151.400000
789.523621	1155.000000
789.559814	1144.800000
789.595947	1135.200000
789.632202	1143.900000
789.668335	1157.400000
789.704529	1175.800000
789.740784	1204.700000
789.776917	1200.200000
789.813110	1184.800000
789.849304	1199.000000
789.885498	1205.900000
789.921692	1217.600000
789.957886	1234.600000
789.994019	1230.600000
790.030212	1224.100000
790.066406	1221.500000
790.102539	1214.900000
790.138733	1226.400000
790.174927	1227.300000
790.211060	1237.000000
790.247253	1220.500000
790.283386	1205.600000
790.319580	1194.900000
790.355774	1169.800000
790.391907	1178.800000
790.428101	1203.100000
790.464294	1212.900000
790.500427	1211.300000
790.536621	1191.800000
790.572754	1177.400000
790.608887	1177.400000
790.645081	1188.500000
790.681274	1205.200000
790.717346	1203.300000
790.753540	1163.200000
790.789734	1090.500000
790.825867	1032.000000
790.862000	1038.300000
790.898132	1087.700000
790.934265	1159.200000
790.970459	1218.300000
791.006592	1239.000000
791.042725	1243.400000
791.078918	1238.000000
791.114990	1247.100000
791.151184	1258.200000
791.187317	1286.600000
791.223389	1275.900000
791.259583	1264.600000
791.295715	1268.100000
791.331848	1268.600000
791.367981	1284.600000
791.404114	1291.200000
791.440247	1286.500000
791.476379	1284.200000
791.512451	1265.400000
791.548584	1261.400000
791.584778	1261.500000
791.620850	1281.100000
791.656982	1295.600000
791.693115	1283.700000
791.729187	1283.100000
791.765381	1270.700000
791.801514	1269.500000
791.837585	1272.400000
791.873718	1286.000000
791.909851	1292.400000
791.945923	1300.800000
791.982056	1267.600000
792.018188	1262.000000
792.054260	1264.300000
792.090393	1266.000000
792.126465	1264.400000
792.162598	1273.300000
792.198669	1252.400000
792.234741	1244.200000
792.270874	1236.300000
792.307007	1224.200000
792.343079	1230.400000
792.379150	1249.900000
792.415283	1231.700000
792.451355	1231.700000
792.487488	1208.900000
792.523560	1213.100000
792.559631	1214.600000
792.595764	1214.100000
792.631836	1221.000000
792.667908	1223.500000
792.703979	1198.300000
792.740051	1201.200000
792.776184	1205.700000
792.812256	1211.300000
792.848328	1217.800000
792.884399	1231.400000
792.920471	1221.300000
792.956543	1211.800000
792.992615	1217.400000
793.028748	1210.800000
793.064758	1219.600000
793.100830	1234.700000
793.136963	1255.700000
793.172974	1249.000000
793.209045	1240.700000
793.245178	1247.400000
793.281189	1237.300000
793.317261	1249.400000
793.353271	1248.200000
793.389404	1250.300000
793.425476	1241.400000
793.461487	1234.700000
793.497559	1221.300000
793.533630	1230.000000
793.569641	1234.900000
793.605713	1241.800000
793.641785	1240.600000
793.677795	1247.800000
793.713867	1236.300000
793.749878	1239.500000
793.785950	1247.900000
793.822021	1251.600000
793.858032	1242.600000
793.894104	1257.600000
793.930176	1240.700000
793.966187	1241.000000
794.002258	1220.700000
794.038269	1235.000000
794.074280	1232.700000
794.110352	1258.300000
794.146423	1223.100000
794.182373	1220.900000
794.218445	1206.900000
794.254517	1201.000000
794.290466	1184.300000
794.326538	1191.400000
794.362549	1194.700000
794.398560	1202.600000
794.434631	1200.800000
794.470581	1170.500000
794.506653	1161.300000
794.542664	1169.900000
794.578674	1165.900000
794.614685	1164.600000
794.650757	1155.700000
794.686707	1153.800000
794.722778	1137.500000
794.758789	1151.900000
794.794739	1157.700000
794.830811	1180.900000
794.866821	1200.100000
794.902771	1192.800000
794.938843	1179.500000
794.974792	1172.500000
795.010803	1174.600000
795.046814	1185.500000
795.082825	1161.700000
795.118835	1179.500000
795.154846	1160.900000
795.190796	1162.400000
795.226807	1133.900000
795.262817	1142.600000
795.298767	1143.700000
795.334778	1145.300000
795.370850	1133.100000
795.406799	1134.700000
795.442810	1114.400000
795.478821	1111.400000
795.514709	1114.000000
795.550720	1137.000000
795.586670	1119.600000
795.622681	1121.200000
795.658691	1116.600000
795.694641	1104.400000
795.730652	1094.200000
795.766663	1101.600000
795.802551	1105.200000
795.838562	1124.900000
795.874573	1107.700000
795.910522	1106.200000
795.946472	1093.400000
795.982483	1095.400000
796.018433	1105.900000
796.054382	1113.200000
796.090393	1106.300000
796.126282	1094.700000
796.162292	1084.600000
796.198242	1071.300000
796.234192	1078.600000
796.270203	1071.400000
796.306091	1082.600000
796.342041	1096.000000
796.378052	1084.800000
796.413940	1076.700000
796.449951	1079.000000
796.485901	1080.200000
796.521790	1079.700000
796.557800	1093.800000
796.593689	1091.900000
796.629639	1076.400000
796.665649	1073.700000
796.701599	1072.600000
796.737488	1065.600000
796.773437	1075.600000
796.809387	1074.900000
796.845337	1070.600000
796.881287	1061.700000
796.917175	1036.500000
796.953125	1043.000000
796.989075	1059.600000
797.024963	1060.900000
797.060913	1056.600000
797.096863	1057.600000
797.132751	1045.300000
797.168701	1024.200000
797.204590	1036.300000
797.240540	1036.800000
797.276489	1044.300000
797.312439	1051.400000
797.348328	1050.100000
797.384277	1030.400000
797.420166	1024.400000
797.456055	1020.100000
797.492004	1017.300000
797.527893	1028.400000
797.563843	1032.500000
797.599731	1014.900000
797.635620	1004.100000
797.671570	1009.400000
797.707520	1014.600000
797.743347	1009.800000
797.779297	1025.700000
797.815125	1017.200000
797.851074	1005.500000
797.887024	999.000000
797.922913	990.700000
797.958801	1007.800000
797.994690	1008.200000
798.030579	1007.600000
798.066467	1010.900000
798.102356	993.000000
798.138245	988.200000
798.174133	981.700000
798.210083	995.200000
798.245911	1002.000000
798.281799	1006.800000
798.317749	996.900000
798.353577	987.200000
798.389465	987.900000
798.425293	979.900000
798.461243	976.100000
798.497131	980.500000
798.532959	985.400000
798.568848	985.200000
798.604736	971.100000
798.640564	954.000000
798.676453	959.000000
798.712402	964.900000
798.748230	972.900000
798.784119	969.100000
798.820007	973.200000
798.855835	965.000000
798.891724	957.500000
798.927551	950.300000
798.963379	961.500000
798.999268	961.100000
799.035095	956.700000
799.070984	943.900000
799.106873	932.700000
799.142700	947.400000
799.178528	935.600000
799.214417	934.100000
799.250244	955.100000
799.286133	946.400000
799.321960	940.500000
799.357788	929.500000
799.393677	939.500000
799.429504	934.900000
799.465332	935.700000
799.501221	942.900000
799.537048	937.100000
799.572876	929.000000
799.608704	930.200000
799.644531	938.700000
799.680359	933.900000
799.716248	942.900000
799.752014	948.600000
799.787903	939.000000
799.823730	925.900000
799.859558	920.800000
799.895386	925.700000
799.931213	923.500000
799.967041	916.700000
800.002869	910.200000
800.038696	926.700000
800.074463	902.100000
800.110352	905.200000
800.146179	893.900000
800.181946	902.000000
800.217773	907.400000
800.253540	900.400000
800.289429	896.100000
800.325256	888.000000
800.361023	880.900000
800.396851	887.300000
800.432678	888.000000
800.468445	883.900000
800.504272	876.200000
800.540100	860.300000
800.575867	858.200000
800.611694	862.300000
800.647461	855.300000
800.683289	859.200000
800.719116	862.500000
800.754883	852.800000
800.790649	834.200000
800.826477	824.800000
800.862244	852.600000
800.898071	833.400000
800.933838	832.300000
800.969604	823.800000
801.005432	827.500000
801.041199	828.300000
801.076965	820.000000
801.112793	806.600000
801.148560	799.800000
801.184326	802.400000
801.220154	805.300000
801.255859	793.900000
801.291687	791.100000
801.327454	783.400000
801.363281	785.200000
801.398987	782.300000
801.434814	782.600000
801.470520	795.400000
801.506287	779.300000
801.542114	769.400000
801.577820	776.500000
801.613647	774.000000
801.649414	764.200000
801.685120	768.700000
801.720886	776.000000
801.756714	759.600000
801.792419	751.000000
801.828186	749.900000
801.863892	757.900000
801.899719	744.500000
801.935486	744.100000
801.971252	750.900000
802.006958	741.600000
802.042725	732.300000
802.078430	738.000000
802.114197	729.100000
802.149963	745.600000
802.185669	734.300000
802.221436	728.700000
802.257202	730.400000
802.292908	729.900000
802.328674	736.800000
802.364441	737.500000
802.400146	729.200000
802.435913	723.600000
802.471558	718.800000
802.507324	713.600000
802.543091	704.100000
802.578796	717.900000
802.614502	719.100000
802.650269	725.900000
802.685974	705.100000
802.721741	709.100000
802.757446	712.800000
802.793152	707.100000
802.828918	719.700000
802.864624	713.100000
802.900330	708.500000
802.936035	702.200000
802.971802	699.300000
803.007446	697.900000
803.043213	693.100000
803.078857	698.100000
803.114624	681.400000
803.150330	687.500000
803.185974	677.100000
803.221741	676.000000
803.257446	689.100000
803.293152	689.000000
803.328857	678.100000
803.364563	672.900000
803.400208	667.500000
803.435974	675.500000
803.471680	665.000000
803.507324	664.700000
803.543030	669.000000
803.578735	671.800000
803.614441	661.000000
803.650146	667.500000
803.685791	651.700000
803.721497	655.000000
803.757202	645.000000
803.792847	656.000000
803.828552	644.900000
803.864258	644.500000
803.899902	645.200000
803.935608	626.000000
803.971313	632.400000
804.006958	633.500000
804.042664	630.100000
804.078308	635.300000
804.113953	623.900000
804.149658	632.300000
804.185364	621.200000
804.221008	631.500000
804.256714	622.200000
804.292297	622.900000
804.328003	620.200000
804.363708	608.800000
804.399292	609.800000
804.434998	610.300000
804.470703	602.400000
804.506287	616.100000
804.541992	605.800000
804.577637	610.400000
804.613281	597.800000
804.648926	594.900000
804.684570	597.000000
804.720215	596.100000
804.755920	597.800000
804.791565	591.900000
804.827209	594.900000
804.862854	588.800000
804.898437	581.700000
804.934143	586.600000
804.969788	583.000000
805.005371	585.800000
805.041077	588.200000
805.076721	584.500000
805.112305	571.500000
805.147949	575.400000
805.183655	573.200000
805.219238	573.600000
805.254883	575.200000
805.290466	578.400000
805.326111	571.900000
805.361755	561.300000
805.397400	564.200000
805.432983	571.500000
805.468628	568.000000
805.504211	569.700000
805.539856	568.300000
805.575500	573.500000
805.611084	563.200000
805.646729	551.900000
805.682373	557.800000
805.717957	569.200000
805.753601	568.700000
805.789246	549.100000
805.824768	564.100000
805.860413	563.500000
805.895996	554.100000
805.931641	551.500000
805.967224	558.600000
806.002869	552.500000
806.038452	560.000000
806.074036	557.100000
806.109619	544.200000
806.145264	539.800000
806.180847	538.400000
806.216431	537.400000
806.252014	543.800000
806.287659	541.200000
806.323181	549.100000
806.358826	539.800000
806.394409	525.000000
806.429993	525.200000
806.465576	540.800000
806.501160	521.600000
806.536743	516.200000
806.572327	524.400000
806.607910	523.800000
806.643494	522.600000
806.679077	517.500000
806.714661	519.900000
806.750244	518.900000
806.785828	508.500000
806.821350	509.100000
806.856934	516.600000
806.892517	509.700000
806.928101	503.200000
806.963684	505.100000
806.999268	517.000000
807.034790	494.000000
807.070374	500.200000
807.105896	495.900000
807.141479	494.800000
807.177063	500.000000
807.212585	490.300000
807.248169	491.400000
807.283752	497.400000
807.319275	488.900000
807.354858	486.100000
807.390381	484.100000
807.425903	486.200000
807.461487	481.500000
807.497070	475.300000
807.532593	477.100000
807.568115	475.500000
807.603699	467.900000
807.639221	465.000000
807.674744	466.800000
807.710266	473.200000
807.745850	475.600000
807.781372	470.100000
807.816895	464.400000
807.852417	467.900000
807.888000	462.100000
807.923523	461.900000
807.959045	465.000000
807.994629	453.700000
808.030090	451.100000
808.065613	456.900000
808.101135	458.700000
808.136658	453.900000
808.172241	452.600000
808.207764	449.300000
808.243225	446.600000
808.278809	440.600000
808.314270	450.100000
808.349792	436.200000
808.385315	437.900000
808.420837	444.700000
808.456360	445.400000
808.491882	445.300000
808.527344	438.900000
808.562866	446.200000
808.598389	439.100000
808.633850	430.800000
808.669434	425.000000
808.704895	438.000000
808.740417	443.400000
808.775940	433.800000
808.811462	431.000000
808.846924	422.600000
808.882385	416.600000
808.917847	413.800000
808.953369	418.000000
808.988892	411.100000
809.024353	423.000000
809.059875	419.100000
809.095398	414.600000
809.130798	407.800000
809.166321	408.300000
809.201843	406.000000
809.237305	408.600000
809.272766	415.200000
809.308228	402.700000
809.343750	401.200000
809.379211	404.500000
809.414734	400.900000
809.450134	412.500000
809.485657	391.800000
809.521118	402.300000
809.556580	398.300000
809.592102	397.400000
809.627502	395.000000
809.663025	393.000000
809.698486	387.000000
809.733887	381.500000
809.769409	386.600000
809.804871	376.300000
809.840271	381.800000
809.875793	382.800000
809.911194	387.700000
809.946655	378.300000
809.982178	373.600000
810.017639	378.800000
810.053040	374.700000
810.088501	371.500000
810.123901	373.400000
810.159424	369.700000
810.194885	361.900000
810.230286	368.200000
810.265747	362.200000
810.301208	359.300000
810.336609	363.900000
810.372070	356.800000
810.407532	358.700000
810.442932	359.400000
810.478394	361.200000
810.513794	357.600000
810.549255	357.500000
810.584717	352.700000
810.620117	349.300000
810.655518	356.100000
810.690979	355.700000
810.726379	353.300000
810.761841	341.300000
810.797302	343.200000
810.832642	344.700000
810.868103	355.100000
810.903564	344.200000
810.938904	348.400000
810.974365	337.900000
811.009827	342.200000
811.045166	336.700000
811.080627	328.800000
811.115967	338.500000
811.151428	344.100000
811.186829	337.500000
811.222229	336.500000
811.257629	328.700000
811.293091	334.800000
811.328430	343.500000
811.363892	336.500000
811.399292	337.300000
811.434631	330.300000
811.470093	337.600000
811.505493	327.000000
811.540833	328.500000
811.576294	334.300000
811.611694	329.700000
811.647034	322.500000
811.682434	325.400000
811.717773	328.800000
811.753235	332.900000
811.788635	324.900000
811.823975	325.700000
811.859375	333.500000
811.894775	318.100000
811.930115	320.900000
811.965515	321.600000
812.000916	326.600000
812.036255	319.500000
812.071655	321.800000
812.106995	314.400000
812.142395	317.500000
812.177795	322.100000
812.213196	320.900000
812.248474	320.600000
812.283875	312.600000
812.319214	314.900000
812.354614	315.400000
812.390015	310.200000
812.425293	313.800000
812.460693	312.000000
812.496094	309.200000
812.531433	303.200000
812.566772	304.300000
812.602173	307.800000
812.637451	309.000000
812.672852	304.300000
812.708191	309.000000
812.743530	303.700000
812.778931	295.600000
812.814270	298.600000
812.849609	307.400000
812.884949	299.300000
812.920227	292.500000
812.955627	308.900000
812.990967	301.500000
813.026306	293.600000
813.061646	285.600000
813.096985	281.700000
813.132324	281.100000
813.167664	285.200000
813.203003	291.800000
813.238281	278.600000
813.273682	280.400000
813.308960	275.200000
813.344299	280.000000
813.379639	288.700000
813.414978	279.700000
813.450256	279.800000
813.485596	283.000000
813.520874	276.200000
813.556213	280.500000
813.591614	282.100000
813.626831	276.500000
813.662170	278.200000
813.697510	289.700000
813.732788	270.200000
813.768127	277.500000
813.803467	279.600000
813.838745	271.900000
813.874084	276.300000
813.909363	274.000000
813.944641	276.200000
813.979980	265.400000
814.015320	270.500000
814.050598	267.600000
814.085876	272.300000
814.121155	268.000000
814.156494	267.500000
814.191772	268.400000
814.227051	265.600000
814.262390	264.500000
814.297668	267.600000
814.332947	268.000000
814.368225	260.500000
814.403564	262.600000
814.438782	261.400000
814.474121	262.900000
814.509338	259.900000
814.544617	267.700000
814.579956	258.600000
814.615173	269.400000
814.650513	266.300000
814.685791	256.400000
814.721008	259.700000
814.756348	260.000000
814.791626	257.300000
814.826843	257.900000
814.862122	257.700000
814.897400	251.900000
814.932678	257.100000
814.967957	255.900000
815.003235	253.900000
815.038452	246.700000
815.073730	245.100000
815.108948	257.100000
815.144226	253.800000
815.179504	257.800000
815.214722	243.600000
815.250000	242.300000
815.285278	249.900000
815.320496	243.400000
815.355774	245.600000
815.391052	250.300000
815.426270	245.200000
815.461487	245.600000
815.496765	240.200000
815.531982	236.100000
815.567261	241.400000
815.602539	251.800000
815.637695	244.200000
815.672974	245.300000
815.708191	247.900000
815.743408	247.800000
815.778687	238.600000
815.813904	251.800000
815.849121	230.400000
815.884399	236.000000
815.919556	235.100000
815.954834	236.100000
815.990051	239.700000
816.025269	244.700000
816.060486	232.900000
816.095703	233.900000
816.130920	238.000000
816.166199	232.000000
816.201416	236.400000
816.236572	243.400000
816.271851	233.000000
816.307007	240.800000
816.342224	228.100000
816.377441	232.200000
816.412659	223.400000
816.447876	237.600000
816.483093	230.400000
816.518250	232.400000
816.553467	228.400000
816.588745	234.200000
816.623901	226.300000
816.659119	219.900000
816.694275	226.300000
816.729492	222.400000
816.764709	259.400000
816.799927	220.200000
816.835083	225.100000
816.870300	217.600000
816.905457	222.700000
816.940674	223.800000
816.975830	220.400000
817.010986	219.400000
817.046204	219.900000
817.081421	216.200000
817.116577	216.000000
817.151733	227.400000
817.186951	225.600000
817.222107	221.700000
817.257324	225.900000
817.292419	222.200000
817.327637	215.300000
817.362854	219.100000
817.398010	214.000000
817.433167	216.100000
817.468323	216.500000
817.503479	217.900000
817.538635	225.500000
817.573853	218.600000
817.608948	218.600000
817.644165	212.400000
817.679321	211.900000
817.714478	212.100000
817.749634	217.800000
817.784790	227.700000
817.819946	223.600000
817.855103	205.800000
817.890198	215.400000
817.925415	207.700000
817.960571	216.600000
817.995667	214.100000
818.030823	216.300000
818.066040	208.800000
818.101135	214.100000
818.136292	212.000000
818.171448	207.000000
818.206543	211.900000
818.241699	214.500000
818.276855	212.200000
818.311951	209.500000
818.347107	208.600000
818.382263	214.100000
818.417358	219.000000
818.452515	218.700000
818.487610	217.600000
818.522766	207.000000
818.557922	219.700000
818.593018	213.900000
818.628113	210.600000
818.663269	205.500000
818.698364	209.200000
818.733521	207.000000
818.768677	213.100000
818.803711	202.900000
818.838867	204.800000
818.874023	207.900000
818.909058	204.500000
818.944214	202.800000
818.979370	210.100000
819.014404	207.700000
819.049561	204.000000
819.084595	209.400000
819.119751	202.300000
819.154846	208.900000
819.189941	206.200000
819.225037	200.200000
819.260193	196.800000
819.295227	199.100000
819.330322	195.900000
819.365479	194.100000
819.400513	229.500000
819.435608	193.600000
819.470764	192.400000
819.505798	194.700000
819.540894	199.500000
819.575989	196.600000
819.611084	207.800000
819.646179	207.200000
819.681213	204.200000
819.716309	199.000000
819.751404	200.100000
819.786438	204.500000
819.821533	196.900000
819.856628	200.100000
819.891663	205.500000
819.926758	210.300000
819.961853	206.000000
819.996887	197.200000
820.031982	202.600000
820.067017	198.600000
820.102112	227.300000
820.137207	198.600000
820.172302	215.300000
820.207275	194.800000
820.242371	194.300000
820.277405	195.800000
820.312500	198.800000
820.347534	201.100000
820.382568	203.700000
820.417664	195.900000
820.452759	196.000000
820.487732	195.000000
820.522827	195.700000
820.557861	193.800000
820.592896	196.200000
820.627930	197.700000
820.662964	193.900000
820.698059	199.500000
820.733093	196.500000
820.768127	201.900000
820.803162	196.600000
820.838196	194.900000
820.873230	197.500000
820.908264	198.600000
820.943298	192.500000
820.978333	202.500000
821.013367	197.100000
821.048401	202.700000
821.083435	203.400000
821.118469	188.300000
821.153503	201.400000
821.188477	199.100000
821.223511	189.000000
821.258484	197.700000
821.293579	198.500000
821.328613	190.900000
821.363647	195.300000
821.398621	190.600000
821.433655	192.600000
821.468628	210.200000
821.503662	193.700000
821.538696	199.800000
821.573669	191.400000
821.608704	200.000000
821.643677	194.100000
821.678650	199.500000
821.713684	204.500000
821.748718	195.500000
821.783691	195.100000
821.818726	196.300000
821.853638	197.200000
821.888672	193.800000
821.923706	194.400000
821.958618	192.400000
821.993652	193.600000
822.028687	198.200000
822.063599	202.500000
822.098633	196.300000
822.133667	191.600000
822.168579	193.600000
822.203613	197.300000
822.238586	190.800000
822.273560	196.800000
822.308533	191.700000
822.343567	192.900000
822.378479	193.500000
822.413452	194.300000
822.448425	190.500000
822.483398	200.000000
822.518372	200.500000
822.553345	193.700000
822.588318	201.500000
822.623291	194.800000
822.658203	193.400000
822.693237	196.800000
822.728210	190.100000
822.763123	197.100000
822.798096	189.200000
822.833069	195.900000
822.867981	194.600000
822.902954	197.100000
822.937927	200.000000
822.972900	207.300000
823.007874	187.300000
823.042725	200.200000
823.077698	207.400000
823.112671	192.900000
823.147583	193.500000
823.182556	198.100000
823.217529	199.300000
823.252441	192.200000
823.287415	207.900000
823.322388	196.900000
823.357239	194.900000
823.392212	203.100000
823.427185	198.400000
823.462097	190.700000
823.497009	198.500000
823.531982	192.200000
823.566895	195.000000
823.601807	189.400000
823.636719	192.500000
823.671631	198.100000
823.706604	194.400000
823.741455	197.000000
823.776428	189.300000
823.811340	198.300000
823.846252	202.100000
823.881165	202.200000
823.916138	197.300000
823.950989	203.200000
823.985901	192.200000
824.020813	195.300000
824.055725	191.900000
824.090637	191.200000
824.125610	197.800000
824.160461	195.600000
824.195374	197.200000
824.230225	200.900000
824.265198	187.800000
824.300110	191.200000
824.334961	205.900000
824.369873	183.700000
824.404785	197.600000
824.439636	203.100000
824.474548	187.700000
824.509460	184.100000
824.544312	201.200000
824.579224	196.700000
824.614075	198.800000
824.648987	193.600000
824.683899	195.800000
824.718811	191.000000
824.753662	203.100000
824.788574	199.400000
824.823364	196.400000
824.858276	190.700000
824.893188	201.600000
824.928040	199.600000
824.962952	196.800000
824.997803	198.800000
825.032654	196.100000
825.067566	198.700000
825.102417	193.700000
825.137268	194.900000
825.172119	195.000000
825.206970	191.200000
825.241882	193.100000
825.276733	190.400000
825.311646	192.000000
825.346436	189.200000
825.381348	187.800000
825.416138	195.600000
825.450989	190.000000
825.485901	186.800000
825.520691	186.400000
825.555542	188.600000
825.590454	194.000000
825.625244	187.200000
825.660095	201.300000
825.695007	198.600000
825.729797	192.000000
825.764648	191.400000
825.799438	192.400000
825.834290	195.600000
825.869202	187.300000
825.903992	196.600000
825.938843	189.600000
825.973694	189.400000
826.008484	206.600000
826.043335	190.100000
826.078186	186.000000
826.112976	200.900000
826.147827	198.400000
826.182678	204.600000
826.217468	187.600000
826.252319	199.300000
826.287109	188.500000
826.321899	202.300000
826.356750	191.700000
826.391541	189.000000
826.426392	198.900000
826.461182	195.300000
826.495972	187.800000
826.530823	185.300000
826.565613	193.600000
826.600403	188.300000
826.635254	196.600000
826.670044	185.600000
826.704834	185.800000
826.739685	187.900000
826.774475	196.300000
826.809265	192.200000
826.844055	191.500000
826.878906	199.400000
826.913635	195.600000
826.948425	196.000000
826.983215	195.200000
827.018005	198.100000
827.052856	191.500000
827.087585	196.600000
827.122375	186.800000
827.157227	192.000000
827.191956	206.200000
827.226746	188.500000
827.261536	198.200000
827.296265	186.000000
827.331116	191.900000
827.365906	197.500000
827.400635	189.500000
827.435425	185.700000
827.470215	200.800000
827.504944	190.700000
827.539734	198.500000
827.574463	192.700000
827.609253	201.200000
827.644043	192.900000
827.678772	200.300000
827.713562	191.600000
827.748352	192.700000
827.783081	190.200000
827.817871	196.600000
827.852600	188.800000
827.887329	195.900000
827.922119	183.500000
827.956848	196.900000
827.991638	207.800000
828.026367	196.200000
828.061157	193.100000
828.095886	193.100000
828.130615	208.200000
828.165344	185.200000
828.200073	193.500000
828.234863	190.300000
828.269592	192.400000
828.304321	197.300000
828.339111	192.800000
828.373779	189.000000
828.408569	199.300000
828.443298	198.300000
828.477966	189.400000
828.512756	193.200000
828.547424	188.000000
828.582214	191.500000
828.616943	191.600000
828.651672	191.200000
828.686340	196.100000
828.721130	189.300000
828.755798	192.000000
828.790527	192.800000
828.825256	193.500000
828.859924	192.300000
828.894714	201.200000
828.929443	202.200000
828.964111	189.300000
828.998840	195.800000
829.033569	190.800000
829.068237	190.700000
829.102966	191.400000
829.137634	193.900000
829.172363	194.900000
829.207092	194.900000
829.241821	190.600000
829.276489	184.800000
829.311157	194.000000
829.345825	191.200000
829.380554	198.000000
829.415283	189.600000
829.449951	187.300000
829.484619	200.500000
829.519348	201.500000
829.554016	193.200000
829.588745	191.900000
829.623413	185.800000
829.658081	204.300000
829.692749	187.300000
829.727417	198.300000
829.762146	196.700000
829.796814	189.800000
829.831482	190.900000
829.866150	196.200000
829.900879	190.000000
829.935486	198.000000
829.970154	191.100000
830.004883	204.100000
830.039490	194.000000
830.074219	189.000000
830.108887	194.300000
830.143494	192.900000
830.178223	187.900000
830.212891	189.800000
830.247498	193.500000
830.282166	199.600000
830.316772	198.900000
830.351501	190.600000
830.386169	192.800000
830.420776	190.300000
830.455444	192.900000
830.490112	189.000000
830.524719	184.300000
830.559387	194.100000
830.594055	196.300000
830.628662	192.100000
830.663330	192.800000
830.697998	200.100000
830.732605	192.800000
830.767273	195.900000
830.801941	194.100000
830.836487	202.000000
830.871155	195.600000
830.905762	194.700000
830.940430	185.800000
830.975098	190.900000
831.009644	193.100000
831.044312	202.200000
831.078979	195.300000
831.113525	185.500000
831.148193	195.200000
831.182861	192.200000
831.217407	197.300000
831.252075	209.900000
831.286621	190.800000
831.321289	188.600000
831.355896	193.700000
831.390564	200.200000
831.425110	192.600000
831.459778	199.700000
831.494324	207.700000
831.528931	197.500000
831.563599	197.800000
831.598145	187.200000
831.632751	191.700000
831.667419	193.200000
831.701965	195.200000
831.736572	196.400000
831.771179	187.300000
831.805786	191.000000
831.840393	199.300000
831.874939	184.700000
831.909546	198.200000
831.944153	184.100000
831.978760	191.800000
832.013306	188.000000
832.047913	200.300000
832.082458	201.100000
832.117065	188.900000
832.151672	202.600000
832.186218	193.600000
832.220825	196.400000
832.255432	184.900000
832.289978	189.200000
832.324585	195.500000
832.359192	196.700000
832.393677	190.100000
832.428284	194.200000
832.462830	191.700000
832.497437	191.900000
832.531982	196.300000
832.566589	191.600000
832.601135	194.100000
832.635681	185.900000
832.670227	194.200000
832.704773	201.800000
832.739380	194.900000
832.773926	194.300000
832.808472	188.900000
832.843079	194.800000
832.877563	198.100000
832.912170	190.600000
832.946716	185.000000
832.981201	201.400000
833.015808	196.200000
833.050293	193.000000
833.084839	189.500000
833.119446	191.900000
833.153992	196.800000
833.188477	194.100000
833.223022	189.500000
833.257568	193.800000
833.292114	200.100000
833.326660	206.600000
833.361145	191.900000
833.395691	185.100000
833.430237	193.700000
833.464783	196.400000
833.499329	189.800000
833.533875	188.400000
833.568359	196.200000
833.602905	200.000000
833.637390	198.500000
833.671875	191.300000
833.706421	193.200000
833.740906	188.900000
833.775452	182.700000
833.809998	190.600000
833.844482	202.000000
833.879028	192.700000
833.913513	191.200000
833.947998	195.300000
833.982544	190.500000
834.017090	191.300000
834.051514	182.200000
834.086060	195.600000
834.120544	193.800000
834.155029	194.000000
834.189575	192.200000
834.223999	197.200000
834.258545	193.500000
834.293030	193.700000
834.327515	193.900000
834.362000	189.700000
834.396545	196.600000
834.430969	193.200000
834.465454	197.300000
834.500000	184.800000
834.534424	196.000000
834.568970	183.800000
834.603455	184.500000
834.637878	189.100000
834.672363	192.900000
834.706909	192.800000
834.741333	193.500000
834.775818	186.300000
834.810242	188.300000
834.844727	193.100000
834.879211	191.800000
834.913635	193.900000
834.948181	194.500000
834.982666	193.900000
835.017090	192.100000
835.051575	195.500000
835.086060	189.500000
835.120483	198.100000
835.154907	196.500000
835.189331	193.300000
835.223816	194.400000
835.258301	187.600000
835.292786	187.800000
835.327209	198.600000
835.361694	189.000000
835.396057	189.900000
835.430542	195.200000
835.465027	195.400000
835.499390	186.200000
835.533875	212.200000
835.568359	190.300000
835.602722	186.500000
835.637207	194.900000
835.671692	187.300000
835.706055	209.500000
835.740540	194.900000
835.774902	195.500000
835.809387	194.400000
835.843811	185.300000
835.878235	201.500000
835.912659	187.000000
835.947083	190.800000
835.981506	193.600000
836.015930	186.100000
836.050354	197.100000
836.084778	202.900000
836.119202	197.900000
836.153625	206.300000
836.187988	189.000000
836.222473	190.200000
836.256897	194.300000
836.291260	193.000000
836.325684	196.500000
836.360046	190.800000
836.394470	192.000000
836.428894	200.300000
836.463318	189.000000
836.497681	197.300000
836.532104	200.900000
836.566467	193.300000
836.600891	189.800000
836.635315	199.200000
836.669678	195.700000
836.704102	197.200000
836.738525	193.600000
836.772888	183.800000
836.807251	190.200000
836.841675	193.700000
836.876038	188.700000
836.910461	188.900000
836.944763	196.800000
836.979187	187.500000
837.013611	199.900000
837.047974	185.000000
837.082336	204.800000
837.116699	196.000000
837.151062	193.600000
837.185486	186.500000
837.219849	191.200000
837.254211	198.400000
837.288574	192.300000
837.322937	188.400000
837.357300	181.800000
837.391663	206.500000
837.426086	199.600000
837.460388	194.100000
837.494751	199.400000
837.529114	192.000000
837.563477	199.600000
837.597839	195.800000
837.632141	193.400000
837.666565	190.700000
837.700928	196.000000
837.735229	196.700000
837.769592	196.800000
837.803955	198.400000
837.838257	191.000000
837.872620	188.800000
837.906982	199.400000
837.941284	194.600000
837.975647	195.300000
838.010010	199.600000
838.044312	191.600000
838.078674	191.800000
838.112976	194.800000
838.147339	196.800000
838.181702	192.500000
838.216003	203.700000
838.250366	195.000000
838.284668	196.700000
838.318970	185.000000
838.353333	194.400000
838.387634	190.300000
838.421936	193.200000
838.456299	194.400000
838.490601	201.500000
838.524902	196.200000
838.559265	200.000000
838.593567	197.200000
838.627869	188.300000
838.662170	196.300000
838.696472	185.400000
838.730774	189.600000
838.765137	198.000000
838.799377	177.400000
838.833740	194.200000
838.868042	199.700000
838.902283	186.500000
838.936646	197.600000
838.970947	195.200000
839.005188	198.800000
839.039551	187.600000
839.073792	201.400000
839.108093	191.400000
839.142395	202.500000
839.176697	188.500000
839.210937	194.900000
839.245300	205.000000
839.279541	187.500000
839.313843	193.300000
839.348145	196.100000
839.382385	198.100000
839.416687	197.700000
839.450989	197.600000
839.485229	192.700000
839.519531	189.000000
839.553833	199.900000
839.588013	193.500000
839.622314	194.300000
839.656555	196.500000
839.690857	192.400000
839.725159	186.600000
839.759460	192.600000
839.793640	190.500000
839.827942	193.100000
839.862183	188.900000
839.896423	194.800000
839.930725	201.800000
839.964966	202.100000
839.999207	200.600000
840.033508	201.100000
840.067688	191.100000
840.101990	203.100000
840.136230	191.600000
840.170471	202.300000
840.204712	189.900000
840.238953	190.100000
840.273193	194.400000
840.307434	197.600000
840.341736	189.200000
840.375916	188.100000
840.410217	190.600000
840.444397	198.800000
840.478638	195.600000
840.512878	200.200000
840.547119	193.800000
840.581360	196.600000
840.615601	202.200000
840.649780	203.100000
840.684021	193.100000
840.718262	202.200000
840.752441	199.100000
840.786682	195.600000
840.820862	194.700000
840.855103	202.000000
840.889343	194.000000
840.923584	199.200000
840.957764	197.800000
840.992004	197.400000
841.026184	208.100000
841.060425	193.400000
841.094666	190.600000
841.128845	196.700000
841.163025	194.300000
841.197266	197.100000
841.231445	195.100000
841.265686	195.800000
841.299866	189.500000
841.334045	202.200000
841.368286	192.200000
841.402405	201.300000
841.436646	197.800000
841.470825	191.000000
841.505005	193.800000
841.539185	187.500000
841.573425	191.300000
841.607544	193.300000
841.641785	195.000000
841.675964	187.500000
841.710144	194.100000
841.744324	190.500000
841.778503	192.000000
841.812683	188.800000
841.846863	202.400000
841.881042	200.000000
841.915222	190.800000
841.949402	209.000000
841.983521	184.800000
842.017700	192.100000
842.051880	195.100000
842.086060	195.500000
842.120239	195.700000
842.154419	192.100000
842.188538	195.000000
842.222717	190.200000
842.256897	204.500000
842.291016	192.500000
842.325195	197.900000
842.359375	206.900000
842.393494	203.000000
842.427673	196.400000
842.461853	199.400000
842.495911	201.100000
842.530090	197.200000
842.564209	194.200000
842.598389	197.300000
842.632568	195.100000
842.666626	199.100000
842.700806	191.200000
842.734985	192.900000
842.769043	196.700000
842.803223	192.600000
842.837402	193.700000
842.871460	192.400000
842.905640	203.100000
842.939697	190.900000
842.973877	196.100000
843.007996	199.900000
843.042175	203.800000
843.076233	191.300000
843.110413	195.300000
843.144470	202.500000
843.178589	198.400000
843.212769	190.700000
843.246826	199.700000
843.280945	192.500000
843.315125	192.800000
843.349182	190.200000
843.383301	202.500000
843.417419	206.600000
843.451538	194.000000
843.485657	193.600000
843.519714	192.600000
843.553833	194.900000
843.587952	193.100000
843.622070	190.300000
843.656128	197.900000
843.690247	192.600000
843.724304	194.100000
843.758423	195.700000
843.792542	194.100000
843.826599	193.500000
843.860718	192.400000
843.894836	187.300000
843.928894	195.300000
843.963013	196.000000
843.997070	192.300000
844.031128	188.000000
844.065247	201.500000
844.099304	200.300000
844.133362	195.200000
844.167480	197.300000
844.201599	202.600000
844.235596	196.900000
844.269714	196.800000
844.303711	198.500000
844.337830	187.200000
844.371948	198.800000
844.405945	192.800000
844.440063	188.800000
844.474121	209.700000
844.508118	192.800000
844.542236	193.700000
844.576294	193.600000
844.610352	188.200000
844.644409	193.100000
844.678406	186.000000
844.712524	200.000000
844.746582	201.100000
844.780640	195.700000
844.814636	195.700000
844.848755	204.600000
844.882751	192.000000
844.916809	200.900000
844.950867	196.100000
844.984863	203.300000
845.018921	193.200000
845.052979	191.400000
845.086975	195.700000
845.121033	189.500000
845.155090	190.300000
845.189087	203.000000
845.223145	191.600000
845.257141	194.300000
845.291199	197.800000
845.325256	203.000000
845.359253	194.700000
845.393250	204.500000
845.427307	193.500000
845.461304	196.200000
845.495361	195.700000
845.529358	206.200000
845.563354	193.100000
845.597412	190.300000
845.631409	202.100000
845.665405	202.800000
845.699463	200.700000
845.733459	194.000000
845.767456	201.100000
845.801453	194.100000
845.835449	201.600000
845.869446	199.600000
845.903503	198.700000
845.937439	191.500000
845.971497	201.900000
846.005493	188.400000
846.039429	198.800000
846.073486	204.200000
846.107483	193.100000
846.141418	194.900000
846.175476	194.100000
846.209473	202.100000
846.243408	190.500000
846.277405	195.400000
846.311401	190.200000
846.345337	194.700000
846.379395	201.500000
846.413330	191.200000
846.447327	202.400000
846.481323	188.500000
846.515259	193.000000
846.549255	195.000000
846.583252	197.100000
846.617187	188.500000
846.651184	197.000000
846.685120	193.400000
846.719055	203.100000
846.753052	199.900000
846.786987	200.400000
846.820984	189.100000
846.854980	202.400000
846.888916	191.000000
846.922852	199.100000
846.956848	204.500000
846.990723	192.600000
847.024719	196.900000
847.058716	194.300000
847.092590	202.400000
847.126587	196.800000
847.160522	192.500000
847.194458	199.600000
847.228455	190.400000
847.262390	189.400000
847.296265	192.900000
847.330261	202.100000
847.364136	192.900000
847.398132	191.600000
847.432068	195.900000
847.466003	193.400000
847.499939	194.100000
847.533875	198.500000
847.567749	192.500000
847.601746	193.300000
847.635681	198.100000
847.669556	187.500000
847.703491	200.400000
847.737427	210.700000
847.771301	190.200000
847.805237	195.900000
847.839233	195.500000
847.873108	193.900000
847.907043	194.700000
847.940918	201.100000
847.974854	196.400000
848.008789	198.000000
848.042664	194.700000
848.076538	196.700000
848.110474	194.700000
848.144348	195.200000
848.178284	188.700000
848.212219	194.600000
848.246094	192.800000
848.279968	196.900000
848.313904	197.400000
848.347778	194.800000
848.381653	194.200000
848.415588	191.000000
848.449463	192.000000
848.483337	196.500000
848.517212	200.300000
848.551086	195.300000
848.585022	191.400000
848.618835	202.600000
848.652771	193.700000
848.686646	191.300000
848.720520	204.900000
848.754395	194.600000
848.788330	200.000000
848.822144	198.700000
848.856018	194.700000
848.889954	204.500000
848.923767	191.000000
848.957642	192.100000
848.991577	199.900000
849.025391	193.300000
849.059265	193.900000
849.093079	192.000000
849.126953	188.900000
849.160828	201.300000
849.194641	195.800000
849.228577	193.600000
849.262451	194.100000
849.296265	193.000000
849.330139	189.500000
849.364014	195.800000
849.397827	198.500000
849.431702	196.300000
849.465515	199.100000
849.499329	186.000000
849.533203	188.300000
849.567078	183.200000
849.600891	196.800000
849.634766	195.100000
849.668518	198.700000
849.702393	195.700000
849.736267	187.100000
849.770020	207.700000
849.803894	198.100000
849.837769	196.600000
849.871521	193.600000
849.905396	201.700000
849.939270	190.600000
849.973022	194.100000
850.006897	197.100000
850.040710	197.500000
850.074524	198.600000
850.108337	193.900000
850.142151	198.400000
850.175964	202.000000
850.209778	194.000000
850.243530	181.400000
850.277405	200.200000
850.311218	196.200000
850.344971	192.200000
850.378845	203.400000
850.412659	193.100000
850.446411	195.300000
850.480225	193.500000
850.514038	200.200000
850.547791	197.200000
850.581665	194.900000
850.615417	192.800000
850.649231	197.500000
850.683044	194.600000
850.716858	193.200000
850.750610	196.300000
850.784424	199.000000
850.818176	192.300000
850.851929	191.800000
850.885742	191.700000
850.919495	193.700000
850.953308	202.600000
850.987122	201.900000
851.020874	190.200000
851.054626	187.700000
851.088440	198.500000
851.122192	197.400000
851.156006	197.300000
851.189697	193.800000
851.223511	189.700000
851.257263	199.100000
851.291077	198.800000
851.324829	192.500000
851.358582	191.200000
851.392334	192.000000
851.426086	193.800000
851.459900	202.100000
851.493591	195.500000
851.527344	195.700000
851.561157	195.100000
851.594849	197.800000
851.628662	196.600000
851.662415	202.300000
851.696106	198.000000
851.729858	200.200000
851.763611	188.600000
851.797363	196.000000
851.831116	191.100000
851.864868	197.900000
851.898560	199.500000
851.932312	194.600000
851.966064	198.200000
851.999817	196.300000
852.033569	194.300000
852.067261	199.900000
852.101013	192.400000
852.134766	195.200000
852.168457	184.700000
852.202209	199.200000
852.235901	190.200000
852.269592	198.100000
852.303345	204.100000
852.337036	199.600000
852.370789	195.200000
852.404541	199.100000
852.438171	190.600000
852.471924	193.900000
852.505676	189.700000
852.539307	197.900000
852.573059	189.800000
852.606812	192.500000
852.640442	193.900000
852.674194	200.600000
852.707886	205.700000
852.741577	203.500000
852.775269	189.200000
852.809021	196.600000
852.842651	198.500000
852.876404	199.400000
852.910034	195.600000
852.943787	201.400000
852.977478	197.800000
853.011108	192.900000
853.044861	190.600000
853.078552	203.300000
853.112183	197.100000
853.145874	198.000000
853.179626	185.000000
853.213257	197.000000
853.246948	191.800000
853.280640	203.600000
853.314270	194.200000
853.347961	202.900000
853.381653	197.600000
853.415283	201.400000
853.448975	192.100000
853.482605	197.300000
853.516296	193.700000
853.549988	190.900000
853.583618	196.600000
853.617310	197.800000
853.651001	197.000000
853.684631	191.600000
853.718323	193.100000
853.751953	203.600000
853.785583	185.000000
853.819275	199.900000
853.852966	195.800000
853.886536	187.300000
853.920227	190.400000
853.953918	200.700000
853.987488	192.700000
854.021179	197.900000
854.054749	202.800000
854.088440	197.800000
854.122131	191.200000
854.155701	199.100000
854.189331	191.800000
854.223022	198.800000
854.256592	198.200000
854.290283	191.000000
854.323914	199.800000
854.357483	196.700000
854.391174	198.300000
854.424744	205.900000
854.458374	196.800000
854.492065	204.900000
854.525696	196.400000
854.559265	200.700000
854.592896	205.500000
854.626465	196.500000
854.660095	197.800000
854.693787	196.200000
854.727356	194.200000
854.760986	199.500000
854.794617	196.500000
854.828186	193.500000
854.861816	199.600000
854.895447	195.500000
854.929016	196.500000
854.962585	197.800000
854.996155	203.500000
855.029785	197.500000
855.063416	198.200000
855.097046	199.000000
855.130615	190.600000
855.164185	201.400000
855.197754	196.100000
855.231384	199.100000
855.264954	195.300000
855.298523	199.900000
855.332153	195.900000
855.365723	205.100000
855.399292	193.400000
855.432922	194.900000
855.466492	198.800000
855.500061	190.200000
855.533630	192.100000
855.567200	198.400000
855.600769	201.500000
855.634338	199.500000
855.667969	197.000000
855.701477	191.500000
855.735046	191.200000
855.768616	186.500000
855.802185	197.400000
855.835754	210.800000
855.869324	187.800000
855.902893	194.800000
855.936401	201.500000
855.969971	196.800000
856.003540	187.400000
856.037109	200.300000
856.070618	194.900000
856.104187	190.300000
856.137695	192.400000
856.171265	186.300000
856.204834	194.800000
856.238403	201.400000
856.271912	191.900000
856.305481	197.600000
856.338989	189.600000
856.372559	198.400000
856.406128	195.800000
856.439636	200.800000
856.473145	193.000000
856.506653	204.200000
856.540222	195.400000
856.573792	202.800000
856.607300	198.700000
856.640808	190.500000
856.674377	196.500000
856.707825	224.700000
856.741394	199.200000
856.774902	192.500000
856.808472	185.900000
856.841980	199.200000
856.875488	205.300000
856.908936	189.900000
856.942505	194.800000
856.976013	194.700000
857.009521	190.300000
857.043030	196.900000
857.076477	194.300000
857.110046	201.900000
857.143555	196.500000
857.177063	201.100000
857.210571	193.400000
857.244080	188.300000
857.277527	198.000000
857.311035	196.200000
857.344543	200.000000
857.378052	195.100000
857.411499	200.900000
857.445068	204.800000
857.478516	195.600000
857.512024	189.500000
857.545532	194.100000
857.578979	198.400000
857.612427	196.500000
857.645874	191.800000
857.679382	198.300000
857.712891	198.300000
857.746399	195.300000
857.779846	201.200000
857.813354	199.400000
857.846741	194.700000
857.880249	191.900000
857.913757	196.900000
857.947266	198.200000
857.980652	198.800000
858.014160	192.800000
858.047546	193.200000
858.081055	194.500000
858.114563	203.500000
858.147949	192.000000
858.181458	200.600000
858.214844	194.700000
858.248352	187.800000
858.281799	200.200000
858.315308	210.000000
858.348694	200.500000
858.382141	204.300000
858.415588	199.700000
858.449036	200.900000
858.482483	198.900000
858.515930	192.100000
858.549377	195.000000
858.582825	202.400000
858.616211	199.100000
858.649658	198.200000
858.683105	191.200000
858.716553	193.200000
858.750000	190.100000
858.783386	193.300000
858.816833	187.900000
858.850281	197.700000
858.883728	198.300000
858.917114	194.600000
858.950562	204.300000
858.983948	204.800000
859.017395	199.400000
859.050781	193.700000
859.084167	190.000000
859.117615	189.000000
859.151062	198.300000
859.184448	191.600000
859.217834	193.500000
859.251282	193.500000
859.284668	190.900000
859.318054	186.500000
859.351440	192.600000
859.384888	202.200000
859.418274	185.900000
859.451721	187.100000
859.485046	198.700000
859.518494	196.900000
859.551819	191.200000
859.585266	198.600000
859.618652	198.600000
859.652039	191.000000
859.685425	190.300000
859.718811	188.500000
859.752197	183.100000
859.785583	203.400000
859.819031	203.800000
859.852356	198.500000
859.885742	191.700000
859.919067	194.200000
859.952454	193.700000
859.985901	201.400000
860.019287	193.100000
860.052612	0.000000
860.085999	0.000000
860.119324	0.000000
860.152710	0.000000
860.186096	0.000000
860.219421	0.000000
860.252808	0.000000
860.286133	0.000000
860.319519	0.000000
860.352905	0.000000
860.386292	0.000000
860.419617	0.000000
860.452942	0.000000
860.486267	0.000000
860.519653	0.000000
860.553040	0.000000
860.586365	0.000000
860.619690	0.000000
860.653076	0.000000
860.686340	0.000000
860.719727	0.000000
860.753113	0.000000
860.786377	0.000000
860.819763	0.000000
860.853027	0.000000
860.886414	0.000000
860.919739	0.000000
860.953125	0.000000
860.986389	0.000000
861.019714	0.000000
861.053040	0.000000
861.086365	0.000000
861.119690	0.000000
861.153076	0.000000
861.186340	0.000000
861.219666	0.000000
861.252930	0.000000
861.286316	0.000000
861.319641	0.000000
861.352905	0.000000
861.386230	0.000000
861.419495	0.000000
861.452820	0.000000
861.486145	0.000000
861.519470	0.000000
861.552734	0.000000
861.586060	0.000000
861.619324	0.000000
861.652649	0.000000
861.685974	0.000000
861.719238	0.000000
861.752563	0.000000
861.785828	0.000000
861.819092	0.000000
861.852417	0.000000
861.885742	0.000000
861.918945	0.000000
861.952271	0.000000
861.985535	0.000000
862.018799	0.000000
862.052124	0.000000
862.085449	0.000000
862.118652	0.000000
862.151978	0.000000
862.185181	0.000000
862.218506	0.000000
862.251770	0.000000
862.285034	0.000000
862.318298	0.000000
862.351562	0.000000
862.384827	0.000000
862.418091	0.000000
862.451355	0.000000
862.484619	0.000000
862.517883	0.000000
862.551086	0.000000
862.584351	0.000000
862.617676	0.000000
862.650940	0.000000
862.684143	0.000000
862.717407	0.000000
862.750610	0.000000
862.783875	0.000000
862.817139	0.000000
862.850342	0.000000
862.883606	0.000000
862.916870	0.000000
862.950073	0.000000
862.983337	0.000000
863.016602	0.000000
863.049805	0.000000
863.083069	0.000000
863.116211	0.000000
863.149475	0.000000
863.182739	0.000000
863.216003	0.000000
863.249146	0.000000
863.282410	0.000000
863.315613	0.000000
863.348816	0.000000
863.382080	0.000000
863.415222	0.000000
863.448486	0.000000
863.481689	0.000000
863.514893	0.000000
863.548157	0.000000
863.581360	0.000000
863.614502	0.000000
863.647766	0.000000
863.680908	0.000000
863.714172	0.000000
863.747375	0.000000
863.780579	0.000000
863.813721	0.000000
863.846985	0.000000
863.880127	0.000000
863.913330	0.000000
863.946533	0.000000
863.979675	0.000000
864.012939	0.000000
