Model Number: SPM-001-M   
Serial Number: 10090201
Firmware Version: 004.17.6
Exposure Time: 500000.000000us
Data Taken on: 10-03-2021 12:28:28.957
Wavelength	Amplitude
733.770752	0.000000
733.808716	0.000000
733.846619	0.000000
733.884583	0.000000
733.922546	0.000000
733.960449	0.000000
733.998413	0.000000
734.036377	0.000000
734.074219	0.000000
734.112183	0.000000
734.150085	0.000000
734.188049	0.000000
734.226013	0.000000
734.263916	0.000000
734.301819	0.000000
734.339783	0.000000
734.377686	0.000000
734.415588	0.000000
734.453552	0.000000
734.491455	0.000000
734.529419	0.000000
734.567322	0.000000
734.605225	0.000000
734.643127	0.000000
734.681091	0.000000
734.718994	0.000000
734.756897	0.000000
734.794800	0.000000
734.832703	0.000000
734.870667	0.000000
734.908508	0.000000
734.946472	0.000000
734.984375	0.000000
735.022278	0.000000
735.060181	0.000000
735.098083	0.000000
735.135986	0.000000
735.173889	0.000000
735.211792	0.000000
735.249695	0.000000
735.287598	0.000000
735.325439	0.000000
735.363403	0.000000
735.401306	0.000000
735.439148	0.000000
735.477051	0.000000
735.515015	0.000000
735.552856	0.000000
735.590759	0.000000
735.628662	0.000000
735.666504	0.000000
735.704407	0.000000
735.742310	0.000000
735.780212	0.000000
735.818115	0.000000
735.856018	0.000000
735.893860	0.000000
735.931763	0.000000
735.969604	0.000000
736.007507	0.000000
736.045410	0.000000
736.083252	0.000000
736.121094	0.000000
736.158997	0.000000
736.196838	0.000000
736.234741	0.000000
736.272644	0.000000
736.310486	0.000000
736.348389	0.000000
736.386230	0.000000
736.424072	0.000000
736.461975	0.000000
736.499878	0.000000
736.537720	0.000000
736.575562	0.000000
736.613403	0.000000
736.651306	0.000000
736.689148	0.000000
736.726990	0.000000
736.764893	0.000000
736.802734	0.000000
736.840576	0.000000
736.878418	0.000000
736.916321	0.000000
736.954102	0.000000
736.992004	0.000000
737.029846	0.000000
737.067688	0.000000
737.105530	0.000000
737.143372	0.000000
737.181213	0.000000
737.219116	0.000000
737.256897	0.000000
737.294739	0.000000
737.332642	0.000000
737.370422	0.000000
737.408325	0.000000
737.446167	0.000000
737.483948	0.000000
737.521790	0.000000
737.559692	0.000000
737.597473	0.000000
737.635315	0.000000
737.673157	0.000000
737.710999	0.000000
737.748840	0.000000
737.786621	0.000000
737.824463	0.000000
737.862305	0.000000
737.900085	0.000000
737.937927	0.000000
737.975769	0.000000
738.013550	0.000000
738.051392	0.000000
738.089233	0.000000
738.127014	0.000000
738.164856	0.000000
738.202698	0.000000
738.240479	0.000000
738.278320	0.000000
738.316162	0.000000
738.353943	0.000000
738.391785	0.000000
738.429565	0.000000
738.467407	0.000000
738.505188	0.000000
738.542969	0.000000
738.580811	0.000000
738.618652	0.000000
738.656372	0.000000
738.694214	0.000000
738.732056	0.000000
738.769836	0.000000
738.807617	0.000000
738.845459	0.000000
738.883240	0.000000
738.921021	0.000000
738.958862	0.000000
738.996582	0.000000
739.034424	0.000000
739.072205	0.000000
739.109985	0.000000
739.147827	0.000000
739.185547	0.000000
739.223389	0.000000
739.261169	0.000000
739.298889	0.000000
739.336731	0.000000
739.374512	0.000000
739.412292	0.000000
739.450073	0.000000
739.487854	0.000000
739.525635	0.000000
739.563416	0.000000
739.601135	0.000000
739.638977	0.000000
739.676758	0.000000
739.714478	0.000000
739.752258	0.000000
739.790100	0.000000
739.827820	0.000000
739.865601	0.000000
739.903381	0.000000
739.941101	0.000000
739.978882	195.800000
740.016724	190.200000
740.054443	197.100000
740.092224	188.900000
740.130005	188.700000
740.167725	188.900000
740.205505	188.200000
740.243225	198.700000
740.281006	192.200000
740.318787	184.100000
740.356506	198.400000
740.394287	197.400000
740.432068	188.200000
740.469727	185.000000
740.507507	196.800000
740.545288	191.900000
740.583008	194.700000
740.620789	192.600000
740.658569	185.200000
740.696228	191.800000
740.734009	198.400000
740.771790	180.400000
740.809509	195.600000
740.847229	187.000000
740.884949	189.100000
740.922729	184.000000
740.960449	189.400000
740.998169	186.800000
741.035950	187.400000
741.073669	194.500000
741.111389	192.300000
741.149170	202.100000
741.186890	204.100000
741.224609	195.800000
741.262329	192.900000
741.300110	202.300000
741.337769	187.700000
741.375549	186.200000
741.413208	193.000000
741.450989	188.400000
741.488708	188.700000
741.526367	190.300000
741.564148	196.300000
741.601868	196.400000
741.639526	191.700000
741.677307	193.300000
741.715027	192.800000
741.752686	189.100000
741.790466	200.200000
741.828186	195.700000
741.865845	187.100000
741.903564	183.300000
741.941345	191.400000
741.979004	190.300000
742.016724	194.200000
742.054382	191.600000
742.092102	197.400000
742.129822	184.500000
742.167480	189.100000
742.205200	189.500000
742.242920	192.700000
742.280640	196.200000
742.318359	187.300000
742.356079	189.700000
742.393738	194.500000
742.431396	192.000000
742.469116	194.200000
742.506775	181.700000
742.544495	194.200000
742.582214	194.600000
742.619873	190.900000
742.657593	198.000000
742.695251	196.400000
742.732971	190.500000
742.770630	193.900000
742.808289	192.000000
742.846008	190.800000
742.883728	194.200000
742.921326	191.600000
742.959045	188.200000
742.996765	192.500000
743.034424	191.000000
743.072083	189.800000
743.109802	191.600000
743.147400	186.100000
743.185120	193.200000
743.222839	191.700000
743.260437	197.400000
743.298157	193.300000
743.335754	183.700000
743.373474	190.200000
743.411133	183.500000
743.448792	192.600000
743.486450	190.300000
743.524170	184.000000
743.561768	192.800000
743.599487	198.200000
743.637146	203.800000
743.674744	191.100000
743.712463	189.000000
743.750122	192.800000
743.787720	193.900000
743.825439	189.300000
743.863037	189.200000
743.900696	191.600000
743.938416	216.500000
743.976013	190.300000
744.013672	199.800000
744.051331	195.300000
744.088928	200.200000
744.126587	198.500000
744.164307	192.700000
744.201904	189.200000
744.239563	194.600000
744.277222	194.600000
744.314819	190.900000
744.352478	199.900000
744.390137	193.300000
744.427734	194.100000
744.465393	188.000000
744.502991	187.700000
744.540649	195.500000
744.578308	194.400000
744.615906	186.900000
744.653564	181.800000
744.691223	196.800000
744.728821	184.900000
744.766418	191.500000
744.804077	194.000000
744.841675	190.100000
744.879333	184.600000
744.916992	191.000000
744.954529	188.400000
744.992187	197.200000
745.029785	189.900000
745.067444	188.600000
745.105042	192.500000
745.142639	195.700000
745.180298	201.100000
745.217896	190.300000
745.255493	189.700000
745.293152	197.000000
745.330750	195.900000
745.368347	201.200000
745.405945	194.900000
745.443604	192.100000
745.481140	196.400000
745.518799	190.300000
745.556396	195.400000
745.593994	195.900000
745.631592	190.900000
745.669189	186.200000
745.706787	193.200000
745.744385	188.300000
745.781982	192.600000
745.819580	190.000000
745.857178	190.300000
745.894775	193.300000
745.932373	191.800000
745.969971	193.400000
746.007568	183.000000
746.045166	200.800000
746.082764	197.000000
746.120300	195.000000
746.157898	195.200000
746.195557	192.700000
746.233093	186.200000
746.270691	195.100000
746.308228	193.100000
746.345825	197.000000
746.383423	195.800000
746.420959	187.400000
746.458557	189.100000
746.496155	189.000000
746.533691	191.400000
746.571289	185.600000
746.608887	192.300000
746.646423	193.600000
746.684021	192.600000
746.721619	190.000000
746.759155	193.600000
746.796753	185.200000
746.834351	186.400000
746.871826	188.900000
746.909424	199.900000
746.946960	193.500000
746.984558	190.300000
747.022156	190.600000
747.059631	200.900000
747.097229	194.000000
747.134827	190.500000
747.172363	199.800000
747.209900	194.200000
747.247498	186.400000
747.285034	199.300000
747.322571	199.600000
747.360168	191.800000
747.397644	185.800000
747.435242	195.400000
747.472778	199.700000
747.510315	189.700000
747.547913	190.000000
747.585388	199.100000
747.622925	191.100000
747.660522	183.000000
747.697998	188.000000
747.735596	190.900000
747.773132	189.100000
747.810669	191.700000
747.848206	195.800000
747.885742	186.600000
747.923279	185.600000
747.960815	193.900000
747.998352	192.100000
748.035889	196.400000
748.073425	197.600000
748.110901	188.700000
748.148437	188.000000
748.185974	192.800000
748.223511	202.100000
748.261047	194.000000
748.298584	194.000000
748.336060	192.200000
748.373596	194.100000
748.411133	210.100000
748.448608	188.900000
748.486145	196.400000
748.523682	198.700000
748.561218	198.300000
748.598755	193.400000
748.636292	194.800000
748.673706	189.700000
748.711243	198.100000
748.748718	194.400000
748.786255	191.400000
748.823792	191.700000
748.861267	186.600000
748.898804	194.800000
748.936340	194.700000
748.973816	190.800000
749.011292	197.200000
749.048828	193.800000
749.086304	194.800000
749.123840	204.200000
749.161316	187.500000
749.198792	203.200000
749.236328	198.200000
749.273743	193.400000
749.311279	190.800000
749.348816	194.700000
749.386230	193.000000
749.423767	180.600000
749.461304	194.800000
749.498718	194.100000
749.536255	200.500000
749.573730	204.200000
749.611206	197.200000
749.648682	191.000000
749.686218	191.400000
749.723633	197.300000
749.761169	190.100000
749.798645	188.200000
749.836060	190.000000
749.873596	189.700000
749.911011	191.400000
749.948547	199.200000
749.986023	191.100000
750.023437	192.300000
750.060913	185.900000
750.098450	185.900000
750.135864	192.300000
750.173340	193.000000
750.210815	197.500000
750.248291	186.000000
750.285767	192.900000
750.323242	198.700000
750.360657	194.900000
750.398132	186.300000
750.435608	196.900000
750.473022	187.900000
750.510498	187.700000
750.547974	188.200000
750.585449	191.500000
750.622925	180.200000
750.660339	203.300000
750.697815	191.900000
750.735291	191.700000
750.772644	192.400000
750.810120	194.000000
750.847595	194.000000
750.885010	187.800000
750.922485	200.500000
750.959961	191.900000
750.997375	198.800000
751.034851	196.300000
751.072266	198.700000
751.109680	184.900000
751.147156	198.400000
751.184570	195.600000
751.221985	193.500000
751.259460	182.800000
751.296875	191.800000
751.334290	193.800000
751.371765	197.500000
751.409180	196.900000
751.446594	198.600000
751.484070	194.900000
751.521423	194.900000
751.558899	194.100000
751.596375	199.600000
751.633728	198.800000
751.671204	205.700000
751.708618	187.500000
751.746033	192.800000
751.783447	186.000000
751.820801	188.600000
751.858276	194.900000
751.895691	191.400000
751.933105	190.100000
751.970520	187.400000
752.007935	189.000000
752.045349	196.700000
752.082764	191.200000
752.120178	191.900000
752.157532	187.800000
752.195007	190.100000
752.232422	195.200000
752.269775	198.200000
752.307190	194.900000
752.344543	189.100000
752.382019	191.000000
752.419434	191.200000
752.456787	194.500000
752.494202	197.400000
752.531616	194.100000
752.568970	198.300000
752.606384	192.400000
752.643799	194.200000
752.681152	199.700000
752.718567	195.500000
752.755981	184.500000
752.793335	196.500000
752.830750	183.600000
752.868164	199.000000
752.905518	186.500000
752.942932	195.700000
752.980225	186.500000
753.017639	197.200000
753.055054	190.200000
753.092407	195.600000
753.129822	198.700000
753.167175	202.800000
753.204529	192.200000
753.241943	189.800000
753.279358	186.400000
753.316650	196.500000
753.354065	194.300000
753.391479	198.000000
753.428772	202.500000
753.466187	196.600000
753.503479	186.200000
753.540894	192.000000
753.578308	186.800000
753.615601	187.600000
753.653015	191.900000
753.690369	190.800000
753.727722	186.600000
753.765076	186.500000
753.802490	188.100000
753.839783	183.600000
753.877136	190.500000
753.914551	206.400000
753.951843	187.800000
753.989258	195.100000
754.026611	195.100000
754.063904	195.700000
754.101257	188.700000
754.138611	183.600000
754.175964	193.700000
754.213318	203.800000
754.250610	186.400000
754.288025	189.200000
754.325378	187.200000
754.362671	198.800000
754.400024	191.300000
754.437378	201.400000
754.474670	203.000000
754.512085	188.900000
754.549438	192.700000
754.586731	190.500000
754.624084	192.600000
754.661438	187.000000
754.698730	200.200000
754.736084	189.100000
754.773376	191.600000
754.810730	194.500000
754.848083	191.200000
754.885315	197.900000
754.922668	184.500000
754.960022	187.200000
754.997314	198.300000
755.034668	193.300000
755.072021	194.800000
755.109253	191.200000
755.146606	201.500000
755.183960	191.100000
755.221252	202.900000
755.258545	198.400000
755.295898	200.300000
755.333191	201.800000
755.370544	197.800000
755.407776	193.900000
755.445129	194.800000
755.482422	200.300000
755.519714	191.800000
755.557068	187.200000
755.594360	184.300000
755.631653	199.500000
755.668945	204.700000
755.706299	197.600000
755.743530	207.400000
755.780884	203.600000
755.818176	201.000000
755.855408	201.800000
755.892761	198.200000
755.930054	197.500000
755.967346	198.500000
756.004639	202.600000
756.041870	196.900000
756.079224	202.600000
756.116516	192.700000
756.153748	201.900000
756.191040	204.400000
756.228394	200.800000
756.265625	193.900000
756.302917	199.600000
756.340210	194.900000
756.377441	204.600000
756.414795	205.800000
756.452087	199.700000
756.489319	192.100000
756.526611	201.700000
756.563843	198.900000
756.601135	210.300000
756.638428	207.500000
756.675659	198.700000
756.712952	203.300000
756.750244	204.200000
756.787476	200.600000
756.824768	207.900000
756.862061	197.700000
756.899292	247.800000
756.936584	205.700000
756.973816	212.700000
757.011047	213.600000
757.048340	202.600000
757.085632	201.800000
757.122864	217.800000
757.160156	199.900000
757.197327	205.200000
757.234619	207.200000
757.271912	201.700000
757.309082	209.200000
757.346375	199.800000
757.383667	209.400000
757.420837	204.200000
757.458130	205.900000
757.495422	202.300000
757.532593	206.300000
757.569885	196.200000
757.607117	200.700000
757.644348	205.200000
757.681580	217.700000
757.718811	193.500000
757.756042	204.400000
757.793335	202.800000
757.830505	208.300000
757.867798	201.600000
757.905029	203.200000
757.942200	208.400000
757.979492	202.400000
758.016724	203.200000
758.053894	202.600000
758.091187	223.000000
758.128418	207.200000
758.165588	205.000000
758.202820	218.700000
758.240112	206.800000
758.277283	218.300000
758.314514	207.700000
758.351685	205.400000
758.388916	216.800000
758.426147	216.300000
758.463379	217.300000
758.500610	211.800000
758.537842	209.100000
758.575012	216.500000
758.612244	203.700000
758.649475	223.100000
758.686646	202.000000
758.723877	216.100000
758.761108	217.800000
758.798279	209.800000
758.835510	212.600000
758.872742	217.000000
758.909851	212.100000
758.947083	214.500000
758.984253	213.900000
759.021484	217.200000
759.058716	217.200000
759.095886	216.800000
759.133057	212.300000
759.170288	214.600000
759.207458	209.100000
759.244690	225.800000
759.281860	224.700000
759.319031	212.400000
759.356262	211.800000
759.393433	212.200000
759.430603	212.900000
759.467773	212.000000
759.505005	220.200000
759.542175	219.200000
759.579346	213.500000
759.616516	214.400000
759.653687	217.200000
759.690918	210.600000
759.728027	216.400000
759.765259	215.100000
759.802429	219.200000
759.839539	216.600000
759.876770	221.100000
759.913940	225.600000
759.951111	216.400000
759.988281	217.000000
760.025452	214.600000
760.062561	212.600000
760.099792	228.000000
760.136963	221.400000
760.174072	216.700000
760.211243	210.700000
760.248413	213.200000
760.285583	213.400000
760.322754	228.700000
760.359863	223.800000
760.397034	225.100000
760.434204	217.100000
760.471375	217.900000
760.508545	217.800000
760.545715	218.900000
760.582825	214.500000
760.619995	225.800000
760.657166	213.000000
760.694275	225.000000
760.731445	222.100000
760.768555	224.000000
760.805664	224.200000
760.842834	223.200000
760.879944	223.500000
760.917114	224.900000
760.954285	223.000000
760.991394	217.200000
761.028564	228.000000
761.065674	226.400000
761.102783	219.300000
761.139954	229.600000
761.177124	228.900000
761.214172	230.500000
761.251343	223.600000
761.288452	225.900000
761.325562	229.900000
761.362732	222.000000
761.399841	225.800000
761.436951	228.300000
761.474121	225.000000
761.511169	228.700000
761.548340	234.500000
761.585449	232.600000
761.622559	235.200000
761.659668	232.500000
761.696838	238.800000
761.733887	233.200000
761.771057	231.700000
761.808167	231.700000
761.845276	239.100000
761.882385	247.500000
761.919434	236.500000
761.956604	254.300000
761.993713	232.600000
762.030762	244.200000
762.067871	238.800000
762.105042	235.300000
762.142090	244.200000
762.179199	239.500000
762.216309	243.000000
762.253418	254.300000
762.290527	249.500000
762.327637	247.200000
762.364685	234.800000
762.401794	244.900000
762.438904	244.300000
762.475952	238.500000
762.513062	237.000000
762.550110	238.400000
762.587219	255.000000
762.624329	252.500000
762.661377	247.400000
762.698486	247.100000
762.735596	246.300000
762.772644	239.200000
762.809753	236.700000
762.846863	246.100000
762.883911	250.500000
762.921021	249.300000
762.958069	247.800000
762.995117	256.800000
763.032227	258.200000
763.069336	250.400000
763.106323	243.900000
763.143433	242.800000
763.180481	252.000000
763.217590	253.700000
763.254639	248.600000
763.291687	251.900000
763.328735	258.100000
763.365845	251.400000
763.402893	249.700000
763.439941	254.800000
763.477051	258.100000
763.514038	259.400000
763.551147	252.700000
763.588196	256.100000
763.625244	253.900000
763.662292	263.000000
763.699402	267.100000
763.736389	262.700000
763.773499	271.100000
763.810486	265.000000
763.847534	260.500000
763.884644	265.400000
763.921631	260.900000
763.958679	272.200000
763.995728	260.300000
764.032776	270.300000
764.069824	257.200000
764.106873	266.100000
764.143860	274.200000
764.180969	265.200000
764.218018	275.000000
764.255005	266.100000
764.292053	268.100000
764.329102	278.400000
764.366089	280.500000
764.403137	277.200000
764.440125	267.300000
764.477173	271.600000
764.514221	273.400000
764.551208	271.200000
764.588257	266.900000
764.625305	278.600000
764.662292	284.100000
764.699341	287.100000
764.736389	279.100000
764.773376	296.100000
764.810425	283.400000
764.847473	289.000000
764.884399	284.100000
764.921448	292.400000
764.958435	291.000000
764.995483	278.900000
765.032532	297.200000
765.069458	280.300000
765.106506	283.200000
765.143555	280.100000
765.180481	286.900000
765.217529	294.900000
765.254578	279.900000
765.291504	291.600000
765.328552	286.600000
765.365540	283.400000
765.402527	299.900000
765.439575	285.400000
765.476501	280.800000
765.513550	281.000000
765.550537	288.300000
765.587463	295.300000
765.624512	285.800000
765.661499	280.200000
765.698486	297.300000
765.735474	286.700000
765.772461	290.200000
765.809448	296.700000
765.846436	296.000000
765.883423	299.600000
765.920410	295.500000
765.957397	291.200000
765.994385	297.300000
766.031311	305.500000
766.068359	297.000000
766.105286	297.900000
766.142273	306.000000
766.179260	301.500000
766.216187	293.000000
766.253174	291.200000
766.290161	302.100000
766.327148	304.800000
766.364136	303.800000
766.401123	321.500000
766.438049	299.200000
766.475037	313.000000
766.512024	308.300000
766.548950	326.200000
766.585937	317.600000
766.622864	315.700000
766.659790	312.600000
766.696777	303.700000
766.733704	320.500000
766.770691	311.100000
766.807678	325.700000
766.844604	321.900000
766.881531	321.800000
766.918518	329.800000
766.955444	329.800000
766.992432	323.200000
767.029358	326.000000
767.066284	329.800000
767.103271	328.500000
767.140198	357.400000
767.177124	346.600000
767.214050	336.900000
767.251038	336.900000
767.287964	334.400000
767.324890	329.900000
767.361816	337.100000
767.398743	344.700000
767.435730	338.300000
767.472595	342.800000
767.509583	349.900000
767.546509	336.500000
767.583374	345.000000
767.620361	339.400000
767.657288	345.300000
767.694214	345.100000
767.731140	344.700000
767.768066	346.400000
767.804993	353.600000
767.841919	342.700000
767.878845	350.800000
767.915710	360.500000
767.952698	354.300000
767.989563	357.300000
768.026489	357.800000
768.063416	352.000000
768.100281	353.500000
768.137207	369.600000
768.174133	365.100000
768.211060	367.400000
768.247986	362.800000
768.284912	362.500000
768.321777	366.300000
768.358704	366.000000
768.395630	367.300000
768.432495	362.700000
768.469421	370.100000
768.506348	375.700000
768.543152	381.500000
768.580078	380.800000
768.616943	381.600000
768.653870	381.400000
768.690796	383.700000
768.727661	380.900000
768.764587	382.400000
768.801453	377.500000
768.838318	387.700000
768.875244	386.900000
768.912109	392.400000
768.948975	386.400000
768.985901	390.200000
769.022766	391.600000
769.059631	396.400000
769.096558	389.600000
769.133362	392.100000
769.170288	392.300000
769.207214	394.600000
769.244019	400.200000
769.280945	402.000000
769.317810	408.300000
769.354675	401.100000
769.391541	409.200000
769.428406	408.800000
769.465271	419.200000
769.502136	407.700000
769.539062	412.800000
769.575867	410.300000
769.612732	413.100000
769.649597	421.800000
769.686462	423.400000
769.723328	419.300000
769.760193	415.200000
769.797058	419.600000
769.833923	429.200000
769.870728	424.400000
769.907593	428.300000
769.944519	428.600000
769.981323	428.400000
770.018188	430.900000
770.055054	426.000000
770.091858	427.600000
770.128723	442.100000
770.165588	446.500000
770.202393	428.800000
770.239258	445.500000
770.276062	440.700000
770.312927	440.400000
770.349792	446.500000
770.386597	444.200000
770.423462	454.200000
770.460327	463.800000
770.497131	442.100000
770.533997	439.300000
770.570862	457.700000
770.607605	458.100000
770.644470	450.400000
770.681335	452.900000
770.718140	453.700000
770.754944	446.100000
770.791809	444.900000
770.828613	448.000000
770.865479	449.000000
770.902222	463.900000
770.939087	453.000000
770.975952	445.600000
771.012695	450.700000
771.049561	468.600000
771.086365	453.000000
771.123169	453.100000
771.159973	456.200000
771.196838	456.200000
771.233582	458.600000
771.270447	459.700000
771.307251	462.900000
771.344055	460.000000
771.380859	464.600000
771.417664	456.300000
771.454468	467.100000
771.491272	466.900000
771.528076	465.200000
771.564880	465.600000
771.601685	474.900000
771.638428	464.700000
771.675293	474.900000
771.712097	464.600000
771.748840	483.800000
771.785645	473.900000
771.822449	480.500000
771.859253	485.600000
771.896057	478.700000
771.932861	492.400000
771.969604	480.300000
772.006409	474.400000
772.043213	491.800000
772.079956	488.100000
772.116760	481.800000
772.153503	482.200000
772.190308	494.700000
772.227112	486.300000
772.263855	481.200000
772.300659	488.900000
772.337463	500.400000
772.374207	487.700000
772.411011	487.700000
772.447754	494.000000
772.484497	511.500000
772.521301	503.900000
772.558105	499.400000
772.594849	504.100000
772.631592	511.300000
772.668396	508.300000
772.705139	519.800000
772.741882	520.600000
772.778625	532.000000
772.815430	532.900000
772.852173	527.900000
772.888916	534.100000
772.925720	539.400000
772.962463	549.900000
772.999207	542.400000
773.035950	547.700000
773.072754	549.000000
773.109436	543.500000
773.146240	547.700000
773.182922	546.400000
773.219727	556.800000
773.256470	550.100000
773.293152	540.800000
773.329956	546.700000
773.366699	554.200000
773.403381	547.000000
773.440186	556.200000
773.476929	560.800000
773.513611	553.400000
773.550354	557.800000
773.587158	561.200000
773.623840	556.000000
773.660583	566.500000
773.697327	581.900000
773.734009	567.900000
773.770813	567.500000
773.807495	567.300000
773.844238	572.300000
773.880981	590.800000
773.917664	588.600000
773.954407	593.900000
773.991150	584.900000
774.027832	588.500000
774.064575	582.600000
774.101318	591.700000
774.138000	604.000000
774.174744	592.900000
774.211487	595.000000
774.248108	582.800000
774.284851	591.000000
774.321594	602.400000
774.358276	607.900000
774.395020	614.900000
774.431702	616.300000
774.468384	606.300000
774.505127	604.100000
774.541809	617.800000
774.578491	631.400000
774.615234	635.900000
774.651917	625.200000
774.688599	627.500000
774.725342	636.700000
774.762024	634.100000
774.798706	642.800000
774.835449	641.000000
774.872070	648.700000
774.908813	645.800000
774.945496	641.500000
774.982178	644.900000
775.018860	650.500000
775.055542	652.000000
775.092224	652.500000
775.128967	660.100000
775.165588	656.600000
775.202271	651.100000
775.239014	663.100000
775.275635	665.100000
775.312317	663.300000
775.349060	667.200000
775.385681	664.500000
775.422363	658.100000
775.459045	670.200000
775.495667	675.700000
775.532410	677.400000
775.569092	678.700000
775.605713	674.700000
775.642395	673.200000
775.679016	680.600000
775.715698	685.800000
775.752380	688.800000
775.789001	680.700000
775.825684	679.000000
775.862366	681.200000
775.898987	692.200000
775.935669	687.600000
775.972351	709.400000
776.008972	706.000000
776.045654	705.000000
776.082336	693.500000
776.118958	695.000000
776.155640	702.400000
776.192322	709.100000
776.228882	710.100000
776.265564	714.100000
776.302185	709.600000
776.338867	714.000000
776.375488	702.900000
776.412109	716.400000
776.448792	723.200000
776.485413	728.200000
776.522034	711.600000
776.558716	710.600000
776.595337	710.200000
776.631958	714.200000
776.668579	716.800000
776.705261	725.600000
776.741882	717.100000
776.778503	713.300000
776.815186	707.200000
776.851746	716.200000
776.888367	719.700000
776.924988	733.800000
776.961609	718.000000
776.998291	717.800000
777.034851	710.000000
777.071472	723.000000
777.108154	720.900000
777.144714	731.800000
777.181335	730.900000
777.218018	723.900000
777.254578	726.900000
777.291199	727.400000
777.327759	734.800000
777.364380	745.200000
777.401062	753.000000
777.437622	762.700000
777.474243	746.100000
777.510864	757.900000
777.547424	752.300000
777.584045	759.400000
777.620667	761.400000
777.657227	771.500000
777.693848	769.900000
777.730469	785.100000
777.767029	778.100000
777.803650	781.000000
777.840271	770.200000
777.876831	773.300000
777.913452	778.400000
777.950012	758.100000
777.986633	763.500000
778.023193	758.200000
778.059753	762.100000
778.096375	765.300000
778.132996	781.500000
778.169556	765.700000
778.206116	766.400000
778.242737	769.700000
778.279297	778.000000
778.315857	768.500000
778.352478	779.300000
778.389038	789.700000
778.425598	793.300000
778.462219	803.800000
778.498718	796.100000
778.535339	807.900000
778.571838	814.400000
778.608459	818.200000
778.645020	814.800000
778.681580	825.600000
778.718140	829.000000
778.754761	821.300000
778.791260	829.200000
778.827881	842.900000
778.864441	833.000000
778.900940	837.900000
778.937561	843.500000
778.974121	843.400000
779.010620	827.200000
779.047241	834.600000
779.083801	844.100000
779.120300	843.500000
779.156860	851.800000
779.193359	850.200000
779.229980	850.600000
779.266541	853.900000
779.303040	864.000000
779.339600	851.000000
779.376160	848.100000
779.412659	855.800000
779.449219	855.800000
779.485779	864.600000
779.522278	862.600000
779.558838	869.700000
779.595398	869.700000
779.631897	871.200000
779.668457	863.800000
779.705017	876.700000
779.741516	875.700000
779.778076	862.600000
779.814575	870.800000
779.851074	883.700000
779.887634	880.800000
779.924133	886.600000
779.960693	875.000000
779.997253	889.000000
780.033691	893.800000
780.070251	898.200000
780.106812	906.300000
780.143250	900.900000
780.179810	895.200000
780.216370	908.100000
780.252808	916.800000
780.289368	930.800000
780.325867	926.300000
780.362366	924.300000
780.398865	938.700000
780.435364	928.800000
780.471863	941.500000
780.508423	941.900000
780.544861	953.500000
780.581421	961.000000
780.617920	941.200000
780.654419	939.700000
780.690918	950.800000
780.727417	963.700000
780.763916	960.600000
780.800415	969.000000
780.836914	943.400000
780.873352	952.400000
780.909912	943.800000
780.946411	953.100000
780.982849	967.400000
781.019348	982.100000
781.055786	979.100000
781.092346	970.200000
781.128845	978.700000
781.165283	988.500000
781.201782	989.600000
781.238281	995.600000
781.274719	1005.400000
781.311218	994.800000
781.347717	1007.800000
781.384155	991.300000
781.420654	992.600000
781.457092	1007.300000
781.493591	1005.000000
781.530090	994.400000
781.566528	998.100000
781.602966	998.900000
781.639465	1001.000000
781.675903	993.700000
781.712402	1012.000000
781.748901	1014.500000
781.785278	1004.500000
781.821777	1012.400000
781.858276	1010.200000
781.894714	1024.200000
781.931152	1012.900000
781.967651	1020.400000
782.004089	1015.500000
782.040527	1025.600000
782.076965	1023.000000
782.113403	1024.000000
782.149902	1026.900000
782.186340	1022.100000
782.222778	1038.900000
782.259277	1014.400000
782.295654	1015.300000
782.332092	1024.400000
782.368591	1019.000000
782.404968	1012.800000
782.441467	1016.000000
782.477905	1017.100000
782.514282	1011.800000
782.550781	1035.600000
782.587219	1032.700000
782.623596	1038.300000
782.660095	1037.400000
782.696472	1047.900000
782.732910	1047.400000
782.769348	1050.900000
782.805786	1072.500000
782.842224	1067.100000
782.878662	1054.700000
782.915039	1055.700000
782.951477	1053.500000
782.987915	1047.800000
783.024292	1059.400000
783.060730	1056.700000
783.097168	1041.000000
783.133545	1032.000000
783.169983	1028.200000
783.206421	1022.700000
783.242798	1025.600000
783.279236	1005.400000
783.315613	1007.800000
783.352051	1003.200000
783.388489	993.500000
783.424866	979.600000
783.461304	986.400000
783.497681	993.400000
783.534058	989.800000
783.570496	979.300000
783.606934	969.200000
783.643250	967.000000
783.679687	955.100000
783.716125	900.900000
783.752441	844.000000
783.788879	777.500000
783.825317	683.700000
783.861633	592.800000
783.898071	508.900000
783.934448	466.200000
783.970825	444.200000
784.007263	460.900000
784.043579	521.100000
784.080017	608.800000
784.116394	701.700000
784.152710	804.500000
784.189148	898.300000
784.225525	964.100000
784.261902	998.600000
784.298279	1035.000000
784.334656	1061.200000
784.371033	1065.400000
784.407410	1076.900000
784.443787	1070.800000
784.480164	1049.500000
784.516541	1036.200000
784.552856	1037.400000
784.589233	1025.200000
784.625610	1022.400000
784.661987	1065.400000
784.698364	1047.900000
784.734741	1035.700000
784.771057	1040.100000
784.807434	1043.200000
784.843811	1064.700000
784.880127	1063.600000
784.916504	1096.700000
784.952881	1093.700000
784.989197	1094.600000
785.025574	1099.000000
785.061951	1106.700000
785.098267	1130.700000
785.134644	1133.400000
785.170959	1134.400000
785.207275	1147.400000
785.243652	1137.600000
785.279968	1125.000000
785.316345	1130.800000
785.352722	1136.100000
785.388977	1131.800000
785.425354	1114.100000
785.461731	1091.700000
785.498047	1081.500000
785.534363	1078.900000
785.570679	1080.400000
785.606995	1087.000000
785.643372	1086.600000
785.679687	1076.100000
785.716003	1062.000000
785.752380	1064.200000
785.788635	1070.700000
785.825012	1098.000000
785.861328	1103.500000
785.897644	1081.200000
785.933960	1096.000000
785.970337	1101.200000
786.006592	1128.100000
786.042908	1135.000000
786.079285	1156.400000
786.115540	1167.000000
786.151855	1166.900000
786.188171	1156.200000
786.224487	1155.200000
786.260803	1154.400000
786.297119	1182.200000
786.333435	1179.800000
786.369751	1170.400000
786.406006	1169.800000
786.442322	1153.100000
786.478638	1142.900000
786.514954	1161.700000
786.551270	1162.900000
786.587585	1176.000000
786.623840	1159.700000
786.660156	1151.500000
786.696472	1136.700000
786.732727	1134.900000
786.769043	1136.400000
786.805298	1129.500000
786.841614	1130.600000
786.877930	1137.700000
786.914124	1115.500000
786.950439	1131.500000
786.986755	1149.500000
787.023010	1157.800000
787.059326	1167.400000
787.095642	1168.600000
787.131836	1185.600000
787.168152	1169.600000
787.204468	1177.000000
787.240723	1196.100000
787.276978	1209.700000
787.313293	1214.300000
787.349548	1208.000000
787.385803	1222.200000
787.422058	1209.900000
787.458313	1208.600000
787.494629	1210.500000
787.530823	1210.900000
787.567139	1197.300000
787.603455	1191.100000
787.639648	1172.400000
787.675903	1175.800000
787.712219	1176.000000
787.748413	1173.400000
787.784729	1178.400000
787.820984	1168.200000
787.857178	1153.500000
787.893494	1151.200000
787.929749	1148.100000
787.965942	1148.800000
788.002258	1170.200000
788.038452	1180.100000
788.074707	1163.100000
788.110962	1171.500000
788.147217	1160.400000
788.183472	1173.000000
788.219727	1182.100000
788.255920	1196.100000
788.292175	1212.900000
788.328430	1203.000000
788.364624	1187.900000
788.400879	1172.400000
788.437134	1184.400000
788.473328	1178.700000
788.509583	1185.800000
788.545837	1175.900000
788.582031	1169.500000
788.618286	1157.600000
788.654480	1151.200000
788.690735	1158.300000
788.726990	1180.700000
788.763184	1179.900000
788.799377	1193.700000
788.835632	1174.600000
788.871826	1194.000000
788.908081	1193.700000
788.944336	1196.500000
788.980469	1216.800000
789.016724	1208.000000
789.052979	1209.200000
789.089111	1184.100000
789.125366	1186.300000
789.161621	1174.900000
789.197754	1185.900000
789.234009	1182.300000
789.270142	1157.700000
789.306396	1146.900000
789.342590	1137.600000
789.378784	1110.600000
789.414978	1111.800000
789.451233	1129.800000
789.487366	1133.100000
789.523621	1143.400000
789.559814	1131.100000
789.595947	1117.400000
789.632202	1126.100000
789.668335	1139.000000
789.704529	1161.300000
789.740784	1179.100000
789.776917	1179.300000
789.813110	1167.500000
789.849304	1184.700000
789.885498	1184.600000
789.921692	1205.800000
789.957886	1209.500000
789.994019	1211.200000
790.030212	1200.100000
790.066406	1193.100000
790.102539	1193.400000
790.138733	1203.900000
790.174927	1195.800000
790.211060	1215.300000
790.247253	1200.500000
790.283386	1186.000000
790.319580	1170.000000
790.355774	1152.200000
790.391907	1157.800000
790.428101	1185.500000
790.464294	1188.200000
790.500427	1186.500000
790.536621	1168.600000
790.572754	1150.000000
790.608887	1155.900000
790.645081	1167.000000
790.681274	1181.900000
790.717346	1180.200000
790.753540	1145.500000
790.789734	1073.900000
790.825867	1021.000000
790.862000	1018.800000
790.898132	1064.800000
790.934265	1115.000000
790.970459	1172.200000
791.006592	1194.500000
791.042725	1200.800000
791.078918	1190.900000
791.114990	1196.600000
791.151184	1213.600000
791.187317	1236.600000
791.223389	1225.600000
791.259583	1209.600000
791.295715	1213.500000
791.331848	1215.900000
791.367981	1231.000000
791.404114	1236.000000
791.440247	1228.100000
791.476379	1231.300000
791.512451	1214.200000
791.548584	1214.000000
791.584778	1209.400000
791.620850	1230.700000
791.656982	1241.600000
791.693115	1232.100000
791.729187	1224.800000
791.765381	1211.000000
791.801514	1213.100000
791.837585	1212.800000
791.873718	1223.100000
791.909851	1239.700000
791.945923	1247.200000
791.982056	1206.900000
792.018188	1201.900000
792.054260	1208.700000
792.090393	1210.500000
792.126465	1202.800000
792.162598	1213.200000
792.198669	1195.100000
792.234741	1192.900000
792.270874	1184.500000
792.307007	1166.700000
792.343079	1186.600000
792.379150	1196.900000
792.415283	1176.000000
792.451355	1181.100000
792.487488	1156.200000
792.523560	1157.400000
792.559631	1158.100000
792.595764	1158.300000
792.631836	1164.700000
792.667908	1173.400000
792.703979	1154.300000
792.740051	1155.900000
792.776184	1154.100000
792.812256	1160.500000
792.848328	1169.100000
792.884399	1178.300000
792.920471	1164.100000
792.956543	1157.300000
792.992615	1159.900000
793.028748	1155.800000
793.064758	1170.700000
793.100830	1187.400000
793.136963	1199.000000
793.172974	1187.600000
793.209045	1183.700000
793.245178	1198.200000
793.281189	1174.100000
793.317261	1181.000000
793.353271	1186.700000
793.389404	1199.000000
793.425476	1183.700000
793.461487	1172.300000
793.497559	1163.800000
793.533630	1175.200000
793.569641	1174.500000
793.605713	1178.600000
793.641785	1184.400000
793.677795	1191.100000
793.713867	1173.300000
793.749878	1177.000000
793.785950	1189.900000
793.822021	1204.200000
793.858032	1188.800000
793.894104	1198.200000
793.930176	1180.300000
793.966187	1187.700000
794.002258	1170.300000
794.038269	1170.200000
794.074280	1170.100000
794.110352	1192.800000
794.146423	1168.600000
794.182373	1163.500000
794.218445	1149.700000
794.254517	1141.000000
794.290466	1132.700000
794.326538	1146.000000
794.362549	1138.900000
794.398560	1139.900000
794.434631	1144.500000
794.470581	1118.300000
794.506653	1108.200000
794.542664	1111.800000
794.578674	1114.100000
794.614685	1107.100000
794.650757	1102.300000
794.686707	1097.000000
794.722778	1081.900000
794.758789	1097.200000
794.794739	1106.700000
794.830811	1130.400000
794.866821	1141.100000
794.902771	1139.800000
794.938843	1130.800000
794.974792	1119.800000
795.010803	1122.600000
795.046814	1123.600000
795.082825	1109.200000
795.118835	1118.600000
795.154846	1101.800000
795.190796	1105.900000
795.226807	1083.800000
795.262817	1093.300000
795.298767	1090.600000
795.334778	1089.400000
795.370850	1083.700000
795.406799	1082.900000
795.442810	1061.700000
795.478821	1060.500000
795.514709	1061.200000
795.550720	1084.900000
795.586670	1063.900000
795.622681	1070.400000
795.658691	1058.500000
795.694641	1055.800000
795.730652	1044.700000
795.766663	1051.600000
795.802551	1055.200000
795.838562	1074.600000
795.874573	1057.400000
795.910522	1057.800000
795.946472	1040.900000
795.982483	1051.600000
796.018433	1054.200000
796.054382	1054.500000
796.090393	1046.900000
796.126282	1039.800000
796.162292	1021.800000
796.198242	1019.600000
796.234192	1024.900000
796.270203	1023.600000
796.306091	1031.200000
796.342041	1041.800000
796.378052	1022.600000
796.413940	1018.300000
796.449951	1023.600000
796.485901	1024.900000
796.521790	1027.000000
796.557800	1043.400000
796.593689	1042.100000
796.629639	1025.100000
796.665649	1020.900000
796.701599	1020.200000
796.737488	1021.800000
796.773437	1021.700000
796.809387	1023.400000
796.845337	1019.000000
796.881287	1008.400000
796.917175	987.600000
796.953125	992.000000
796.989075	1004.900000
797.024963	1013.400000
797.060913	1006.500000
797.096863	1005.500000
797.132751	999.100000
797.168701	983.200000
797.204590	988.400000
797.240540	991.300000
797.276489	997.000000
797.312439	1008.400000
797.348328	997.700000
797.384277	978.900000
797.420166	973.900000
797.456055	975.500000
797.492004	974.600000
797.527893	985.700000
797.563843	983.900000
797.599731	968.000000
797.635620	957.400000
797.671570	965.200000
797.707520	960.400000
797.743347	965.800000
797.779297	976.900000
797.815125	973.700000
797.851074	961.700000
797.887024	953.800000
797.922913	945.400000
797.958801	962.400000
797.994690	951.700000
798.030579	959.600000
798.066467	955.400000
798.102356	945.100000
798.138245	937.200000
798.174133	933.000000
798.210083	942.400000
798.245911	952.200000
798.281799	948.500000
798.317749	945.100000
798.353577	939.400000
798.389465	938.300000
798.425293	935.800000
798.461243	930.900000
798.497131	935.100000
798.532959	932.200000
798.568848	935.700000
798.604736	920.900000
798.640564	911.700000
798.676453	919.700000
798.712402	922.600000
798.748230	926.300000
798.784119	919.700000
798.820007	923.000000
798.855835	917.600000
798.891724	913.800000
798.927551	904.500000
798.963379	916.200000
798.999268	909.900000
799.035095	908.400000
799.070984	898.300000
799.106873	888.800000
799.142700	901.100000
799.178528	892.800000
799.214417	892.600000
799.250244	906.800000
799.286133	897.800000
799.321960	890.600000
799.357788	882.300000
799.393677	886.300000
799.429504	887.300000
799.465332	889.900000
799.501221	896.300000
799.537048	888.200000
799.572876	877.000000
799.608704	879.800000
799.644531	889.800000
799.680359	885.300000
799.716248	897.000000
799.752014	895.500000
799.787903	884.000000
799.823730	882.500000
799.859558	878.100000
799.895386	880.000000
799.931213	879.800000
799.967041	867.600000
800.002869	868.500000
800.038696	879.500000
800.074463	859.400000
800.110352	863.200000
800.146179	852.900000
800.181946	858.300000
800.217773	861.100000
800.253540	859.500000
800.289429	857.100000
800.325256	847.600000
800.361023	840.300000
800.396851	839.500000
800.432678	844.700000
800.468445	843.100000
800.504272	833.200000
800.540100	812.500000
800.575867	816.400000
800.611694	821.400000
800.647461	815.200000
800.683289	819.000000
800.719116	821.700000
800.754883	812.900000
800.790649	794.500000
800.826477	787.800000
800.862244	809.900000
800.898071	795.000000
800.933838	790.900000
800.969604	787.100000
801.005432	786.500000
801.041199	786.100000
801.076965	779.100000
801.112793	770.400000
801.148560	762.800000
801.184326	764.100000
801.220154	765.300000
801.255859	756.800000
801.291687	750.200000
801.327454	746.800000
801.363281	747.700000
801.398987	748.400000
801.434814	748.200000
801.470520	752.500000
801.506287	741.400000
801.542114	733.200000
801.577820	735.500000
801.613647	739.800000
801.649414	730.900000
801.685120	734.200000
801.720886	737.500000
801.756714	723.600000
801.792419	716.800000
801.828186	715.900000
801.863892	719.000000
801.899719	710.100000
801.935486	710.600000
801.971252	718.100000
802.006958	708.300000
802.042725	701.900000
802.078430	706.600000
802.114197	696.800000
802.149963	714.900000
802.185669	698.300000
802.221436	698.200000
802.257202	698.200000
802.292908	696.300000
802.328674	699.500000
802.364441	699.000000
802.400146	694.400000
802.435913	688.700000
802.471558	685.500000
802.507324	683.500000
802.543091	671.900000
802.578796	687.700000
802.614502	688.700000
802.650269	690.600000
802.685974	672.900000
802.721741	678.600000
802.757446	678.200000
802.793152	675.900000
802.828918	682.100000
802.864624	676.600000
802.900330	673.900000
802.936035	667.700000
802.971802	666.100000
803.007446	665.100000
803.043213	655.200000
803.078857	667.200000
803.114624	647.500000
803.150330	656.500000
803.185974	645.900000
803.221741	643.500000
803.257446	654.800000
803.293152	658.800000
803.328857	644.600000
803.364563	642.400000
803.400208	634.600000
803.435974	646.500000
803.471680	633.600000
803.507324	629.900000
803.543030	640.600000
803.578735	642.100000
803.614441	628.400000
803.650146	636.500000
803.685791	625.100000
803.721497	621.600000
803.757202	611.200000
803.792847	625.300000
803.828552	614.500000
803.864258	616.900000
803.899902	614.000000
803.935608	599.700000
803.971313	606.500000
804.006958	607.100000
804.042664	603.600000
804.078308	608.400000
804.113953	599.500000
804.149658	606.700000
804.185364	594.000000
804.221008	602.300000
804.256714	593.100000
804.292297	590.200000
804.328003	589.000000
804.363708	579.300000
804.399292	581.800000
804.434998	582.500000
804.470703	574.000000
804.506287	587.000000
804.541992	577.000000
804.577637	582.400000
804.613281	568.500000
804.648926	568.300000
804.684570	572.300000
804.720215	566.700000
804.755920	567.600000
804.791565	560.900000
804.827209	567.800000
804.862854	561.200000
804.898437	556.200000
804.934143	556.200000
804.969788	557.900000
805.005371	559.800000
805.041077	562.300000
805.076721	556.200000
805.112305	546.700000
805.147949	548.700000
805.183655	547.100000
805.219238	550.800000
805.254883	549.600000
805.290466	554.800000
805.326111	545.800000
805.361755	533.700000
805.397400	539.800000
805.432983	541.700000
805.468628	542.400000
805.504211	548.200000
805.539856	542.900000
805.575500	546.300000
805.611084	538.800000
805.646729	523.700000
805.682373	530.500000
805.717957	545.100000
805.753601	544.600000
805.789246	524.300000
805.824768	537.100000
805.860413	537.500000
805.895996	525.500000
805.931641	524.000000
805.967224	530.600000
806.002869	525.300000
806.038452	536.600000
806.074036	529.500000
806.109619	520.400000
806.145264	516.500000
806.180847	517.000000
806.216431	511.500000
806.252014	516.400000
806.287659	516.100000
806.323181	521.100000
806.358826	516.400000
806.394409	497.500000
806.429993	501.700000
806.465576	517.600000
806.501160	499.300000
806.536743	492.700000
806.572327	503.800000
806.607910	497.500000
806.643494	502.300000
806.679077	497.900000
806.714661	498.800000
806.750244	495.500000
806.785828	489.700000
806.821350	486.500000
806.856934	492.500000
806.892517	488.500000
806.928101	479.100000
806.963684	483.800000
806.999268	493.700000
807.034790	473.500000
807.070374	478.600000
807.105896	474.800000
807.141479	475.000000
807.177063	481.400000
807.212585	469.900000
807.248169	468.100000
807.283752	475.400000
807.319275	466.700000
807.354858	467.500000
807.390381	463.900000
807.425903	465.700000
807.461487	462.800000
807.497070	453.500000
807.532593	457.400000
807.568115	453.900000
807.603699	452.800000
807.639221	444.900000
807.674744	449.600000
807.710266	453.600000
807.745850	457.500000
807.781372	449.400000
807.816895	443.200000
807.852417	447.400000
807.888000	444.100000
807.923523	440.700000
807.959045	446.400000
807.994629	433.700000
808.030090	430.500000
808.065613	442.200000
808.101135	439.900000
808.136658	435.100000
808.172241	433.800000
808.207764	430.100000
808.243225	424.700000
808.278809	423.000000
808.314270	432.500000
808.349792	416.000000
808.385315	422.800000
808.420837	422.900000
808.456360	430.100000
808.491882	425.300000
808.527344	422.500000
808.562866	431.300000
808.598389	422.100000
808.633850	415.300000
808.669434	412.400000
808.704895	420.000000
808.740417	425.400000
808.775940	414.100000
808.811462	408.700000
808.846924	404.800000
808.882385	400.300000
808.917847	397.800000
808.953369	400.100000
808.988892	395.000000
809.024353	404.900000
809.059875	402.800000
809.095398	398.300000
809.130798	393.900000
809.166321	397.100000
809.201843	390.300000
809.237305	394.100000
809.272766	398.800000
809.308228	383.300000
809.343750	386.100000
809.379211	387.000000
809.414734	388.600000
809.450134	394.500000
809.485657	377.600000
809.521118	385.300000
809.556580	381.400000
809.592102	381.200000
809.627502	376.400000
809.663025	374.300000
809.698486	373.500000
809.733887	368.600000
809.769409	371.800000
809.804871	360.600000
809.840271	364.500000
809.875793	369.000000
809.911194	372.800000
809.946655	363.800000
809.982178	359.000000
810.017639	363.200000
810.053040	362.100000
810.088501	357.400000
810.123901	358.700000
810.159424	353.100000
810.194885	351.000000
810.230286	355.100000
810.265747	348.400000
810.301208	346.000000
810.336609	350.900000
810.372070	341.900000
810.407532	346.700000
810.442932	345.700000
810.478394	349.700000
810.513794	344.700000
810.549255	343.500000
810.584717	342.600000
810.620117	337.400000
810.655518	346.900000
810.690979	343.000000
810.726379	341.700000
810.761841	329.000000
810.797302	329.400000
810.832642	331.900000
810.868103	342.100000
810.903564	329.300000
810.938904	337.500000
810.974365	325.900000
811.009827	328.400000
811.045166	324.500000
811.080627	318.000000
811.115967	324.200000
811.151428	333.400000
811.186829	323.000000
811.222229	327.100000
811.257629	317.600000
811.293091	324.100000
811.328430	328.100000
811.363892	324.400000
811.399292	326.200000
811.434631	320.000000
811.470093	325.300000
811.505493	316.200000
811.540833	317.000000
811.576294	322.900000
811.611694	316.300000
811.647034	314.100000
811.682434	312.800000
811.717773	317.400000
811.753235	319.400000
811.788635	313.400000
811.823975	315.300000
811.859375	324.000000
811.894775	308.300000
811.930115	312.100000
811.965515	308.400000
812.000916	313.400000
812.036255	308.700000
812.071655	315.300000
812.106995	307.000000
812.142395	307.000000
812.177795	313.100000
812.213196	311.100000
812.248474	309.000000
812.283875	302.700000
812.319214	304.700000
812.354614	306.300000
812.390015	303.100000
812.425293	303.700000
812.460693	303.200000
812.496094	301.500000
812.531433	293.800000
812.566772	295.700000
812.602173	298.200000
812.637451	298.300000
812.672852	293.200000
812.708191	297.000000
812.743530	293.100000
812.778931	285.500000
812.814270	289.900000
812.849609	297.200000
812.884949	290.800000
812.920227	285.500000
812.955627	300.600000
812.990967	290.800000
813.026306	285.400000
813.061646	274.700000
813.096985	274.100000
813.132324	271.200000
813.167664	277.100000
813.203003	280.800000
813.238281	268.800000
813.273682	270.900000
813.308960	267.700000
813.344299	269.100000
813.379639	280.100000
813.414978	271.800000
813.450256	270.300000
813.485596	275.600000
813.520874	266.700000
813.556213	271.800000
813.591614	274.400000
813.626831	266.800000
813.662170	270.600000
813.697510	280.300000
813.732788	261.800000
813.768127	268.200000
813.803467	269.100000
813.838745	264.700000
813.874084	270.800000
813.909363	268.200000
813.944641	269.400000
813.979980	257.700000
814.015320	262.800000
814.050598	260.500000
814.085876	264.800000
814.121155	261.600000
814.156494	260.100000
814.191772	261.300000
814.227051	256.600000
814.262390	260.000000
814.297668	259.300000
814.332947	261.200000
814.368225	255.200000
814.403564	256.500000
814.438782	254.000000
814.474121	256.000000
814.509338	252.300000
814.544617	263.000000
814.579956	251.100000
814.615173	260.800000
814.650513	259.400000
814.685791	249.600000
814.721008	252.900000
814.756348	255.400000
814.791626	249.800000
814.826843	249.700000
814.862122	249.900000
814.897400	246.400000
814.932678	249.800000
814.967957	250.300000
815.003235	247.000000
815.038452	242.000000
815.073730	239.800000
815.108948	251.000000
815.144226	247.600000
815.179504	252.500000
815.214722	236.500000
815.250000	237.300000
815.285278	243.200000
815.320496	238.400000
815.355774	240.600000
815.391052	244.200000
815.426270	238.600000
815.461487	239.500000
815.496765	232.800000
815.531982	228.600000
815.567261	236.700000
815.602539	245.500000
815.637695	239.900000
815.672974	241.500000
815.708191	241.900000
815.743408	242.300000
815.778687	234.100000
815.813904	245.200000
815.849121	225.300000
815.884399	230.100000
815.919556	230.200000
815.954834	231.100000
815.990051	235.400000
816.025269	238.700000
816.060486	229.000000
816.095703	228.300000
816.130920	232.000000
816.166199	228.200000
816.201416	231.900000
816.236572	237.700000
816.271851	226.800000
816.307007	234.300000
816.342224	223.900000
816.377441	227.500000
816.412659	220.800000
816.447876	229.900000
816.483093	226.300000
816.518250	227.000000
816.553467	224.600000
816.588745	228.300000
816.623901	220.900000
816.659119	214.800000
816.694275	221.700000
816.729492	219.000000
816.764709	255.600000
816.799927	215.900000
816.835083	221.100000
816.870300	215.200000
816.905457	220.400000
816.940674	223.400000
816.975830	216.300000
817.010986	214.300000
817.046204	215.000000
817.081421	212.400000
817.116577	213.500000
817.151733	221.900000
817.186951	222.800000
817.222107	217.300000
817.257324	221.300000
817.292419	217.800000
817.327637	209.200000
817.362854	214.800000
817.398010	209.300000
817.433167	212.900000
817.468323	212.600000
817.503479	214.100000
817.538635	221.600000
817.573853	215.900000
817.608948	213.900000
817.644165	210.200000
817.679321	207.900000
817.714478	208.600000
817.749634	213.800000
817.784790	225.300000
817.819946	219.900000
817.855103	201.200000
817.890198	209.500000
817.925415	202.500000
817.960571	211.700000
817.995667	210.300000
818.030823	211.000000
818.066040	206.100000
818.101135	209.700000
818.136292	208.800000
818.171448	202.800000
818.206543	209.000000
818.241699	211.500000
818.276855	207.700000
818.311951	205.800000
818.347107	203.500000
818.382263	210.400000
818.417358	215.900000
818.452515	215.200000
818.487610	215.000000
818.522766	203.100000
818.557922	216.400000
818.593018	209.100000
818.628113	208.100000
818.663269	202.100000
818.698364	208.100000
818.733521	203.700000
818.768677	209.600000
818.803711	200.800000
818.838867	202.700000
818.874023	204.900000
818.909058	202.200000
818.944214	200.600000
818.979370	208.300000
819.014404	204.600000
819.049561	199.700000
819.084595	206.600000
819.119751	197.200000
819.154846	206.400000
819.189941	201.800000
819.225037	196.100000
819.260193	192.500000
819.295227	196.300000
819.330322	192.800000
819.365479	192.800000
819.400513	224.600000
819.435608	191.000000
819.470764	189.500000
819.505798	192.800000
819.540894	195.700000
819.575989	194.800000
819.611084	203.300000
819.646179	202.000000
819.681213	199.500000
819.716309	196.200000
819.751404	195.200000
819.786438	201.400000
819.821533	191.600000
819.856628	198.400000
819.891663	200.200000
819.926758	207.600000
819.961853	202.800000
819.996887	194.600000
820.031982	201.200000
820.067017	196.400000
820.102112	224.600000
820.137207	195.900000
820.172302	212.100000
820.207275	193.300000
820.242371	191.900000
820.277405	193.700000
820.312500	194.600000
820.347534	198.300000
820.382568	200.800000
820.417664	193.700000
820.452759	194.100000
820.487732	192.400000
820.522827	194.000000
820.557861	192.400000
820.592896	193.200000
820.627930	194.100000
820.662964	192.400000
820.698059	197.100000
820.733093	192.400000
820.768127	198.800000
820.803162	195.400000
820.838196	191.800000
820.873230	196.300000
820.908264	195.800000
820.943298	192.100000
820.978333	200.500000
821.013367	194.500000
821.048401	199.500000
821.083435	199.800000
821.118469	185.900000
821.153503	200.300000
821.188477	195.800000
821.223511	186.700000
821.258484	194.200000
821.293579	195.800000
821.328613	187.500000
821.363647	192.500000
821.398621	189.000000
821.433655	189.800000
821.468628	205.800000
821.503662	194.800000
821.538696	196.800000
821.573669	189.000000
821.608704	196.000000
821.643677	190.500000
821.678650	196.300000
821.713684	203.200000
821.748718	191.000000
821.783691	192.300000
821.818726	194.700000
821.853638	196.300000
821.888672	190.300000
821.923706	193.500000
821.958618	189.900000
821.993652	190.900000
822.028687	198.100000
822.063599	200.300000
822.098633	194.600000
822.133667	188.300000
822.168579	191.800000
822.203613	194.000000
822.238586	188.800000
822.273560	195.700000
822.308533	190.200000
822.343567	191.500000
822.378479	191.700000
822.413452	191.000000
822.448425	188.900000
822.483398	198.600000
822.518372	197.100000
822.553345	190.900000
822.588318	199.200000
822.623291	191.600000
822.658203	190.700000
822.693237	192.800000
822.728210	188.700000
822.763123	194.000000
822.798096	188.300000
822.833069	192.200000
822.867981	192.000000
822.902954	195.200000
822.937927	196.300000
822.972900	204.100000
823.007874	185.000000
823.042725	195.700000
823.077698	204.400000
823.112671	188.000000
823.147583	192.500000
823.182556	194.600000
823.217529	197.700000
823.252441	192.200000
823.287415	207.300000
823.322388	195.100000
823.357239	193.000000
823.392212	200.000000
823.427185	198.200000
823.462097	189.300000
823.497009	196.900000
823.531982	191.200000
823.566895	193.100000
823.601807	188.700000
823.636719	191.900000
823.671631	195.900000
823.706604	190.200000
823.741455	194.900000
823.776428	186.200000
823.811340	196.500000
823.846252	199.400000
823.881165	200.700000
823.916138	194.800000
823.950989	201.800000
823.985901	189.700000
824.020813	193.200000
824.055725	192.100000
824.090637	189.400000
824.125610	195.100000
824.160461	192.500000
824.195374	194.600000
824.230225	198.900000
824.265198	186.300000
824.300110	189.800000
824.334961	204.600000
824.369873	183.000000
824.404785	194.600000
824.439636	199.200000
824.474548	184.200000
824.509460	182.400000
824.544312	199.600000
824.579224	194.700000
824.614075	195.700000
824.648987	191.400000
824.683899	192.800000
824.718811	188.600000
824.753662	200.200000
824.788574	198.700000
824.823364	193.000000
824.858276	189.400000
824.893188	198.200000
824.928040	198.000000
824.962952	194.800000
824.997803	196.900000
825.032654	194.400000
825.067566	196.400000
825.102417	190.300000
825.137268	192.400000
825.172119	192.200000
825.206970	191.000000
825.241882	191.400000
825.276733	188.100000
825.311646	187.800000
825.346436	187.400000
825.381348	187.300000
825.416138	193.000000
825.450989	188.300000
825.485901	184.900000
825.520691	184.600000
825.555542	186.100000
825.590454	191.900000
825.625244	184.200000
825.660095	199.400000
825.695007	196.400000
825.729797	191.300000
825.764648	188.600000
825.799438	192.000000
825.834290	192.000000
825.869202	185.600000
825.903992	192.600000
825.938843	188.500000
825.973694	185.600000
826.008484	202.900000
826.043335	186.700000
826.078186	182.500000
826.112976	197.800000
826.147827	197.400000
826.182678	201.100000
826.217468	185.100000
826.252319	196.700000
826.287109	188.000000
826.321899	199.000000
826.356750	191.000000
826.391541	187.000000
826.426392	199.300000
826.461182	192.800000
826.495972	187.300000
826.530823	182.800000
826.565613	192.200000
826.600403	186.800000
826.635254	194.800000
826.670044	182.700000
826.704834	183.800000
826.739685	186.900000
826.774475	193.000000
826.809265	190.400000
826.844055	188.100000
826.878906	197.600000
826.913635	194.400000
826.948425	193.800000
826.983215	193.600000
827.018005	196.800000
827.052856	190.200000
827.087585	194.100000
827.122375	184.500000
827.157227	191.200000
827.191956	203.000000
827.226746	187.700000
827.261536	196.800000
827.296265	184.100000
827.331116	188.700000
827.365906	195.700000
827.400635	187.600000
827.435425	182.900000
827.470215	199.100000
827.504944	190.000000
827.539734	196.200000
827.574463	190.500000
827.609253	198.900000
827.644043	192.200000
827.678772	197.600000
827.713562	189.500000
827.748352	189.300000
827.783081	187.200000
827.817871	192.500000
827.852600	187.700000
827.887329	191.700000
827.922119	181.500000
827.956848	194.700000
827.991638	205.000000
828.026367	193.300000
828.061157	192.300000
828.095886	191.200000
828.130615	204.300000
828.165344	181.600000
828.200073	192.300000
828.234863	188.800000
828.269592	192.100000
828.304321	197.400000
828.339111	192.400000
828.373779	187.300000
828.408569	196.800000
828.443298	195.900000
828.477966	188.600000
828.512756	190.800000
828.547424	186.400000
828.582214	188.100000
828.616943	189.800000
828.651672	188.800000
828.686340	194.200000
828.721130	188.000000
828.755798	190.800000
828.790527	190.300000
828.825256	195.000000
828.859924	191.100000
828.894714	198.100000
828.929443	199.900000
828.964111	187.300000
828.998840	194.600000
829.033569	187.000000
829.068237	188.400000
829.102966	188.200000
829.137634	192.400000
829.172363	191.800000
829.207092	192.300000
829.241821	188.400000
829.276489	183.900000
829.311157	191.100000
829.345825	188.900000
829.380554	197.700000
829.415283	186.800000
829.449951	184.600000
829.484619	199.800000
829.519348	199.300000
829.554016	191.500000
829.588745	191.100000
829.623413	185.100000
829.658081	202.200000
829.692749	184.900000
829.727417	195.200000
829.762146	193.100000
829.796814	185.600000
829.831482	189.500000
829.866150	192.100000
829.900879	188.400000
829.935486	194.400000
829.970154	190.000000
830.004883	202.500000
830.039490	192.300000
830.074219	187.700000
830.108887	192.300000
830.143494	189.500000
830.178223	186.200000
830.212891	188.100000
830.247498	191.200000
830.282166	199.700000
830.316772	196.700000
830.351501	187.000000
830.386169	191.300000
830.420776	189.500000
830.455444	191.600000
830.490112	187.600000
830.524719	182.600000
830.559387	193.200000
830.594055	193.700000
830.628662	190.000000
830.663330	191.000000
830.697998	199.600000
830.732605	189.600000
830.767273	193.200000
830.801941	190.900000
830.836487	199.200000
830.871155	192.700000
830.905762	193.400000
830.940430	183.200000
830.975098	185.800000
831.009644	191.800000
831.044312	199.400000
831.078979	193.100000
831.113525	182.300000
831.148193	191.900000
831.182861	189.000000
831.217407	194.400000
831.252075	208.400000
831.286621	189.300000
831.321289	188.000000
831.355896	190.600000
831.390564	199.200000
831.425110	190.100000
831.459778	198.300000
831.494324	204.900000
831.528931	195.900000
831.563599	195.400000
831.598145	184.800000
831.632751	189.700000
831.667419	189.400000
831.701965	193.100000
831.736572	195.300000
831.771179	184.700000
831.805786	188.500000
831.840393	196.400000
831.874939	182.100000
831.909546	195.900000
831.944153	181.800000
831.978760	190.200000
832.013306	186.700000
832.047913	197.200000
832.082458	198.900000
832.117065	187.400000
832.151672	200.200000
832.186218	192.000000
832.220825	194.300000
832.255432	183.600000
832.289978	187.300000
832.324585	193.500000
832.359192	193.400000
832.393677	188.200000
832.428284	190.900000
832.462830	189.500000
832.497437	189.900000
832.531982	194.700000
832.566589	189.400000
832.601135	191.500000
832.635681	182.800000
832.670227	190.700000
832.704773	198.300000
832.739380	191.600000
832.773926	191.200000
832.808472	186.800000
832.843079	191.300000
832.877563	193.700000
832.912170	188.600000
832.946716	183.000000
832.981201	196.100000
833.015808	194.600000
833.050293	189.200000
833.084839	187.400000
833.119446	189.200000
833.153992	195.600000
833.188477	190.300000
833.223022	188.900000
833.257568	192.100000
833.292114	197.400000
833.326660	201.000000
833.361145	187.400000
833.395691	184.200000
833.430237	190.400000
833.464783	193.200000
833.499329	188.400000
833.533875	184.600000
833.568359	194.600000
833.602905	197.200000
833.637390	195.900000
833.671875	187.200000
833.706421	188.500000
833.740906	187.900000
833.775452	180.200000
833.809998	187.900000
833.844482	198.400000
833.879028	189.300000
833.913513	188.300000
833.947998	191.800000
833.982544	186.600000
834.017090	188.700000
834.051514	180.600000
834.086060	195.200000
834.120544	190.900000
834.155029	191.400000
834.189575	189.700000
834.223999	194.000000
834.258545	191.100000
834.293030	192.500000
834.327515	191.800000
834.362000	187.400000
834.396545	195.200000
834.430969	189.100000
834.465454	194.500000
834.500000	182.900000
834.534424	193.800000
834.568970	181.400000
834.603455	181.200000
834.637878	187.000000
834.672363	192.500000
834.706909	192.400000
834.741333	190.500000
834.775818	182.200000
834.810242	185.600000
834.844727	191.400000
834.879211	189.800000
834.913635	192.000000
834.948181	193.300000
834.982666	192.500000
835.017090	188.900000
835.051575	193.200000
835.086060	187.800000
835.120483	196.200000
835.154907	194.800000
835.189331	190.500000
835.223816	191.900000
835.258301	184.700000
835.292786	185.900000
835.327209	196.800000
835.361694	186.500000
835.396057	188.100000
835.430542	193.200000
835.465027	193.200000
835.499390	184.900000
835.533875	210.700000
835.568359	188.500000
835.602722	183.000000
835.637207	192.500000
835.671692	185.700000
835.706055	205.900000
835.740540	193.600000
835.774902	194.700000
835.809387	191.100000
835.843811	185.500000
835.878235	198.200000
835.912659	184.000000
835.947083	186.900000
835.981506	190.200000
836.015930	184.500000
836.050354	196.400000
836.084778	199.600000
836.119202	195.700000
836.153625	203.500000
836.187988	187.700000
836.222473	187.300000
836.256897	192.100000
836.291260	189.400000
836.325684	193.200000
836.360046	188.700000
836.394470	190.100000
836.428894	197.200000
836.463318	187.200000
836.497681	195.300000
836.532104	198.300000
836.566467	191.600000
836.600891	190.600000
836.635315	196.300000
836.669678	194.400000
836.704102	195.000000
836.738525	192.000000
836.772888	181.700000
836.807251	188.600000
836.841675	192.900000
836.876038	186.100000
836.910461	186.500000
836.944763	194.100000
836.979187	186.400000
837.013611	196.700000
837.047974	182.700000
837.082336	203.700000
837.116699	193.900000
837.151062	191.300000
837.185486	185.300000
837.219849	190.500000
837.254211	195.300000
837.288574	190.200000
837.322937	186.100000
837.357300	178.300000
837.391663	203.400000
837.426086	196.200000
837.460388	191.100000
837.494751	196.000000
837.529114	189.900000
837.563477	196.600000
837.597839	192.600000
837.632141	190.400000
837.666565	188.300000
837.700928	193.900000
837.735229	194.900000
837.769592	193.400000
837.803955	196.000000
837.838257	189.100000
837.872620	187.400000
837.906982	198.000000
837.941284	191.600000
837.975647	192.100000
838.010010	198.100000
838.044312	189.100000
838.078674	188.600000
838.112976	191.500000
838.147339	196.000000
838.181702	189.500000
838.216003	200.200000
838.250366	191.700000
838.284668	193.300000
838.318970	181.900000
838.353333	191.500000
838.387634	188.600000
838.421936	191.400000
838.456299	191.100000
838.490601	199.500000
838.524902	194.000000
838.559265	195.900000
838.593567	194.300000
838.627869	185.200000
838.662170	194.300000
838.696472	183.800000
838.730774	186.400000
838.765137	195.700000
838.799377	177.500000
838.833740	193.000000
838.868042	198.000000
838.902283	184.500000
838.936646	198.000000
838.970947	194.200000
839.005188	196.200000
839.039551	185.000000
839.073792	198.500000
839.108093	188.700000
839.142395	200.300000
839.176697	184.800000
839.210937	191.700000
839.245300	202.400000
839.279541	186.500000
839.313843	189.600000
839.348145	195.200000
839.382385	196.500000
839.416687	195.900000
839.450989	195.300000
839.485229	191.300000
839.519531	187.400000
839.553833	197.900000
839.588013	190.500000
839.622314	193.100000
839.656555	194.700000
839.690857	192.900000
839.725159	185.100000
839.759460	190.600000
839.793640	189.800000
839.827942	191.000000
839.862183	187.300000
839.896423	193.400000
839.930725	199.900000
839.964966	198.700000
839.999207	198.400000
840.033508	198.900000
840.067688	188.400000
840.101990	201.000000
840.136230	189.800000
840.170471	199.400000
840.204712	187.300000
840.238953	187.500000
840.273193	193.000000
840.307434	195.700000
840.341736	187.100000
840.375916	184.600000
840.410217	188.200000
840.444397	195.600000
840.478638	194.000000
840.512878	198.100000
840.547119	191.700000
840.581360	194.100000
840.615601	201.500000
840.649780	201.100000
840.684021	191.800000
840.718262	199.700000
840.752441	198.300000
840.786682	193.700000
840.820862	193.600000
840.855103	198.500000
840.889343	193.200000
840.923584	195.600000
840.957764	194.400000
840.992004	193.300000
841.026184	205.900000
841.060425	190.200000
841.094666	188.900000
841.128845	195.700000
841.163025	193.600000
841.197266	194.100000
841.231445	193.600000
841.265686	192.900000
841.299866	187.800000
841.334045	199.400000
841.368286	192.300000
841.402405	200.100000
841.436646	196.100000
841.470825	188.300000
841.505005	190.900000
841.539185	187.200000
841.573425	188.200000
841.607544	191.300000
841.641785	191.700000
841.675964	185.100000
841.710144	193.000000
841.744324	189.300000
841.778503	188.700000
841.812683	186.500000
841.846863	200.900000
841.881042	199.200000
841.915222	188.400000
841.949402	207.600000
841.983521	183.600000
842.017700	189.900000
842.051880	193.300000
842.086060	193.800000
842.120239	193.400000
842.154419	189.900000
842.188538	192.300000
842.222717	187.500000
842.256897	201.500000
842.291016	189.600000
842.325195	194.000000
842.359375	202.400000
842.393494	199.400000
842.427673	191.900000
842.461853	195.300000
842.495911	200.200000
842.530090	194.600000
842.564209	190.400000
842.598389	194.300000
842.632568	192.900000
842.666626	196.000000
842.700806	187.800000
842.734985	189.600000
842.769043	195.500000
842.803223	189.800000
842.837402	191.700000
842.871460	188.200000
842.905640	201.100000
842.939697	188.000000
842.973877	194.100000
843.007996	197.800000
843.042175	202.000000
843.076233	189.700000
843.110413	194.100000
843.144470	200.800000
843.178589	196.900000
843.212769	188.200000
843.246826	198.000000
843.280945	188.200000
843.315125	190.500000
843.349182	188.500000
843.383301	199.300000
843.417419	204.000000
843.451538	191.800000
843.485657	192.100000
843.519714	190.700000
843.553833	193.900000
843.587952	189.400000
843.622070	188.100000
843.656128	194.900000
843.690247	191.400000
843.724304	190.900000
843.758423	193.000000
843.792542	191.000000
843.826599	192.600000
843.860718	189.900000
843.894836	184.600000
843.928894	194.000000
843.963013	194.000000
843.997070	188.500000
844.031128	185.800000
844.065247	197.100000
844.099304	197.900000
844.133362	193.900000
844.167480	196.000000
844.201599	200.200000
844.235596	194.000000
844.269714	193.700000
844.303711	195.200000
844.337830	184.600000
844.371948	194.800000
844.405945	191.100000
844.440063	186.400000
844.474121	206.300000
844.508118	192.200000
844.542236	191.900000
844.576294	192.000000
844.610352	186.400000
844.644409	192.400000
844.678406	183.200000
844.712524	197.400000
844.746582	197.900000
844.780640	191.800000
844.814636	193.800000
844.848755	203.500000
844.882751	189.500000
844.916809	197.300000
844.950867	193.400000
844.984863	201.200000
845.018921	192.400000
845.052979	188.400000
845.086975	193.600000
845.121033	185.700000
845.155090	186.900000
845.189087	198.500000
845.223145	190.200000
845.257141	192.600000
845.291199	196.000000
845.325256	200.600000
845.359253	193.800000
845.393250	202.700000
845.427307	191.900000
845.461304	193.900000
845.495361	193.300000
845.529358	203.000000
845.563354	190.000000
845.597412	187.500000
845.631409	201.100000
845.665405	199.100000
845.699463	198.200000
845.733459	190.300000
845.767456	198.800000
845.801453	192.400000
845.835449	200.100000
845.869446	196.400000
845.903503	197.500000
845.937439	188.400000
845.971497	199.500000
846.005493	186.300000
846.039429	195.100000
846.073486	201.400000
846.107483	190.600000
846.141418	192.000000
846.175476	192.500000
846.209473	199.900000
846.243408	189.800000
846.277405	191.700000
846.311401	190.000000
846.345337	193.500000
846.379395	200.300000
846.413330	189.500000
846.447327	201.000000
846.481323	186.300000
846.515259	190.400000
846.549255	193.200000
846.583252	194.300000
846.617187	186.400000
846.651184	197.000000
846.685120	190.400000
846.719055	200.800000
846.753052	196.800000
846.786987	197.600000
846.820984	186.800000
846.854980	200.600000
846.888916	187.600000
846.922852	194.900000
846.956848	202.200000
846.990723	188.800000
847.024719	194.100000
847.058716	192.700000
847.092590	200.200000
847.126587	193.500000
847.160522	190.200000
847.194458	196.000000
847.228455	188.900000
847.262390	187.600000
847.296265	190.700000
847.330261	198.900000
847.364136	190.800000
847.398132	189.700000
847.432068	193.200000
847.466003	191.900000
847.499939	192.900000
847.533875	195.900000
847.567749	191.200000
847.601746	190.600000
847.635681	196.000000
847.669556	184.100000
847.703491	198.000000
847.737427	206.300000
847.771301	188.400000
847.805237	193.300000
847.839233	193.800000
847.873108	191.700000
847.907043	192.000000
847.940918	198.800000
847.974854	193.900000
848.008789	197.000000
848.042664	192.700000
848.076538	196.600000
848.110474	192.900000
848.144348	193.900000
848.178284	187.900000
848.212219	192.600000
848.246094	190.500000
848.279968	193.200000
848.313904	197.200000
848.347778	193.200000
848.381653	192.400000
848.415588	188.400000
848.449463	191.400000
848.483337	195.200000
848.517212	198.700000
848.551086	192.700000
848.585022	189.500000
848.618835	200.900000
848.652771	191.200000
848.686646	188.500000
848.720520	201.900000
848.754395	192.400000
848.788330	197.100000
848.822144	198.000000
848.856018	191.900000
848.889954	202.500000
848.923767	188.700000
848.957642	189.800000
848.991577	196.400000
849.025391	191.300000
849.059265	192.800000
849.093079	190.500000
849.126953	187.600000
849.160828	198.300000
849.194641	194.700000
849.228577	190.500000
849.262451	192.400000
849.296265	192.400000
849.330139	187.300000
849.364014	193.200000
849.397827	196.400000
849.431702	193.600000
849.465515	195.500000
849.499329	184.500000
849.533203	187.500000
849.567078	183.100000
849.600891	195.000000
849.634766	192.600000
849.668518	197.500000
849.702393	193.600000
849.736267	185.800000
849.770020	204.500000
849.803894	196.800000
849.837769	193.900000
849.871521	192.900000
849.905396	199.200000
849.939270	188.100000
849.973022	191.700000
850.006897	196.300000
850.040710	194.800000
850.074524	196.800000
850.108337	191.400000
850.142151	196.300000
850.175964	199.100000
850.209778	191.900000
850.243530	180.800000
850.277405	198.500000
850.311218	193.400000
850.344971	190.300000
850.378845	201.600000
850.412659	190.700000
850.446411	193.200000
850.480225	192.600000
850.514038	199.700000
850.547791	195.400000
850.581665	193.200000
850.615417	191.900000
850.649231	195.100000
850.683044	191.400000
850.716858	190.700000
850.750610	192.400000
850.784424	196.700000
850.818176	189.700000
850.851929	191.500000
850.885742	189.300000
850.919495	191.800000
850.953308	198.000000
850.987122	200.700000
851.020874	188.300000
851.054626	184.000000
851.088440	196.800000
851.122192	196.800000
851.156006	193.400000
851.189697	191.100000
851.223511	188.200000
851.257263	196.800000
851.291077	197.600000
851.324829	192.100000
851.358582	190.300000
851.392334	190.900000
851.426086	192.300000
851.459900	200.500000
851.493591	193.500000
851.527344	192.800000
851.561157	192.700000
851.594849	195.600000
851.628662	195.200000
851.662415	201.500000
851.696106	195.800000
851.729858	196.500000
851.763611	187.300000
851.797363	193.500000
851.831116	188.600000
851.864868	195.900000
851.898560	197.400000
851.932312	190.200000
851.966064	195.200000
851.999817	193.400000
852.033569	191.400000
852.067261	196.600000
852.101013	189.000000
852.134766	193.200000
852.168457	183.000000
852.202209	196.700000
852.235901	188.100000
852.269592	195.600000
852.303345	202.600000
852.337036	198.200000
852.370789	192.400000
852.404541	196.700000
852.438171	189.400000
852.471924	191.900000
852.505676	187.200000
852.539307	196.300000
852.573059	189.100000
852.606812	191.700000
852.640442	192.200000
852.674194	199.400000
852.707886	203.000000
852.741577	201.000000
852.775269	186.400000
852.809021	194.200000
852.842651	195.200000
852.876404	197.500000
852.910034	194.000000
852.943787	198.400000
852.977478	194.100000
853.011108	190.200000
853.044861	190.500000
853.078552	199.900000
853.112183	193.700000
853.145874	195.000000
853.179626	184.200000
853.213257	195.000000
853.246948	189.600000
853.280640	202.000000
853.314270	193.200000
853.347961	200.400000
853.381653	194.300000
853.415283	197.900000
853.448975	189.500000
853.482605	195.200000
853.516296	191.800000
853.549988	188.200000
853.583618	194.100000
853.617310	194.500000
853.651001	194.600000
853.684631	187.600000
853.718323	191.400000
853.751953	200.500000
853.785583	184.000000
853.819275	197.600000
853.852966	195.200000
853.886536	184.300000
853.920227	186.900000
853.953918	196.900000
853.987488	190.800000
854.021179	196.500000
854.054749	200.600000
854.088440	195.300000
854.122131	188.600000
854.155701	195.700000
854.189331	189.900000
854.223022	196.300000
854.256592	195.100000
854.290283	188.900000
854.323914	197.200000
854.357483	193.900000
854.391174	194.900000
854.424744	202.900000
854.458374	195.100000
854.492065	203.200000
854.525696	194.000000
854.559265	200.900000
854.592896	203.600000
854.626465	193.900000
854.660095	194.900000
854.693787	194.500000
854.727356	193.400000
854.760986	198.100000
854.794617	195.200000
854.828186	191.900000
854.861816	195.700000
854.895447	193.700000
854.929016	195.600000
854.962585	195.400000
854.996155	202.400000
855.029785	194.900000
855.063416	195.400000
855.097046	198.100000
855.130615	188.000000
855.164185	198.400000
855.197754	193.600000
855.231384	196.700000
855.264954	192.500000
855.298523	196.900000
855.332153	193.100000
855.365723	200.600000
855.399292	188.600000
855.432922	191.600000
855.466492	195.200000
855.500061	188.500000
855.533630	188.500000
855.567200	195.900000
855.600769	197.500000
855.634338	197.500000
855.667969	193.400000
855.701477	188.600000
855.735046	188.600000
855.768616	186.100000
855.802185	195.700000
855.835754	207.600000
855.869324	185.700000
855.902893	191.300000
855.936401	198.900000
855.969971	194.300000
856.003540	186.100000
856.037109	197.800000
856.070618	193.500000
856.104187	187.300000
856.137695	190.400000
856.171265	182.900000
856.204834	192.500000
856.238403	200.100000
856.271912	190.000000
856.305481	194.300000
856.338989	186.100000
856.372559	196.600000
856.406128	195.100000
856.439636	198.600000
856.473145	190.400000
856.506653	200.200000
856.540222	193.200000
856.573792	200.600000
856.607300	197.800000
856.640808	188.200000
856.674377	194.700000
856.707825	222.500000
856.741394	197.100000
856.774902	190.000000
856.808472	184.600000
856.841980	196.000000
856.875488	202.600000
856.908936	185.200000
856.942505	190.300000
856.976013	192.800000
857.009521	188.800000
857.043030	193.400000
857.076477	191.600000
857.110046	197.400000
857.143555	195.600000
857.177063	198.500000
857.210571	188.900000
857.244080	187.800000
857.277527	196.600000
857.311035	193.300000
857.344543	196.900000
857.378052	191.800000
857.411499	198.000000
857.445068	203.200000
857.478516	194.000000
857.512024	187.200000
857.545532	190.900000
857.578979	196.300000
857.612427	193.200000
857.645874	189.100000
857.679382	194.400000
857.712891	196.800000
857.746399	193.500000
857.779846	199.000000
857.813354	199.000000
857.846741	193.800000
857.880249	189.300000
857.913757	193.700000
857.947266	195.900000
857.980652	196.200000
858.014160	191.700000
858.047546	191.400000
858.081055	193.200000
858.114563	202.400000
858.147949	187.500000
858.181458	198.100000
858.214844	192.300000
858.248352	184.100000
858.281799	197.900000
858.315308	206.100000
858.348694	197.400000
858.382141	202.600000
858.415588	196.200000
858.449036	196.600000
858.482483	196.300000
858.515930	191.100000
858.549377	193.600000
858.582825	201.400000
858.616211	196.600000
858.649658	195.300000
858.683105	188.700000
858.716553	190.300000
858.750000	185.900000
858.783386	190.500000
858.816833	185.000000
858.850281	193.500000
858.883728	196.200000
858.917114	191.400000
858.950562	201.100000
858.983948	202.400000
859.017395	196.400000
859.050781	191.800000
859.084167	188.900000
859.117615	186.200000
859.151062	195.000000
859.184448	188.600000
859.217834	190.700000
859.251282	192.000000
859.284668	187.400000
859.318054	184.700000
859.351440	190.400000
859.384888	202.600000
859.418274	184.600000
859.451721	184.600000
859.485046	195.900000
859.518494	194.500000
859.551819	188.700000
859.585266	195.600000
859.618652	195.100000
859.652039	187.400000
859.685425	187.900000
859.718811	186.400000
859.752197	182.100000
859.785583	201.000000
859.819031	200.300000
859.852356	196.600000
859.885742	190.300000
859.919067	191.400000
859.952454	191.300000
859.985901	197.700000
860.019287	190.600000
860.052612	0.000000
860.085999	0.000000
860.119324	0.000000
860.152710	0.000000
860.186096	0.000000
860.219421	0.000000
860.252808	0.000000
860.286133	0.000000
860.319519	0.000000
860.352905	0.000000
860.386292	0.000000
860.419617	0.000000
860.452942	0.000000
860.486267	0.000000
860.519653	0.000000
860.553040	0.000000
860.586365	0.000000
860.619690	0.000000
860.653076	0.000000
860.686340	0.000000
860.719727	0.000000
860.753113	0.000000
860.786377	0.000000
860.819763	0.000000
860.853027	0.000000
860.886414	0.000000
860.919739	0.000000
860.953125	0.000000
860.986389	0.000000
861.019714	0.000000
861.053040	0.000000
861.086365	0.000000
861.119690	0.000000
861.153076	0.000000
861.186340	0.000000
861.219666	0.000000
861.252930	0.000000
861.286316	0.000000
861.319641	0.000000
861.352905	0.000000
861.386230	0.000000
861.419495	0.000000
861.452820	0.000000
861.486145	0.000000
861.519470	0.000000
861.552734	0.000000
861.586060	0.000000
861.619324	0.000000
861.652649	0.000000
861.685974	0.000000
861.719238	0.000000
861.752563	0.000000
861.785828	0.000000
861.819092	0.000000
861.852417	0.000000
861.885742	0.000000
861.918945	0.000000
861.952271	0.000000
861.985535	0.000000
862.018799	0.000000
862.052124	0.000000
862.085449	0.000000
862.118652	0.000000
862.151978	0.000000
862.185181	0.000000
862.218506	0.000000
862.251770	0.000000
862.285034	0.000000
862.318298	0.000000
862.351562	0.000000
862.384827	0.000000
862.418091	0.000000
862.451355	0.000000
862.484619	0.000000
862.517883	0.000000
862.551086	0.000000
862.584351	0.000000
862.617676	0.000000
862.650940	0.000000
862.684143	0.000000
862.717407	0.000000
862.750610	0.000000
862.783875	0.000000
862.817139	0.000000
862.850342	0.000000
862.883606	0.000000
862.916870	0.000000
862.950073	0.000000
862.983337	0.000000
863.016602	0.000000
863.049805	0.000000
863.083069	0.000000
863.116211	0.000000
863.149475	0.000000
863.182739	0.000000
863.216003	0.000000
863.249146	0.000000
863.282410	0.000000
863.315613	0.000000
863.348816	0.000000
863.382080	0.000000
863.415222	0.000000
863.448486	0.000000
863.481689	0.000000
863.514893	0.000000
863.548157	0.000000
863.581360	0.000000
863.614502	0.000000
863.647766	0.000000
863.680908	0.000000
863.714172	0.000000
863.747375	0.000000
863.780579	0.000000
863.813721	0.000000
863.846985	0.000000
863.880127	0.000000
863.913330	0.000000
863.946533	0.000000
863.979675	0.000000
864.012939	0.000000
