Model Number: SPM-001-M   
Serial Number: 10090201
Firmware Version: 004.17.6
Exposure Time: 500000.000000us
Data Taken on: 10-03-2021 12:29:11.955
Wavelength	Amplitude
733.770752	0.000000
733.808716	0.000000
733.846619	0.000000
733.884583	0.000000
733.922546	0.000000
733.960449	0.000000
733.998413	0.000000
734.036377	0.000000
734.074219	0.000000
734.112183	0.000000
734.150085	0.000000
734.188049	0.000000
734.226013	0.000000
734.263916	0.000000
734.301819	0.000000
734.339783	0.000000
734.377686	0.000000
734.415588	0.000000
734.453552	0.000000
734.491455	0.000000
734.529419	0.000000
734.567322	0.000000
734.605225	0.000000
734.643127	0.000000
734.681091	0.000000
734.718994	0.000000
734.756897	0.000000
734.794800	0.000000
734.832703	0.000000
734.870667	0.000000
734.908508	0.000000
734.946472	0.000000
734.984375	0.000000
735.022278	0.000000
735.060181	0.000000
735.098083	0.000000
735.135986	0.000000
735.173889	0.000000
735.211792	0.000000
735.249695	0.000000
735.287598	0.000000
735.325439	0.000000
735.363403	0.000000
735.401306	0.000000
735.439148	0.000000
735.477051	0.000000
735.515015	0.000000
735.552856	0.000000
735.590759	0.000000
735.628662	0.000000
735.666504	0.000000
735.704407	0.000000
735.742310	0.000000
735.780212	0.000000
735.818115	0.000000
735.856018	0.000000
735.893860	0.000000
735.931763	0.000000
735.969604	0.000000
736.007507	0.000000
736.045410	0.000000
736.083252	0.000000
736.121094	0.000000
736.158997	0.000000
736.196838	0.000000
736.234741	0.000000
736.272644	0.000000
736.310486	0.000000
736.348389	0.000000
736.386230	0.000000
736.424072	0.000000
736.461975	0.000000
736.499878	0.000000
736.537720	0.000000
736.575562	0.000000
736.613403	0.000000
736.651306	0.000000
736.689148	0.000000
736.726990	0.000000
736.764893	0.000000
736.802734	0.000000
736.840576	0.000000
736.878418	0.000000
736.916321	0.000000
736.954102	0.000000
736.992004	0.000000
737.029846	0.000000
737.067688	0.000000
737.105530	0.000000
737.143372	0.000000
737.181213	0.000000
737.219116	0.000000
737.256897	0.000000
737.294739	0.000000
737.332642	0.000000
737.370422	0.000000
737.408325	0.000000
737.446167	0.000000
737.483948	0.000000
737.521790	0.000000
737.559692	0.000000
737.597473	0.000000
737.635315	0.000000
737.673157	0.000000
737.710999	0.000000
737.748840	0.000000
737.786621	0.000000
737.824463	0.000000
737.862305	0.000000
737.900085	0.000000
737.937927	0.000000
737.975769	0.000000
738.013550	0.000000
738.051392	0.000000
738.089233	0.000000
738.127014	0.000000
738.164856	0.000000
738.202698	0.000000
738.240479	0.000000
738.278320	0.000000
738.316162	0.000000
738.353943	0.000000
738.391785	0.000000
738.429565	0.000000
738.467407	0.000000
738.505188	0.000000
738.542969	0.000000
738.580811	0.000000
738.618652	0.000000
738.656372	0.000000
738.694214	0.000000
738.732056	0.000000
738.769836	0.000000
738.807617	0.000000
738.845459	0.000000
738.883240	0.000000
738.921021	0.000000
738.958862	0.000000
738.996582	0.000000
739.034424	0.000000
739.072205	0.000000
739.109985	0.000000
739.147827	0.000000
739.185547	0.000000
739.223389	0.000000
739.261169	0.000000
739.298889	0.000000
739.336731	0.000000
739.374512	0.000000
739.412292	0.000000
739.450073	0.000000
739.487854	0.000000
739.525635	0.000000
739.563416	0.000000
739.601135	0.000000
739.638977	0.000000
739.676758	0.000000
739.714478	0.000000
739.752258	0.000000
739.790100	0.000000
739.827820	0.000000
739.865601	0.000000
739.903381	0.000000
739.941101	0.000000
739.978882	195.400000
740.016724	191.100000
740.054443	197.700000
740.092224	189.500000
740.130005	188.400000
740.167725	189.200000
740.205505	188.000000
740.243225	199.600000
740.281006	193.200000
740.318787	184.900000
740.356506	198.100000
740.394287	196.600000
740.432068	188.900000
740.469727	184.300000
740.507507	196.900000
740.545288	191.000000
740.583008	195.000000
740.620789	192.500000
740.658569	183.100000
740.696228	191.800000
740.734009	197.900000
740.771790	179.600000
740.809509	196.400000
740.847229	185.400000
740.884949	189.500000
740.922729	185.300000
740.960449	189.600000
740.998169	186.300000
741.035950	187.400000
741.073669	191.600000
741.111389	192.700000
741.149170	200.300000
741.186890	201.400000
741.224609	195.200000
741.262329	193.200000
741.300110	201.600000
741.337769	185.900000
741.375549	185.000000
741.413208	193.300000
741.450989	187.500000
741.488708	188.900000
741.526367	189.300000
741.564148	195.900000
741.601868	196.100000
741.639526	191.000000
741.677307	192.200000
741.715027	193.200000
741.752686	187.300000
741.790466	201.000000
741.828186	196.000000
741.865845	188.200000
741.903564	183.200000
741.941345	193.600000
741.979004	188.800000
742.016724	195.100000
742.054382	193.200000
742.092102	198.200000
742.129822	185.700000
742.167480	189.800000
742.205200	192.200000
742.242920	193.200000
742.280640	197.100000
742.318359	187.400000
742.356079	189.400000
742.393738	196.100000
742.431396	190.800000
742.469116	195.400000
742.506775	181.800000
742.544495	193.500000
742.582214	196.600000
742.619873	190.700000
742.657593	198.200000
742.695251	196.400000
742.732971	191.500000
742.770630	194.800000
742.808289	190.900000
742.846008	191.600000
742.883728	194.200000
742.921326	190.900000
742.959045	188.500000
742.996765	190.600000
743.034424	190.600000
743.072083	188.100000
743.109802	190.700000
743.147400	184.600000
743.185120	193.400000
743.222839	192.000000
743.260437	198.300000
743.298157	194.000000
743.335754	182.800000
743.373474	189.700000
743.411133	184.300000
743.448792	193.600000
743.486450	191.400000
743.524170	183.900000
743.561768	192.900000
743.599487	197.500000
743.637146	203.600000
743.674744	190.500000
743.712463	189.800000
743.750122	192.400000
743.787720	195.100000
743.825439	188.100000
743.863037	190.500000
743.900696	192.000000
743.938416	216.600000
743.976013	192.600000
744.013672	200.200000
744.051331	197.800000
744.088928	201.300000
744.126587	198.700000
744.164307	194.100000
744.201904	187.900000
744.239563	194.600000
744.277222	195.600000
744.314819	190.800000
744.352478	198.800000
744.390137	194.400000
744.427734	193.000000
744.465393	188.500000
744.502991	188.000000
744.540649	196.100000
744.578308	191.200000
744.615906	185.400000
744.653564	181.000000
744.691223	195.500000
744.728821	184.300000
744.766418	191.500000
744.804077	193.900000
744.841675	188.700000
744.879333	184.300000
744.916992	191.200000
744.954529	189.100000
744.992187	196.100000
745.029785	189.800000
745.067444	188.900000
745.105042	192.900000
745.142639	194.500000
745.180298	200.500000
745.217896	189.900000
745.255493	190.600000
745.293152	195.900000
745.330750	196.300000
745.368347	199.500000
745.405945	194.400000
745.443604	192.600000
745.481140	196.300000
745.518799	191.200000
745.556396	196.600000
745.593994	195.400000
745.631592	191.800000
745.669189	188.000000
745.706787	194.300000
745.744385	188.700000
745.781982	194.400000
745.819580	189.900000
745.857178	190.500000
745.894775	191.400000
745.932373	192.800000
745.969971	193.700000
746.007568	183.500000
746.045166	201.900000
746.082764	197.300000
746.120300	194.000000
746.157898	194.600000
746.195557	192.600000
746.233093	187.500000
746.270691	195.000000
746.308228	194.500000
746.345825	197.100000
746.383423	194.700000
746.420959	187.500000
746.458557	187.500000
746.496155	190.300000
746.533691	188.800000
746.571289	186.100000
746.608887	192.200000
746.646423	192.700000
746.684021	191.600000
746.721619	188.300000
746.759155	192.200000
746.796753	185.100000
746.834351	185.700000
746.871826	187.600000
746.909424	199.000000
746.946960	192.500000
746.984558	190.700000
747.022156	189.300000
747.059631	198.600000
747.097229	193.400000
747.134827	192.300000
747.172363	200.100000
747.209900	192.400000
747.247498	186.400000
747.285034	199.700000
747.322571	199.900000
747.360168	191.600000
747.397644	185.100000
747.435242	196.600000
747.472778	200.900000
747.510315	189.300000
747.547913	189.800000
747.585388	200.200000
747.622925	191.800000
747.660522	183.500000
747.697998	188.100000
747.735596	193.000000
747.773132	189.200000
747.810669	191.000000
747.848206	195.700000
747.885742	188.200000
747.923279	187.100000
747.960815	194.600000
747.998352	192.500000
748.035889	197.400000
748.073425	196.300000
748.110901	188.500000
748.148437	187.600000
748.185974	191.400000
748.223511	202.800000
748.261047	192.700000
748.298584	192.700000
748.336060	191.000000
748.373596	194.000000
748.411133	211.000000
748.448608	187.600000
748.486145	196.200000
748.523682	197.800000
748.561218	199.000000
748.598755	192.600000
748.636292	195.500000
748.673706	189.100000
748.711243	198.600000
748.748718	194.000000
748.786255	191.700000
748.823792	191.800000
748.861267	188.200000
748.898804	194.600000
748.936340	194.300000
748.973816	191.000000
749.011292	197.500000
749.048828	194.600000
749.086304	195.700000
749.123840	203.800000
749.161316	187.300000
749.198792	202.500000
749.236328	199.100000
749.273743	193.300000
749.311279	190.200000
749.348816	194.700000
749.386230	193.000000
749.423767	180.000000
749.461304	194.800000
749.498718	192.900000
749.536255	199.600000
749.573730	204.600000
749.611206	198.600000
749.648682	191.900000
749.686218	192.600000
749.723633	197.100000
749.761169	189.800000
749.798645	187.800000
749.836060	189.600000
749.873596	189.600000
749.911011	191.800000
749.948547	198.800000
749.986023	192.400000
750.023437	192.000000
750.060913	185.000000
750.098450	185.600000
750.135864	191.600000
750.173340	192.300000
750.210815	195.900000
750.248291	187.400000
750.285767	191.800000
750.323242	199.100000
750.360657	192.200000
750.398132	187.400000
750.435608	195.400000
750.473022	187.900000
750.510498	189.000000
750.547974	188.000000
750.585449	189.100000
750.622925	181.800000
750.660339	202.400000
750.697815	192.200000
750.735291	192.100000
750.772644	194.600000
750.810120	193.600000
750.847595	195.400000
750.885010	188.000000
750.922485	202.000000
750.959961	191.600000
750.997375	200.600000
751.034851	196.000000
751.072266	197.500000
751.109680	185.300000
751.147156	198.500000
751.184570	197.200000
751.221985	194.000000
751.259460	183.700000
751.296875	192.900000
751.334290	194.400000
751.371765	197.900000
751.409180	194.900000
751.446594	197.900000
751.484070	194.800000
751.521423	193.900000
751.558899	194.300000
751.596375	200.500000
751.633728	200.600000
751.671204	206.100000
751.708618	188.700000
751.746033	192.600000
751.783447	186.200000
751.820801	188.400000
751.858276	195.600000
751.895691	190.500000
751.933105	190.100000
751.970520	185.600000
752.007935	189.700000
752.045349	197.700000
752.082764	192.400000
752.120178	190.000000
752.157532	187.200000
752.195007	189.500000
752.232422	195.900000
752.269775	198.200000
752.307190	195.500000
752.344543	187.500000
752.382019	190.500000
752.419434	191.700000
752.456787	194.300000
752.494202	196.400000
752.531616	194.700000
752.568970	197.700000
752.606384	192.600000
752.643799	194.200000
752.681152	201.100000
752.718567	195.300000
752.755981	184.900000
752.793335	195.900000
752.830750	184.800000
752.868164	198.500000
752.905518	188.200000
752.942932	197.300000
752.980225	187.300000
753.017639	197.600000
753.055054	193.100000
753.092407	196.100000
753.129822	199.300000
753.167175	204.000000
753.204529	191.500000
753.241943	189.700000
753.279358	187.200000
753.316650	195.500000
753.354065	194.800000
753.391479	197.800000
753.428772	201.500000
753.466187	196.400000
753.503479	186.800000
753.540894	191.600000
753.578308	186.600000
753.615601	187.000000
753.653015	193.100000
753.690369	189.100000
753.727722	186.700000
753.765076	184.600000
753.802490	186.700000
753.839783	183.000000
753.877136	189.600000
753.914551	208.100000
753.951843	187.300000
753.989258	195.700000
754.026611	195.000000
754.063904	194.400000
754.101257	185.700000
754.138611	185.300000
754.175964	192.900000
754.213318	203.900000
754.250610	185.300000
754.288025	189.500000
754.325378	186.200000
754.362671	198.500000
754.400024	190.800000
754.437378	201.800000
754.474670	203.000000
754.512085	189.500000
754.549438	193.100000
754.586731	190.300000
754.624084	192.000000
754.661438	188.300000
754.698730	200.800000
754.736084	191.500000
754.773376	192.000000
754.810730	196.200000
754.848083	192.800000
754.885315	197.500000
754.922668	185.500000
754.960022	187.600000
754.997314	197.900000
755.034668	193.500000
755.072021	194.600000
755.109253	191.400000
755.146606	201.900000
755.183960	192.600000
755.221252	204.100000
755.258545	199.500000
755.295898	199.900000
755.333191	201.100000
755.370544	197.100000
755.407776	194.400000
755.445129	194.600000
755.482422	199.300000
755.519714	191.600000
755.557068	185.400000
755.594360	186.400000
755.631653	198.900000
755.668945	204.900000
755.706299	197.100000
755.743530	206.900000
755.780884	203.200000
755.818176	202.200000
755.855408	200.900000
755.892761	198.200000
755.930054	198.000000
755.967346	198.100000
756.004639	200.800000
756.041870	197.400000
756.079224	203.000000
756.116516	195.300000
756.153748	202.800000
756.191040	206.200000
756.228394	200.700000
756.265625	194.600000
756.302917	199.600000
756.340210	195.800000
756.377441	203.400000
756.414795	206.500000
756.452087	198.600000
756.489319	192.800000
756.526611	201.700000
756.563843	200.200000
756.601135	209.800000
756.638428	208.200000
756.675659	200.400000
756.712952	203.300000
756.750244	204.000000
756.787476	201.200000
756.824768	207.500000
756.862061	198.200000
756.899292	246.200000
756.936584	204.400000
756.973816	212.900000
757.011047	213.100000
757.048340	201.700000
757.085632	201.000000
757.122864	216.700000
757.160156	199.300000
757.197327	205.000000
757.234619	206.800000
757.271912	201.100000
757.309082	206.700000
757.346375	199.900000
757.383667	209.000000
757.420837	202.600000
757.458130	204.800000
757.495422	202.700000
757.532593	206.400000
757.569885	196.600000
757.607117	199.600000
757.644348	205.700000
757.681580	218.300000
757.718811	192.500000
757.756042	203.100000
757.793335	202.000000
757.830505	208.900000
757.867798	202.900000
757.905029	201.900000
757.942200	206.400000
757.979492	201.700000
758.016724	204.300000
758.053894	202.500000
758.091187	225.600000
758.128418	208.200000
758.165588	205.700000
758.202820	217.800000
758.240112	209.600000
758.277283	217.900000
758.314514	209.300000
758.351685	204.900000
758.388916	217.100000
758.426147	214.700000
758.463379	216.400000
758.500610	211.000000
758.537842	209.000000
758.575012	216.800000
758.612244	205.500000
758.649475	222.300000
758.686646	202.900000
758.723877	217.100000
758.761108	218.300000
758.798279	208.200000
758.835510	212.500000
758.872742	218.100000
758.909851	212.500000
758.947083	214.400000
758.984253	213.400000
759.021484	216.100000
759.058716	215.500000
759.095886	215.800000
759.133057	211.400000
759.170288	215.800000
759.207458	209.500000
759.244690	224.500000
759.281860	221.500000
759.319031	212.000000
759.356262	209.400000
759.393433	211.000000
759.430603	211.200000
759.467773	212.500000
759.505005	221.800000
759.542175	219.600000
759.579346	212.100000
759.616516	215.900000
759.653687	216.900000
759.690918	211.200000
759.728027	214.700000
759.765259	216.300000
759.802429	219.000000
759.839539	217.200000
759.876770	220.800000
759.913940	224.200000
759.951111	216.000000
759.988281	215.800000
760.025452	212.800000
760.062561	213.700000
760.099792	226.700000
760.136963	219.400000
760.174072	216.300000
760.211243	212.100000
760.248413	214.000000
760.285583	213.100000
760.322754	230.300000
760.359863	222.900000
760.397034	225.000000
760.434204	216.100000
760.471375	218.100000
760.508545	216.900000
760.545715	218.400000
760.582825	213.200000
760.619995	226.400000
760.657166	212.000000
760.694275	225.700000
760.731445	222.200000
760.768555	223.000000
760.805664	223.500000
760.842834	222.000000
760.879944	224.100000
760.917114	222.600000
760.954285	220.400000
760.991394	215.900000
761.028564	227.500000
761.065674	225.300000
761.102783	218.300000
761.139954	228.500000
761.177124	229.800000
761.214172	231.800000
761.251343	223.700000
761.288452	225.000000
761.325562	229.700000
761.362732	222.700000
761.399841	226.500000
761.436951	228.800000
761.474121	224.800000
761.511169	228.900000
761.548340	233.100000
761.585449	233.000000
761.622559	231.700000
761.659668	232.100000
761.696838	238.500000
761.733887	233.400000
761.771057	231.600000
761.808167	232.700000
761.845276	236.900000
761.882385	246.400000
761.919434	235.000000
761.956604	255.100000
761.993713	232.100000
762.030762	241.500000
762.067871	236.800000
762.105042	235.900000
762.142090	245.600000
762.179199	239.000000
762.216309	243.600000
762.253418	253.800000
762.290527	249.700000
762.327637	246.200000
762.364685	234.600000
762.401794	244.100000
762.438904	244.100000
762.475952	238.300000
762.513062	236.900000
762.550110	238.700000
762.587219	253.700000
762.624329	253.300000
762.661377	246.500000
762.698486	245.500000
762.735596	244.200000
762.772644	239.200000
762.809753	236.600000
762.846863	245.400000
762.883911	249.300000
762.921021	248.400000
762.958069	248.200000
762.995117	255.400000
763.032227	257.300000
763.069336	249.500000
763.106323	244.100000
763.143433	242.400000
763.180481	252.200000
763.217590	251.900000
763.254639	247.900000
763.291687	250.100000
763.328735	260.600000
763.365845	253.200000
763.402893	250.700000
763.439941	255.500000
763.477051	258.400000
763.514038	259.500000
763.551147	251.800000
763.588196	255.700000
763.625244	254.800000
763.662292	262.700000
763.699402	266.500000
763.736389	262.300000
763.773499	270.900000
763.810486	264.500000
763.847534	261.400000
763.884644	263.500000
763.921631	259.300000
763.958679	271.900000
763.995728	261.100000
764.032776	270.700000
764.069824	255.900000
764.106873	265.300000
764.143860	272.300000
764.180969	265.900000
764.218018	273.100000
764.255005	265.900000
764.292053	266.700000
764.329102	277.200000
764.366089	277.800000
764.403137	275.700000
764.440125	266.400000
764.477173	269.000000
764.514221	271.800000
764.551208	268.600000
764.588257	265.900000
764.625305	276.700000
764.662292	283.600000
764.699341	287.300000
764.736389	279.000000
764.773376	292.700000
764.810425	281.500000
764.847473	289.400000
764.884399	282.800000
764.921448	292.200000
764.958435	289.700000
764.995483	280.000000
765.032532	295.500000
765.069458	280.500000
765.106506	281.200000
765.143555	279.800000
765.180481	286.300000
765.217529	293.300000
765.254578	278.000000
765.291504	289.100000
765.328552	284.700000
765.365540	281.700000
765.402527	298.400000
765.439575	283.600000
765.476501	279.500000
765.513550	279.400000
765.550537	285.200000
765.587463	293.500000
765.624512	286.100000
765.661499	276.500000
765.698486	295.800000
765.735474	283.500000
765.772461	288.500000
765.809448	297.400000
765.846436	296.800000
765.883423	296.700000
765.920410	292.300000
765.957397	287.200000
765.994385	293.200000
766.031311	302.800000
766.068359	295.500000
766.105286	297.400000
766.142273	301.700000
766.179260	297.800000
766.216187	294.000000
766.253174	288.500000
766.290161	299.000000
766.327148	302.200000
766.364136	302.500000
766.401123	317.200000
766.438049	295.100000
766.475037	310.900000
766.512024	306.400000
766.548950	321.800000
766.585937	317.400000
766.622864	313.500000
766.659790	310.300000
766.696777	301.900000
766.733704	320.500000
766.770691	312.800000
766.807678	324.800000
766.844604	323.500000
766.881531	320.800000
766.918518	327.700000
766.955444	329.500000
766.992432	321.900000
767.029358	325.300000
767.066284	329.400000
767.103271	325.900000
767.140198	357.100000
767.177124	343.600000
767.214050	334.700000
767.251038	336.300000
767.287964	333.900000
767.324890	330.600000
767.361816	337.300000
767.398743	343.600000
767.435730	339.500000
767.472595	343.900000
767.509583	350.200000
767.546509	336.700000
767.583374	343.200000
767.620361	336.200000
767.657288	345.400000
767.694214	343.600000
767.731140	343.800000
767.768066	345.300000
767.804993	351.000000
767.841919	340.200000
767.878845	348.600000
767.915710	355.500000
767.952698	352.200000
767.989563	353.400000
768.026489	355.500000
768.063416	348.300000
768.100281	350.500000
768.137207	364.000000
768.174133	364.700000
768.211060	363.300000
768.247986	363.000000
768.284912	362.300000
768.321777	365.500000
768.358704	361.000000
768.395630	365.800000
768.432495	360.700000
768.469421	368.500000
768.506348	375.400000
768.543152	382.400000
768.580078	377.600000
768.616943	378.000000
768.653870	381.000000
768.690796	380.800000
768.727661	378.200000
768.764587	382.000000
768.801453	374.900000
768.838318	386.600000
768.875244	384.300000
768.912109	392.600000
768.948975	386.800000
768.985901	387.800000
769.022766	385.200000
769.059631	391.500000
769.096558	387.100000
769.133362	389.600000
769.170288	391.300000
769.207214	391.000000
769.244019	398.900000
769.280945	396.300000
769.317810	404.300000
769.354675	399.800000
769.391541	409.200000
769.428406	406.100000
769.465271	417.400000
769.502136	404.200000
769.539062	408.700000
769.575867	409.500000
769.612732	410.500000
769.649597	416.300000
769.686462	419.900000
769.723328	413.600000
769.760193	413.400000
769.797058	414.900000
769.833923	423.200000
769.870728	420.100000
769.907593	423.300000
769.944519	424.300000
769.981323	426.100000
770.018188	431.000000
770.055054	425.100000
770.091858	427.900000
770.128723	440.700000
770.165588	444.800000
770.202393	428.200000
770.239258	444.000000
770.276062	435.300000
770.312927	437.100000
770.349792	443.400000
770.386597	444.300000
770.423462	452.100000
770.460327	459.700000
770.497131	443.100000
770.533997	437.800000
770.570862	453.400000
770.607605	456.400000
770.644470	448.100000
770.681335	449.600000
770.718140	450.800000
770.754944	442.800000
770.791809	445.600000
770.828613	447.200000
770.865479	447.000000
770.902222	458.500000
770.939087	452.100000
770.975952	440.800000
771.012695	447.800000
771.049561	467.000000
771.086365	452.200000
771.123169	449.800000
771.159973	452.900000
771.196838	454.100000
771.233582	456.800000
771.270447	459.800000
771.307251	458.900000
771.344055	453.900000
771.380859	462.400000
771.417664	453.200000
771.454468	463.800000
771.491272	463.400000
771.528076	462.700000
771.564880	462.900000
771.601685	474.900000
771.638428	464.500000
771.675293	472.800000
771.712097	459.800000
771.748840	478.400000
771.785645	472.000000
771.822449	475.700000
771.859253	479.500000
771.896057	475.900000
771.932861	491.300000
771.969604	477.200000
772.006409	473.100000
772.043213	488.000000
772.079956	484.200000
772.116760	478.300000
772.153503	481.800000
772.190308	491.500000
772.227112	487.100000
772.263855	479.300000
772.300659	489.100000
772.337463	498.400000
772.374207	485.600000
772.411011	484.400000
772.447754	488.300000
772.484497	508.000000
772.521301	504.100000
772.558105	501.000000
772.594849	503.600000
772.631592	510.400000
772.668396	509.900000
772.705139	515.400000
772.741882	515.000000
772.778625	528.700000
772.815430	528.800000
772.852173	521.200000
772.888916	534.700000
772.925720	534.100000
772.962463	544.200000
772.999207	540.400000
773.035950	539.700000
773.072754	545.200000
773.109436	541.400000
773.146240	543.800000
773.182922	540.800000
773.219727	555.700000
773.256470	547.800000
773.293152	532.400000
773.329956	545.700000
773.366699	550.000000
773.403381	544.100000
773.440186	554.200000
773.476929	558.400000
773.513611	550.400000
773.550354	552.500000
773.587158	551.800000
773.623840	549.100000
773.660583	565.500000
773.697327	575.600000
773.734009	564.100000
773.770813	567.400000
773.807495	564.500000
773.844238	569.600000
773.880981	587.000000
773.917664	586.600000
773.954407	585.400000
773.991150	575.700000
774.027832	584.900000
774.064575	579.200000
774.101318	588.600000
774.138000	596.200000
774.174744	591.400000
774.211487	594.900000
774.248108	583.400000
774.284851	583.100000
774.321594	599.500000
774.358276	602.100000
774.395020	612.500000
774.431702	611.300000
774.468384	598.000000
774.505127	599.400000
774.541809	614.100000
774.578491	626.500000
774.615234	629.500000
774.651917	617.500000
774.688599	622.600000
774.725342	632.500000
774.762024	627.700000
774.798706	636.700000
774.835449	636.000000
774.872070	644.000000
774.908813	640.100000
774.945496	632.500000
774.982178	636.000000
775.018860	645.700000
775.055542	648.200000
775.092224	649.000000
775.128967	657.700000
775.165588	648.800000
775.202271	641.600000
775.239014	659.200000
775.275635	662.600000
775.312317	660.700000
775.349060	664.700000
775.385681	664.400000
775.422363	653.400000
775.459045	663.300000
775.495667	667.700000
775.532410	673.700000
775.569092	673.800000
775.605713	670.000000
775.642395	669.900000
775.679016	673.800000
775.715698	677.400000
775.752380	685.200000
775.789001	678.400000
775.825684	673.400000
775.862366	674.400000
775.898987	691.100000
775.935669	679.300000
775.972351	704.200000
776.008972	698.800000
776.045654	695.900000
776.082336	689.100000
776.118958	691.900000
776.155640	697.400000
776.192322	706.300000
776.228882	711.800000
776.265564	703.300000
776.302185	697.900000
776.338867	708.000000
776.375488	691.300000
776.412109	707.800000
776.448792	715.300000
776.485413	721.200000
776.522034	708.900000
776.558716	703.700000
776.595337	703.000000
776.631958	711.500000
776.668579	708.900000
776.705261	716.500000
776.741882	713.500000
776.778503	711.800000
776.815186	699.100000
776.851746	713.500000
776.888367	716.900000
776.924988	726.500000
776.961609	713.600000
776.998291	714.300000
777.034851	702.500000
777.071472	719.100000
777.108154	714.000000
777.144714	731.300000
777.181335	727.600000
777.218018	719.100000
777.254578	726.800000
777.291199	727.500000
777.327759	731.100000
777.364380	741.700000
777.401062	746.600000
777.437622	758.900000
777.474243	743.600000
777.510864	754.500000
777.547424	750.000000
777.584045	753.200000
777.620667	759.600000
777.657227	764.300000
777.693848	766.400000
777.730469	781.500000
777.767029	767.600000
777.803650	779.000000
777.840271	765.600000
777.876831	764.500000
777.913452	775.400000
777.950012	755.300000
777.986633	761.100000
778.023193	754.500000
778.059753	759.900000
778.096375	761.600000
778.132996	774.500000
778.169556	761.700000
778.206116	767.000000
778.242737	763.500000
778.279297	776.900000
778.315857	771.500000
778.352478	775.900000
778.389038	790.500000
778.425598	790.200000
778.462219	798.100000
778.498718	796.400000
778.535339	805.100000
778.571838	805.700000
778.608459	816.300000
778.645020	806.100000
778.681580	817.800000
778.718140	819.700000
778.754761	818.700000
778.791260	824.300000
778.827881	835.600000
778.864441	829.700000
778.900940	833.700000
778.937561	832.600000
778.974121	834.400000
779.010620	818.200000
779.047241	828.300000
779.083801	840.500000
779.120300	838.600000
779.156860	847.100000
779.193359	840.500000
779.229980	841.300000
779.266541	851.300000
779.303040	860.600000
779.339600	850.500000
779.376160	846.500000
779.412659	855.000000
779.449219	847.500000
779.485779	858.200000
779.522278	864.400000
779.558838	867.200000
779.595398	866.500000
779.631897	870.400000
779.668457	861.100000
779.705017	874.500000
779.741516	865.200000
779.778076	856.400000
779.814575	868.300000
779.851074	876.000000
779.887634	869.800000
779.924133	877.800000
779.960693	867.800000
779.997253	878.000000
780.033691	885.500000
780.070251	887.900000
780.106812	899.900000
780.143250	894.900000
780.179810	893.100000
780.216370	893.600000
780.252808	904.200000
780.289368	918.700000
780.325867	918.200000
780.362366	919.900000
780.398865	937.400000
780.435364	917.300000
780.471863	936.900000
780.508423	932.300000
780.544861	938.100000
780.581421	946.600000
780.617920	938.200000
780.654419	932.900000
780.690918	945.300000
780.727417	953.300000
780.763916	950.400000
780.800415	958.200000
780.836914	939.600000
780.873352	941.900000
780.909912	938.800000
780.946411	952.100000
780.982849	955.300000
781.019348	976.500000
781.055786	969.000000
781.092346	966.100000
781.128845	972.700000
781.165283	976.800000
781.201782	985.500000
781.238281	989.000000
781.274719	992.900000
781.311218	980.700000
781.347717	992.500000
781.384155	983.900000
781.420654	987.900000
781.457092	997.400000
781.493591	993.800000
781.530090	988.500000
781.566528	988.900000
781.602966	991.300000
781.639465	986.600000
781.675903	990.200000
781.712402	1001.700000
781.748901	1008.700000
781.785278	996.000000
781.821777	1005.800000
781.858276	997.100000
781.894714	1012.100000
781.931152	1006.900000
781.967651	1015.100000
782.004089	1005.000000
782.040527	1014.000000
782.076965	1012.800000
782.113403	1015.500000
782.149902	1019.800000
782.186340	1023.300000
782.222778	1035.300000
782.259277	1013.500000
782.295654	1012.800000
782.332092	1018.900000
782.368591	1017.800000
782.404968	1007.600000
782.441467	1013.100000
782.477905	1007.800000
782.514282	1003.900000
782.550781	1024.200000
782.587219	1021.300000
782.623596	1025.500000
782.660095	1030.300000
782.696472	1040.000000
782.732910	1037.300000
782.769348	1044.900000
782.805786	1065.200000
782.842224	1062.200000
782.878662	1049.700000
782.915039	1055.000000
782.951477	1056.000000
782.987915	1041.400000
783.024292	1051.500000
783.060730	1049.300000
783.097168	1031.400000
783.133545	1028.300000
783.169983	1021.400000
783.206421	1019.300000
783.242798	1018.200000
783.279236	999.700000
783.315613	998.700000
783.352051	993.600000
783.388489	988.200000
783.424866	969.400000
783.461304	981.700000
783.497681	989.900000
783.534058	976.700000
783.570496	975.400000
783.606934	964.600000
783.643250	965.200000
783.679687	967.600000
783.716125	936.100000
783.752441	900.400000
783.788879	844.200000
783.825317	752.900000
783.861633	649.500000
783.898071	548.500000
783.934448	473.500000
783.970825	415.000000
784.007263	381.400000
784.043579	382.400000
784.080017	420.900000
784.116394	479.900000
784.152710	571.100000
784.189148	675.900000
784.225525	770.800000
784.261902	852.300000
784.298279	924.000000
784.334656	980.800000
784.371033	1011.900000
784.407410	1045.700000
784.443787	1041.400000
784.480164	1029.800000
784.516541	1019.800000
784.552856	1023.200000
784.589233	1021.000000
784.625610	1019.400000
784.661987	1053.900000
784.698364	1039.900000
784.734741	1030.700000
784.771057	1027.200000
784.807434	1039.800000
784.843811	1051.500000
784.880127	1058.900000
784.916504	1091.300000
784.952881	1091.800000
784.989197	1087.500000
785.025574	1086.400000
785.061951	1092.200000
785.098267	1120.900000
785.134644	1127.600000
785.170959	1126.600000
785.207275	1127.300000
785.243652	1125.700000
785.279968	1112.400000
785.316345	1124.100000
785.352722	1130.600000
785.388977	1126.600000
785.425354	1110.100000
785.461731	1085.400000
785.498047	1077.600000
785.534363	1073.800000
785.570679	1073.300000
785.606995	1075.500000
785.643372	1080.500000
785.679687	1071.500000
785.716003	1057.300000
785.752380	1051.500000
785.788635	1061.000000
785.825012	1089.000000
785.861328	1094.700000
785.897644	1077.400000
785.933960	1092.100000
785.970337	1095.400000
786.006592	1112.500000
786.042908	1123.500000
786.079285	1145.100000
786.115540	1151.700000
786.151855	1154.700000
786.188171	1146.900000
786.224487	1151.200000
786.260803	1149.700000
786.297119	1169.800000
786.333435	1174.300000
786.369751	1164.500000
786.406006	1167.500000
786.442322	1147.700000
786.478638	1138.300000
786.514954	1159.400000
786.551270	1159.300000
786.587585	1167.600000
786.623840	1147.600000
786.660156	1139.900000
786.696472	1125.700000
786.732727	1125.200000
786.769043	1127.900000
786.805298	1116.800000
786.841614	1119.300000
786.877930	1125.000000
786.914124	1110.100000
786.950439	1128.300000
786.986755	1132.500000
787.023010	1146.400000
787.059326	1155.300000
787.095642	1159.900000
787.131836	1177.600000
787.168152	1164.800000
787.204468	1166.100000
787.240723	1189.100000
787.276978	1205.000000
787.313293	1211.700000
787.349548	1207.800000
787.385803	1203.200000
787.422058	1197.000000
787.458313	1196.800000
787.494629	1204.300000
787.530823	1204.200000
787.567139	1192.800000
787.603455	1178.800000
787.639648	1161.200000
787.675903	1168.500000
787.712219	1171.200000
787.748413	1169.000000
787.784729	1180.100000
787.820984	1163.500000
787.857178	1150.400000
787.893494	1144.300000
787.929749	1141.800000
787.965942	1147.700000
788.002258	1163.000000
788.038452	1165.100000
788.074707	1158.200000
788.110962	1160.900000
788.147217	1150.600000
788.183472	1162.200000
788.219727	1177.600000
788.255920	1193.000000
788.292175	1194.000000
788.328430	1188.500000
788.364624	1169.300000
788.400879	1164.900000
788.437134	1178.400000
788.473328	1177.200000
788.509583	1171.200000
788.545837	1163.500000
788.582031	1160.300000
788.618286	1145.500000
788.654480	1138.000000
788.690735	1150.700000
788.726990	1168.200000
788.763184	1167.900000
788.799377	1178.500000
788.835632	1169.400000
788.871826	1185.300000
788.908081	1189.500000
788.944336	1181.400000
788.980469	1203.200000
789.016724	1194.400000
789.052979	1189.600000
789.089111	1169.300000
789.125366	1179.900000
789.161621	1164.300000
789.197754	1176.500000
789.234009	1169.500000
789.270142	1149.500000
789.306396	1136.800000
789.342590	1120.900000
789.378784	1098.400000
789.414978	1104.300000
789.451233	1125.700000
789.487366	1129.400000
789.523621	1133.300000
789.559814	1122.700000
789.595947	1108.800000
789.632202	1117.200000
789.668335	1138.700000
789.704529	1153.000000
789.740784	1170.700000
789.776917	1175.700000
789.813110	1155.900000
789.849304	1168.800000
789.885498	1175.000000
789.921692	1193.700000
789.957886	1195.800000
789.994019	1203.500000
790.030212	1190.700000
790.066406	1196.000000
790.102539	1191.400000
790.138733	1202.900000
790.174927	1198.400000
790.211060	1207.200000
790.247253	1191.200000
790.283386	1176.700000
790.319580	1158.100000
790.355774	1145.600000
790.391907	1153.400000
790.428101	1176.700000
790.464294	1184.500000
790.500427	1178.400000
790.536621	1155.100000
790.572754	1150.000000
790.608887	1153.500000
790.645081	1160.400000
790.681274	1172.500000
790.717346	1174.100000
790.753540	1138.900000
790.789734	1059.100000
790.825867	1002.700000
790.862000	995.300000
790.898132	1034.300000
790.934265	1084.100000
790.970459	1142.800000
791.006592	1157.500000
791.042725	1154.900000
791.078918	1149.800000
791.114990	1161.200000
791.151184	1174.200000
791.187317	1196.900000
791.223389	1188.500000
791.259583	1172.000000
791.295715	1178.900000
791.331848	1185.700000
791.367981	1193.800000
791.404114	1195.700000
791.440247	1193.300000
791.476379	1202.000000
791.512451	1176.900000
791.548584	1178.800000
791.584778	1176.500000
791.620850	1192.900000
791.656982	1196.400000
791.693115	1194.800000
791.729187	1188.600000
791.765381	1174.200000
791.801514	1179.500000
791.837585	1179.800000
791.873718	1184.200000
791.909851	1198.300000
791.945923	1208.000000
791.982056	1165.700000
792.018188	1162.100000
792.054260	1176.300000
792.090393	1180.100000
792.126465	1169.900000
792.162598	1176.200000
792.198669	1163.800000
792.234741	1159.800000
792.270874	1149.500000
792.307007	1135.000000
792.343079	1148.300000
792.379150	1164.700000
792.415283	1139.200000
792.451355	1147.300000
792.487488	1121.700000
792.523560	1125.500000
792.559631	1131.700000
792.595764	1129.500000
792.631836	1131.100000
792.667908	1141.100000
792.703979	1119.400000
792.740051	1119.900000
792.776184	1129.000000
792.812256	1130.800000
792.848328	1138.600000
792.884399	1138.100000
792.920471	1135.600000
792.956543	1128.100000
792.992615	1123.900000
793.028748	1118.300000
793.064758	1125.300000
793.100830	1153.400000
793.136963	1164.500000
793.172974	1154.000000
793.209045	1147.600000
793.245178	1157.900000
793.281189	1142.100000
793.317261	1155.700000
793.353271	1155.600000
793.389404	1159.900000
793.425476	1153.400000
793.461487	1139.700000
793.497559	1131.500000
793.533630	1139.400000
793.569641	1140.800000
793.605713	1144.000000
793.641785	1146.900000
793.677795	1159.400000
793.713867	1144.400000
793.749878	1146.700000
793.785950	1159.700000
793.822021	1165.600000
793.858032	1150.400000
793.894104	1163.000000
793.930176	1144.600000
793.966187	1152.600000
794.002258	1138.200000
794.038269	1140.700000
794.074280	1136.600000
794.110352	1161.800000
794.146423	1136.100000
794.182373	1125.500000
794.218445	1118.500000
794.254517	1113.800000
794.290466	1100.300000
794.326538	1108.400000
794.362549	1107.300000
794.398560	1109.500000
794.434631	1114.000000
794.470581	1085.900000
794.506653	1078.800000
794.542664	1082.700000
794.578674	1076.700000
794.614685	1076.700000
794.650757	1071.300000
794.686707	1063.800000
794.722778	1058.000000
794.758789	1065.700000
794.794739	1074.500000
794.830811	1100.300000
794.866821	1116.300000
794.902771	1110.400000
794.938843	1092.400000
794.974792	1086.100000
795.010803	1091.300000
795.046814	1091.300000
795.082825	1079.600000
795.118835	1096.000000
795.154846	1078.400000
795.190796	1083.500000
795.226807	1057.100000
795.262817	1064.700000
795.298767	1061.900000
795.334778	1062.200000
795.370850	1051.200000
795.406799	1055.200000
795.442810	1035.300000
795.478821	1031.100000
795.514709	1031.800000
795.550720	1047.700000
795.586670	1031.400000
795.622681	1038.600000
795.658691	1032.000000
795.694641	1028.600000
795.730652	1017.100000
795.766663	1022.200000
795.802551	1027.800000
795.838562	1048.000000
795.874573	1026.600000
795.910522	1023.500000
795.946472	1010.500000
795.982483	1022.000000
796.018433	1019.700000
796.054382	1035.300000
796.090393	1021.000000
796.126282	1008.700000
796.162292	996.100000
796.198242	994.400000
796.234192	1000.600000
796.270203	999.800000
796.306091	1003.400000
796.342041	1015.500000
796.378052	1003.800000
796.413940	998.000000
796.449951	1002.300000
796.485901	1003.800000
796.521790	1000.100000
796.557800	1013.300000
796.593689	1011.300000
796.629639	997.700000
796.665649	988.600000
796.701599	993.300000
796.737488	990.200000
796.773437	997.200000
796.809387	994.600000
796.845337	990.200000
796.881287	975.100000
796.917175	961.200000
796.953125	966.800000
796.989075	977.900000
797.024963	983.000000
797.060913	977.100000
797.096863	975.000000
797.132751	973.500000
797.168701	955.200000
797.204590	963.700000
797.240540	961.000000
797.276489	972.100000
797.312439	977.300000
797.348328	969.600000
797.384277	955.700000
797.420166	949.500000
797.456055	952.100000
797.492004	942.900000
797.527893	956.700000
797.563843	960.100000
797.599731	946.800000
797.635620	930.600000
797.671570	937.600000
797.707520	937.600000
797.743347	937.600000
797.779297	949.900000
797.815125	944.700000
797.851074	930.300000
797.887024	927.700000
797.922913	918.600000
797.958801	933.000000
797.994690	927.700000
798.030579	932.100000
798.066467	938.000000
798.102356	922.800000
798.138245	914.600000
798.174133	911.100000
798.210083	920.400000
798.245911	928.300000
798.281799	933.600000
798.317749	920.800000
798.353577	910.900000
798.389465	908.500000
798.425293	907.300000
798.461243	901.800000
798.497131	908.100000
798.532959	909.200000
798.568848	915.600000
798.604736	900.100000
798.640564	887.300000
798.676453	889.600000
798.712402	903.400000
798.748230	904.400000
798.784119	896.700000
798.820007	895.500000
798.855835	891.000000
798.891724	884.300000
798.927551	882.500000
798.963379	896.700000
798.999268	886.600000
799.035095	883.600000
799.070984	876.800000
799.106873	867.200000
799.142700	877.600000
799.178528	869.600000
799.214417	865.700000
799.250244	883.600000
799.286133	874.900000
799.321960	871.200000
799.357788	864.500000
799.393677	867.200000
799.429504	864.700000
799.465332	866.800000
799.501221	877.900000
799.537048	870.700000
799.572876	858.600000
799.608704	861.200000
799.644531	866.600000
799.680359	860.600000
799.716248	866.900000
799.752014	876.900000
799.787903	864.800000
799.823730	864.400000
799.859558	853.300000
799.895386	854.500000
799.931213	858.000000
799.967041	847.300000
800.002869	845.600000
800.038696	860.400000
800.074463	833.500000
800.110352	838.800000
800.146179	831.400000
800.181946	837.600000
800.217773	837.600000
800.253540	833.000000
800.289429	828.100000
800.325256	819.500000
800.361023	815.200000
800.396851	820.600000
800.432678	822.300000
800.468445	816.900000
800.504272	811.500000
800.540100	796.500000
800.575867	794.900000
800.611694	803.900000
800.647461	790.600000
800.683289	793.000000
800.719116	798.400000
800.754883	793.700000
800.790649	778.100000
800.826477	770.900000
800.862244	791.000000
800.898071	776.800000
800.933838	767.800000
800.969604	766.700000
801.005432	764.600000
801.041199	768.200000
801.076965	761.700000
801.112793	753.100000
801.148560	741.300000
801.184326	741.800000
801.220154	745.700000
801.255859	738.300000
801.291687	735.300000
801.327454	728.300000
801.363281	728.500000
801.398987	730.100000
801.434814	731.400000
801.470520	738.900000
801.506287	721.700000
801.542114	718.600000
801.577820	719.000000
801.613647	718.300000
801.649414	715.200000
801.685120	716.500000
801.720886	718.500000
801.756714	706.900000
801.792419	697.900000
801.828186	693.200000
801.863892	707.100000
801.899719	696.400000
801.935486	692.600000
801.971252	702.800000
802.006958	693.700000
802.042725	690.100000
802.078430	688.300000
802.114197	681.500000
802.149963	697.300000
802.185669	684.800000
802.221436	678.300000
802.257202	684.000000
802.292908	678.300000
802.328674	684.900000
802.364441	684.000000
802.400146	680.000000
802.435913	673.300000
802.471558	669.900000
802.507324	665.400000
802.543091	656.900000
802.578796	670.800000
802.614502	669.800000
802.650269	671.600000
802.685974	655.400000
802.721741	665.700000
802.757446	661.700000
802.793152	659.700000
802.828918	669.700000
802.864624	665.200000
802.900330	658.500000
802.936035	657.300000
802.971802	652.900000
803.007446	647.500000
803.043213	642.200000
803.078857	649.600000
803.114624	635.800000
803.150330	642.400000
803.185974	631.400000
803.221741	630.500000
803.257446	635.700000
803.293152	639.800000
803.328857	629.900000
803.364563	625.800000
803.400208	619.900000
803.435974	629.600000
803.471680	622.200000
803.507324	618.700000
803.543030	625.000000
803.578735	627.700000
803.614441	615.300000
803.650146	625.700000
803.685791	611.000000
803.721497	610.600000
803.757202	599.500000
803.792847	608.900000
803.828552	601.300000
803.864258	603.000000
803.899902	601.500000
803.935608	585.200000
803.971313	595.600000
804.006958	592.800000
804.042664	589.600000
804.078308	596.000000
804.113953	586.200000
804.149658	591.600000
804.185364	582.200000
804.221008	591.200000
804.256714	582.000000
804.292297	582.200000
804.328003	577.200000
804.363708	571.600000
804.399292	568.800000
804.434998	571.600000
804.470703	560.900000
804.506287	574.600000
804.541992	565.200000
804.577637	568.800000
804.613281	557.400000
804.648926	558.500000
804.684570	561.300000
804.720215	557.700000
804.755920	559.400000
804.791565	552.300000
804.827209	557.500000
804.862854	550.300000
804.898437	542.600000
804.934143	545.400000
804.969788	550.000000
805.005371	550.300000
805.041077	548.500000
805.076721	547.100000
805.112305	537.600000
805.147949	539.400000
805.183655	532.600000
805.219238	539.600000
805.254883	537.800000
805.290466	540.700000
805.326111	532.600000
805.361755	526.200000
805.397400	529.700000
805.432983	532.100000
805.468628	532.300000
805.504211	539.100000
805.539856	533.200000
805.575500	540.500000
805.611084	530.900000
805.646729	516.600000
805.682373	523.900000
805.717957	532.600000
805.753601	532.900000
805.789246	515.100000
805.824768	528.400000
805.860413	527.500000
805.895996	516.400000
805.931641	514.600000
805.967224	521.200000
806.002869	516.700000
806.038452	524.600000
806.074036	521.800000
806.109619	509.300000
806.145264	505.100000
806.180847	506.700000
806.216431	502.300000
806.252014	505.800000
806.287659	505.200000
806.323181	515.400000
806.358826	507.500000
806.394409	486.600000
806.429993	492.200000
806.465576	506.800000
806.501160	492.800000
806.536743	483.500000
806.572327	497.300000
806.607910	491.100000
806.643494	488.700000
806.679077	486.800000
806.714661	490.100000
806.750244	490.400000
806.785828	480.900000
806.821350	479.800000
806.856934	487.900000
806.892517	480.200000
806.928101	474.200000
806.963684	475.700000
806.999268	487.400000
807.034790	465.500000
807.070374	471.100000
807.105896	468.200000
807.141479	463.200000
807.177063	470.400000
807.212585	460.800000
807.248169	462.000000
807.283752	467.800000
807.319275	459.200000
807.354858	461.600000
807.390381	456.800000
807.425903	458.200000
807.461487	452.400000
807.497070	446.100000
807.532593	444.600000
807.568115	443.700000
807.603699	443.400000
807.639221	438.500000
807.674744	442.900000
807.710266	446.800000
807.745850	449.000000
807.781372	438.900000
807.816895	435.400000
807.852417	440.900000
807.888000	436.900000
807.923523	434.000000
807.959045	439.300000
807.994629	426.300000
808.030090	422.800000
808.065613	432.500000
808.101135	435.000000
808.136658	432.000000
808.172241	427.300000
808.207764	427.200000
808.243225	422.100000
808.278809	416.900000
808.314270	427.000000
808.349792	412.300000
808.385315	413.600000
808.420837	417.800000
808.456360	422.700000
808.491882	419.600000
808.527344	413.800000
808.562866	423.000000
808.598389	416.100000
808.633850	408.300000
808.669434	405.600000
808.704895	415.600000
808.740417	418.300000
808.775940	409.500000
808.811462	406.800000
808.846924	396.000000
808.882385	394.200000
808.917847	394.400000
808.953369	395.400000
808.988892	391.000000
809.024353	401.100000
809.059875	396.400000
809.095398	391.500000
809.130798	387.100000
809.166321	387.500000
809.201843	385.700000
809.237305	387.900000
809.272766	394.900000
809.308228	380.000000
809.343750	378.700000
809.379211	383.000000
809.414734	381.800000
809.450134	388.300000
809.485657	371.800000
809.521118	379.800000
809.556580	377.700000
809.592102	375.000000
809.627502	372.500000
809.663025	372.200000
809.698486	366.900000
809.733887	363.300000
809.769409	367.300000
809.804871	357.800000
809.840271	361.100000
809.875793	363.800000
809.911194	365.900000
809.946655	361.300000
809.982178	356.100000
810.017639	360.800000
810.053040	356.600000
810.088501	354.300000
810.123901	352.500000
810.159424	350.900000
810.194885	344.500000
810.230286	350.800000
810.265747	346.800000
810.301208	341.200000
810.336609	344.500000
810.372070	339.400000
810.407532	342.200000
810.442932	341.600000
810.478394	346.000000
810.513794	343.500000
810.549255	340.600000
810.584717	339.800000
810.620117	332.200000
810.655518	342.700000
810.690979	339.700000
810.726379	336.700000
810.761841	327.500000
810.797302	329.700000
810.832642	325.600000
810.868103	338.100000
810.903564	326.300000
810.938904	332.400000
810.974365	324.000000
811.009827	328.700000
811.045166	322.000000
811.080627	315.700000
811.115967	320.600000
811.151428	328.900000
811.186829	320.800000
811.222229	320.600000
811.257629	313.500000
811.293091	320.700000
811.328430	325.900000
811.363892	322.500000
811.399292	323.500000
811.434631	317.900000
811.470093	322.000000
811.505493	311.800000
811.540833	314.400000
811.576294	318.600000
811.611694	313.200000
811.647034	309.800000
811.682434	311.500000
811.717773	313.400000
811.753235	317.100000
811.788635	311.600000
811.823975	312.700000
811.859375	321.000000
811.894775	304.400000
811.930115	308.700000
811.965515	307.400000
812.000916	309.800000
812.036255	305.700000
812.071655	309.900000
812.106995	301.400000
812.142395	302.300000
812.177795	310.600000
812.213196	307.800000
812.248474	307.800000
812.283875	298.900000
812.319214	303.400000
812.354614	302.500000
812.390015	299.500000
812.425293	301.500000
812.460693	299.500000
812.496094	297.000000
812.531433	290.500000
812.566772	293.000000
812.602173	294.800000
812.637451	296.700000
812.672852	290.900000
812.708191	295.200000
812.743530	291.300000
812.778931	283.600000
812.814270	286.700000
812.849609	295.000000
812.884949	288.200000
812.920227	280.800000
812.955627	297.700000
812.990967	287.900000
813.026306	284.800000
813.061646	273.000000
813.096985	271.600000
813.132324	271.200000
813.167664	276.500000
813.203003	281.100000
813.238281	266.400000
813.273682	267.500000
813.308960	263.800000
813.344299	267.500000
813.379639	276.700000
813.414978	269.000000
813.450256	267.600000
813.485596	273.100000
813.520874	265.600000
813.556213	268.900000
813.591614	273.800000
813.626831	263.300000
813.662170	267.500000
813.697510	278.000000
813.732788	260.400000
813.768127	267.900000
813.803467	268.500000
813.838745	262.600000
813.874084	266.500000
813.909363	265.900000
813.944641	267.900000
813.979980	254.800000
814.015320	261.200000
814.050598	259.000000
814.085876	263.100000
814.121155	258.900000
814.156494	257.600000
814.191772	259.500000
814.227051	255.900000
814.262390	257.400000
814.297668	257.800000
814.332947	258.700000
814.368225	252.200000
814.403564	256.300000
814.438782	253.200000
814.474121	253.300000
814.509338	250.200000
814.544617	258.800000
814.579956	250.200000
814.615173	261.000000
814.650513	256.000000
814.685791	248.900000
814.721008	252.300000
814.756348	252.300000
814.791626	248.700000
814.826843	249.300000
814.862122	248.400000
814.897400	245.300000
814.932678	247.600000
814.967957	248.900000
815.003235	246.300000
815.038452	242.200000
815.073730	238.500000
815.108948	251.000000
815.144226	248.500000
815.179504	252.400000
815.214722	236.300000
815.250000	234.800000
815.285278	242.100000
815.320496	235.900000
815.355774	240.400000
815.391052	241.200000
815.426270	238.000000
815.461487	237.200000
815.496765	232.600000
815.531982	230.400000
815.567261	236.800000
815.602539	245.400000
815.637695	238.000000
815.672974	241.900000
815.708191	239.000000
815.743408	241.300000
815.778687	233.900000
815.813904	244.100000
815.849121	226.100000
815.884399	227.800000
815.919556	227.600000
815.954834	229.700000
815.990051	232.300000
816.025269	236.600000
816.060486	227.000000
816.095703	226.200000
816.130920	230.700000
816.166199	225.700000
816.201416	231.800000
816.236572	237.600000
816.271851	226.000000
816.307007	234.000000
816.342224	223.400000
816.377441	226.400000
816.412659	220.000000
816.447876	230.400000
816.483093	225.200000
816.518250	226.100000
816.553467	224.700000
816.588745	228.200000
816.623901	222.700000
816.659119	214.400000
816.694275	222.000000
816.729492	218.600000
816.764709	254.900000
816.799927	214.400000
816.835083	221.700000
816.870300	215.600000
816.905457	220.000000
816.940674	223.200000
816.975830	216.900000
817.010986	214.000000
817.046204	217.300000
817.081421	212.200000
817.116577	213.100000
817.151733	221.800000
817.186951	221.400000
817.222107	219.100000
817.257324	220.200000
817.292419	217.600000
817.327637	209.300000
817.362854	213.700000
817.398010	210.000000
817.433167	211.300000
817.468323	212.000000
817.503479	212.600000
817.538635	221.200000
817.573853	216.000000
817.608948	212.700000
817.644165	209.400000
817.679321	207.700000
817.714478	207.900000
817.749634	213.600000
817.784790	223.700000
817.819946	217.800000
817.855103	200.900000
817.890198	210.300000
817.925415	202.200000
817.960571	212.100000
817.995667	209.800000
818.030823	212.300000
818.066040	205.600000
818.101135	209.500000
818.136292	208.100000
818.171448	202.300000
818.206543	207.500000
818.241699	211.100000
818.276855	208.300000
818.311951	207.100000
818.347107	203.600000
818.382263	209.600000
818.417358	214.400000
818.452515	215.600000
818.487610	214.600000
818.522766	203.200000
818.557922	215.200000
818.593018	209.200000
818.628113	208.200000
818.663269	203.300000
818.698364	207.200000
818.733521	204.100000
818.768677	208.100000
818.803711	199.500000
818.838867	203.200000
818.874023	204.500000
818.909058	202.100000
818.944214	199.200000
818.979370	207.400000
819.014404	204.100000
819.049561	200.300000
819.084595	204.700000
819.119751	198.000000
819.154846	205.500000
819.189941	202.000000
819.225037	195.900000
819.260193	192.800000
819.295227	196.100000
819.330322	192.100000
819.365479	190.500000
819.400513	224.800000
819.435608	190.800000
819.470764	191.000000
819.505798	192.100000
819.540894	197.100000
819.575989	193.300000
819.611084	203.200000
819.646179	202.800000
819.681213	199.900000
819.716309	195.600000
819.751404	196.100000
819.786438	202.000000
819.821533	192.000000
819.856628	198.900000
819.891663	200.800000
819.926758	206.700000
819.961853	203.700000
819.996887	194.500000
820.031982	200.500000
820.067017	196.500000
820.102112	224.600000
820.137207	196.200000
820.172302	212.300000
820.207275	193.400000
820.242371	193.800000
820.277405	194.300000
820.312500	195.500000
820.347534	197.800000
820.382568	201.400000
820.417664	195.700000
820.452759	193.900000
820.487732	192.600000
820.522827	195.200000
820.557861	190.200000
820.592896	193.700000
820.627930	194.400000
820.662964	191.800000
820.698059	196.900000
820.733093	193.700000
820.768127	198.000000
820.803162	194.700000
820.838196	191.100000
820.873230	195.400000
820.908264	194.700000
820.943298	191.900000
820.978333	200.400000
821.013367	195.800000
821.048401	199.100000
821.083435	200.900000
821.118469	185.800000
821.153503	199.800000
821.188477	196.200000
821.223511	187.100000
821.258484	194.200000
821.293579	195.700000
821.328613	187.200000
821.363647	194.000000
821.398621	188.700000
821.433655	190.500000
821.468628	207.300000
821.503662	193.500000
821.538696	196.700000
821.573669	188.200000
821.608704	197.600000
821.643677	191.400000
821.678650	197.800000
821.713684	202.300000
821.748718	191.100000
821.783691	194.100000
821.818726	194.900000
821.853638	196.200000
821.888672	192.600000
821.923706	194.400000
821.958618	190.800000
821.993652	190.900000
822.028687	197.800000
822.063599	200.600000
822.098633	195.800000
822.133667	189.700000
822.168579	192.000000
822.203613	194.800000
822.238586	190.400000
822.273560	195.600000
822.308533	190.700000
822.343567	189.300000
822.378479	191.300000
822.413452	191.200000
822.448425	188.600000
822.483398	197.800000
822.518372	199.400000
822.553345	190.400000
822.588318	200.600000
822.623291	191.000000
822.658203	189.700000
822.693237	191.100000
822.728210	188.500000
822.763123	193.400000
822.798096	188.000000
822.833069	192.500000
822.867981	193.000000
822.902954	194.700000
822.937927	196.100000
822.972900	203.300000
823.007874	184.600000
823.042725	196.700000
823.077698	204.500000
823.112671	188.400000
823.147583	191.600000
823.182556	196.500000
823.217529	196.100000
823.252441	190.100000
823.287415	206.800000
823.322388	193.900000
823.357239	192.600000
823.392212	199.600000
823.427185	195.800000
823.462097	189.200000
823.497009	195.800000
823.531982	190.300000
823.566895	192.200000
823.601807	188.000000
823.636719	191.800000
823.671631	196.300000
823.706604	192.000000
823.741455	195.100000
823.776428	186.000000
823.811340	197.400000
823.846252	199.300000
823.881165	201.100000
823.916138	194.400000
823.950989	202.200000
823.985901	189.600000
824.020813	193.300000
824.055725	191.100000
824.090637	188.800000
824.125610	193.300000
824.160461	193.400000
824.195374	194.200000
824.230225	197.200000
824.265198	185.700000
824.300110	189.600000
824.334961	203.000000
824.369873	183.100000
824.404785	194.200000
824.439636	198.600000
824.474548	183.900000
824.509460	182.000000
824.544312	198.400000
824.579224	194.000000
824.614075	192.700000
824.648987	191.400000
824.683899	191.700000
824.718811	189.700000
824.753662	198.900000
824.788574	196.100000
824.823364	193.200000
824.858276	188.700000
824.893188	198.500000
824.928040	199.300000
824.962952	195.100000
824.997803	197.100000
825.032654	193.400000
825.067566	195.900000
825.102417	190.400000
825.137268	191.300000
825.172119	193.000000
825.206970	189.700000
825.241882	191.300000
825.276733	189.600000
825.311646	189.700000
825.346436	188.100000
825.381348	187.900000
825.416138	193.100000
825.450989	188.000000
825.485901	184.900000
825.520691	183.600000
825.555542	186.900000
825.590454	192.800000
825.625244	185.400000
825.660095	198.900000
825.695007	196.300000
825.729797	191.000000
825.764648	189.700000
825.799438	191.800000
825.834290	193.100000
825.869202	185.300000
825.903992	193.800000
825.938843	188.600000
825.973694	187.400000
826.008484	204.100000
826.043335	187.900000
826.078186	183.400000
826.112976	198.400000
826.147827	197.100000
826.182678	201.600000
826.217468	185.200000
826.252319	197.000000
826.287109	188.400000
826.321899	199.300000
826.356750	191.700000
826.391541	186.900000
826.426392	198.100000
826.461182	191.200000
826.495972	185.800000
826.530823	184.200000
826.565613	192.300000
826.600403	186.700000
826.635254	195.400000
826.670044	183.600000
826.704834	185.100000
826.739685	187.700000
826.774475	192.500000
826.809265	190.300000
826.844055	191.600000
826.878906	197.300000
826.913635	194.000000
826.948425	194.600000
826.983215	193.400000
827.018005	196.600000
827.052856	190.100000
827.087585	194.500000
827.122375	183.900000
827.157227	191.800000
827.191956	203.300000
827.226746	187.300000
827.261536	195.400000
827.296265	184.900000
827.331116	189.200000
827.365906	194.800000
827.400635	189.500000
827.435425	182.900000
827.470215	198.100000
827.504944	190.300000
827.539734	195.900000
827.574463	190.700000
827.609253	198.400000
827.644043	190.300000
827.678772	197.400000
827.713562	188.400000
827.748352	189.700000
827.783081	187.800000
827.817871	192.100000
827.852600	187.400000
827.887329	192.800000
827.922119	181.500000
827.956848	194.800000
827.991638	206.200000
828.026367	193.000000
828.061157	191.700000
828.095886	191.400000
828.130615	205.900000
828.165344	180.700000
828.200073	191.500000
828.234863	190.300000
828.269592	191.200000
828.304321	195.800000
828.339111	192.700000
828.373779	187.600000
828.408569	197.200000
828.443298	195.700000
828.477966	189.600000
828.512756	192.900000
828.547424	186.500000
828.582214	188.900000
828.616943	190.300000
828.651672	190.700000
828.686340	195.200000
828.721130	187.600000
828.755798	190.900000
828.790527	192.000000
828.825256	194.500000
828.859924	191.700000
828.894714	198.400000
828.929443	198.800000
828.964111	187.700000
828.998840	194.800000
829.033569	187.700000
829.068237	188.000000
829.102966	188.500000
829.137634	193.600000
829.172363	192.500000
829.207092	193.100000
829.241821	187.600000
829.276489	183.600000
829.311157	191.900000
829.345825	189.900000
829.380554	195.100000
829.415283	187.200000
829.449951	185.200000
829.484619	198.800000
829.519348	199.400000
829.554016	190.800000
829.588745	190.400000
829.623413	185.000000
829.658081	203.400000
829.692749	183.600000
829.727417	197.200000
829.762146	192.800000
829.796814	188.400000
829.831482	188.700000
829.866150	192.300000
829.900879	188.100000
829.935486	193.300000
829.970154	188.400000
830.004883	202.400000
830.039490	193.300000
830.074219	187.200000
830.108887	192.900000
830.143494	190.400000
830.178223	186.400000
830.212891	190.500000
830.247498	191.000000
830.282166	198.600000
830.316772	197.100000
830.351501	188.100000
830.386169	191.700000
830.420776	189.700000
830.455444	190.600000
830.490112	188.700000
830.524719	181.600000
830.559387	195.000000
830.594055	194.300000
830.628662	192.400000
830.663330	190.200000
830.697998	200.300000
830.732605	190.200000
830.767273	193.800000
830.801941	192.400000
830.836487	199.000000
830.871155	193.900000
830.905762	192.300000
830.940430	184.800000
830.975098	187.800000
831.009644	190.500000
831.044312	200.200000
831.078979	193.400000
831.113525	182.700000
831.148193	191.300000
831.182861	190.100000
831.217407	194.000000
831.252075	209.100000
831.286621	189.800000
831.321289	187.600000
831.355896	191.600000
831.390564	198.400000
831.425110	191.100000
831.459778	197.900000
831.494324	205.000000
831.528931	195.100000
831.563599	194.200000
831.598145	185.700000
831.632751	192.600000
831.667419	189.000000
831.701965	191.800000
831.736572	194.200000
831.771179	184.800000
831.805786	189.400000
831.840393	197.500000
831.874939	184.000000
831.909546	196.400000
831.944153	183.200000
831.978760	190.400000
832.013306	188.000000
832.047913	199.100000
832.082458	198.400000
832.117065	187.800000
832.151672	200.300000
832.186218	191.500000
832.220825	193.500000
832.255432	182.700000
832.289978	188.300000
832.324585	193.800000
832.359192	194.400000
832.393677	188.400000
832.428284	192.700000
832.462830	190.000000
832.497437	189.100000
832.531982	195.000000
832.566589	189.100000
832.601135	191.600000
832.635681	184.100000
832.670227	190.100000
832.704773	199.000000
832.739380	193.700000
832.773926	192.200000
832.808472	186.300000
832.843079	191.100000
832.877563	194.800000
832.912170	187.800000
832.946716	183.800000
832.981201	197.900000
833.015808	193.900000
833.050293	191.100000
833.084839	188.700000
833.119446	189.400000
833.153992	195.900000
833.188477	191.300000
833.223022	187.500000
833.257568	193.200000
833.292114	198.300000
833.326660	202.800000
833.361145	189.200000
833.395691	183.500000
833.430237	190.600000
833.464783	194.100000
833.499329	188.300000
833.533875	185.300000
833.568359	195.600000
833.602905	197.600000
833.637390	196.200000
833.671875	187.800000
833.706421	189.700000
833.740906	186.800000
833.775452	181.000000
833.809998	188.600000
833.844482	198.400000
833.879028	190.300000
833.913513	188.200000
833.947998	192.900000
833.982544	189.500000
834.017090	188.000000
834.051514	180.200000
834.086060	193.400000
834.120544	190.000000
834.155029	192.500000
834.189575	189.300000
834.223999	193.000000
834.258545	191.700000
834.293030	192.300000
834.327515	192.400000
834.362000	187.400000
834.396545	196.200000
834.430969	189.500000
834.465454	196.000000
834.500000	182.600000
834.534424	194.200000
834.568970	181.000000
834.603455	182.400000
834.637878	187.900000
834.672363	191.700000
834.706909	191.500000
834.741333	192.000000
834.775818	183.400000
834.810242	187.200000
834.844727	192.200000
834.879211	189.400000
834.913635	191.800000
834.948181	192.800000
834.982666	192.400000
835.017090	189.200000
835.051575	194.300000
835.086060	186.900000
835.120483	196.200000
835.154907	195.600000
835.189331	191.100000
835.223816	193.500000
835.258301	186.600000
835.292786	186.700000
835.327209	196.200000
835.361694	188.800000
835.396057	188.300000
835.430542	194.200000
835.465027	192.000000
835.499390	185.800000
835.533875	211.000000
835.568359	189.200000
835.602722	183.800000
835.637207	191.400000
835.671692	186.000000
835.706055	208.000000
835.740540	194.800000
835.774902	194.100000
835.809387	192.800000
835.843811	185.100000
835.878235	199.600000
835.912659	184.900000
835.947083	187.900000
835.981506	190.900000
836.015930	183.300000
836.050354	195.200000
836.084778	199.800000
836.119202	195.900000
836.153625	204.000000
836.187988	186.100000
836.222473	186.500000
836.256897	192.600000
836.291260	189.200000
836.325684	194.100000
836.360046	188.100000
836.394470	190.900000
836.428894	198.700000
836.463318	187.400000
836.497681	196.200000
836.532104	197.800000
836.566467	192.600000
836.600891	190.100000
836.635315	196.800000
836.669678	194.100000
836.704102	195.500000
836.738525	192.700000
836.772888	182.300000
836.807251	190.200000
836.841675	192.800000
836.876038	186.700000
836.910461	186.900000
836.944763	196.500000
836.979187	187.800000
837.013611	197.400000
837.047974	184.400000
837.082336	203.400000
837.116699	195.600000
837.151062	190.900000
837.185486	185.700000
837.219849	190.400000
837.254211	195.900000
837.288574	190.700000
837.322937	186.000000
837.357300	178.300000
837.391663	203.600000
837.426086	195.700000
837.460388	192.100000
837.494751	196.200000
837.529114	188.400000
837.563477	195.600000
837.597839	193.400000
837.632141	190.600000
837.666565	188.800000
837.700928	193.500000
837.735229	194.300000
837.769592	193.800000
837.803955	196.900000
837.838257	189.100000
837.872620	188.500000
837.906982	198.500000
837.941284	191.700000
837.975647	192.000000
838.010010	197.800000
838.044312	190.200000
838.078674	188.600000
838.112976	191.300000
838.147339	194.800000
838.181702	191.700000
838.216003	201.400000
838.250366	192.700000
838.284668	194.100000
838.318970	183.900000
838.353333	191.200000
838.387634	190.300000
838.421936	192.600000
838.456299	191.900000
838.490601	199.000000
838.524902	193.900000
838.559265	196.300000
838.593567	195.100000
838.627869	186.400000
838.662170	194.400000
838.696472	185.200000
838.730774	188.000000
838.765137	195.700000
838.799377	178.000000
838.833740	192.900000
838.868042	197.000000
838.902283	183.500000
838.936646	197.000000
838.970947	193.300000
839.005188	196.400000
839.039551	183.900000
839.073792	199.300000
839.108093	188.600000
839.142395	200.800000
839.176697	185.200000
839.210937	192.100000
839.245300	203.800000
839.279541	184.700000
839.313843	189.000000
839.348145	193.900000
839.382385	196.000000
839.416687	195.700000
839.450989	195.100000
839.485229	190.700000
839.519531	188.100000
839.553833	197.700000
839.588013	190.900000
839.622314	194.200000
839.656555	195.500000
839.690857	191.600000
839.725159	184.400000
839.759460	190.500000
839.793640	188.500000
839.827942	189.200000
839.862183	187.200000
839.896423	193.200000
839.930725	200.200000
839.964966	198.700000
839.999207	200.300000
840.033508	200.100000
840.067688	187.200000
840.101990	201.800000
840.136230	190.800000
840.170471	199.100000
840.204712	188.300000
840.238953	187.800000
840.273193	191.400000
840.307434	196.600000
840.341736	187.100000
840.375916	186.200000
840.410217	190.000000
840.444397	197.800000
840.478638	193.800000
840.512878	198.500000
840.547119	193.600000
840.581360	194.800000
840.615601	202.100000
840.649780	201.200000
840.684021	191.300000
840.718262	199.900000
840.752441	197.500000
840.786682	192.900000
840.820862	194.800000
840.855103	200.100000
840.889343	191.600000
840.923584	196.900000
840.957764	194.800000
840.992004	193.600000
841.026184	206.400000
841.060425	189.200000
841.094666	187.600000
841.128845	195.400000
841.163025	192.400000
841.197266	194.500000
841.231445	194.300000
841.265686	191.500000
841.299866	187.600000
841.334045	199.100000
841.368286	190.300000
841.402405	200.500000
841.436646	197.200000
841.470825	189.100000
841.505005	191.500000
841.539185	186.600000
841.573425	188.800000
841.607544	191.200000
841.641785	194.800000
841.675964	186.700000
841.710144	193.100000
841.744324	188.700000
841.778503	191.400000
841.812683	187.000000
841.846863	199.700000
841.881042	198.400000
841.915222	188.600000
841.949402	207.900000
841.983521	184.400000
842.017700	190.100000
842.051880	193.400000
842.086060	194.400000
842.120239	192.800000
842.154419	189.600000
842.188538	193.200000
842.222717	188.100000
842.256897	202.100000
842.291016	191.000000
842.325195	194.700000
842.359375	203.900000
842.393494	199.300000
842.427673	193.600000
842.461853	194.900000
842.495911	199.800000
842.530090	194.400000
842.564209	191.400000
842.598389	193.200000
842.632568	192.600000
842.666626	196.000000
842.700806	188.600000
842.734985	189.400000
842.769043	195.100000
842.803223	190.400000
842.837402	191.000000
842.871460	188.800000
842.905640	200.700000
842.939697	187.200000
842.973877	193.900000
843.007996	197.300000
843.042175	201.100000
843.076233	188.200000
843.110413	193.200000
843.144470	200.400000
843.178589	197.000000
843.212769	190.400000
843.246826	197.800000
843.280945	191.200000
843.315125	190.600000
843.349182	189.000000
843.383301	199.400000
843.417419	203.300000
843.451538	192.200000
843.485657	189.300000
843.519714	191.700000
843.553833	194.900000
843.587952	189.200000
843.622070	188.500000
843.656128	195.500000
843.690247	190.500000
843.724304	190.600000
843.758423	194.100000
843.792542	191.100000
843.826599	192.400000
843.860718	190.700000
843.894836	185.800000
843.928894	193.300000
843.963013	193.900000
843.997070	187.300000
844.031128	185.900000
844.065247	197.100000
844.099304	198.100000
844.133362	192.500000
844.167480	196.000000
844.201599	201.000000
844.235596	194.400000
844.269714	194.900000
844.303711	195.900000
844.337830	184.300000
844.371948	195.200000
844.405945	191.100000
844.440063	187.700000
844.474121	207.300000
844.508118	191.400000
844.542236	191.400000
844.576294	191.600000
844.610352	188.500000
844.644409	190.700000
844.678406	183.600000
844.712524	196.500000
844.746582	197.700000
844.780640	191.400000
844.814636	192.700000
844.848755	204.900000
844.882751	190.100000
844.916809	199.100000
844.950867	193.600000
844.984863	202.000000
845.018921	192.400000
845.052979	189.100000
845.086975	192.600000
845.121033	186.600000
845.155090	187.100000
845.189087	200.000000
845.223145	189.000000
845.257141	192.600000
845.291199	195.000000
845.325256	201.300000
845.359253	191.900000
845.393250	203.700000
845.427307	191.500000
845.461304	194.100000
845.495361	192.200000
845.529358	203.500000
845.563354	189.700000
845.597412	189.400000
845.631409	200.900000
845.665405	199.600000
845.699463	198.900000
845.733459	191.400000
845.767456	199.300000
845.801453	191.400000
845.835449	199.100000
845.869446	198.100000
845.903503	197.100000
845.937439	189.700000
845.971497	200.100000
846.005493	185.900000
846.039429	197.100000
846.073486	201.600000
846.107483	191.600000
846.141418	191.900000
846.175476	192.700000
846.209473	199.700000
846.243408	189.300000
846.277405	194.200000
846.311401	187.500000
846.345337	192.800000
846.379395	199.100000
846.413330	188.800000
846.447327	201.300000
846.481323	186.600000
846.515259	190.300000
846.549255	193.100000
846.583252	195.000000
846.617187	186.500000
846.651184	195.500000
846.685120	190.400000
846.719055	201.100000
846.753052	198.000000
846.786987	198.400000
846.820984	186.700000
846.854980	199.900000
846.888916	187.400000
846.922852	193.900000
846.956848	201.800000
846.990723	188.300000
847.024719	194.400000
847.058716	191.300000
847.092590	200.000000
847.126587	193.800000
847.160522	190.800000
847.194458	196.100000
847.228455	188.400000
847.262390	187.300000
847.296265	191.200000
847.330261	199.600000
847.364136	190.100000
847.398132	189.800000
847.432068	192.600000
847.466003	191.200000
847.499939	191.300000
847.533875	195.800000
847.567749	192.100000
847.601746	190.000000
847.635681	196.200000
847.669556	184.800000
847.703491	198.700000
847.737427	207.300000
847.771301	188.400000
847.805237	195.400000
847.839233	193.200000
847.873108	191.800000
847.907043	192.200000
847.940918	197.800000
847.974854	195.800000
848.008789	196.500000
848.042664	193.000000
848.076538	196.700000
848.110474	192.900000
848.144348	195.300000
848.178284	187.000000
848.212219	193.500000
848.246094	192.100000
848.279968	194.600000
848.313904	196.900000
848.347778	192.800000
848.381653	191.900000
848.415588	189.000000
848.449463	190.500000
848.483337	195.600000
848.517212	199.500000
848.551086	194.400000
848.585022	188.800000
848.618835	201.400000
848.652771	189.800000
848.686646	187.300000
848.720520	201.500000
848.754395	193.000000
848.788330	197.100000
848.822144	197.100000
848.856018	191.500000
848.889954	201.900000
848.923767	187.700000
848.957642	188.400000
848.991577	196.800000
849.025391	189.600000
849.059265	192.200000
849.093079	189.100000
849.126953	187.300000
849.160828	198.100000
849.194641	193.200000
849.228577	190.300000
849.262451	193.000000
849.296265	191.700000
849.330139	187.900000
849.364014	193.100000
849.397827	196.100000
849.431702	194.000000
849.465515	197.200000
849.499329	184.100000
849.533203	187.800000
849.567078	182.800000
849.600891	196.300000
849.634766	192.100000
849.668518	197.800000
849.702393	194.200000
849.736267	186.800000
849.770020	204.300000
849.803894	197.400000
849.837769	193.700000
849.871521	192.300000
849.905396	199.600000
849.939270	189.200000
849.973022	190.200000
850.006897	195.900000
850.040710	196.700000
850.074524	195.100000
850.108337	190.600000
850.142151	196.100000
850.175964	200.300000
850.209778	193.100000
850.243530	180.100000
850.277405	197.500000
850.311218	192.800000
850.344971	191.100000
850.378845	201.600000
850.412659	189.600000
850.446411	192.900000
850.480225	192.300000
850.514038	199.500000
850.547791	196.600000
850.581665	193.700000
850.615417	191.500000
850.649231	193.800000
850.683044	192.100000
850.716858	192.200000
850.750610	193.700000
850.784424	198.600000
850.818176	190.800000
850.851929	191.700000
850.885742	190.000000
850.919495	192.200000
850.953308	199.400000
850.987122	200.800000
851.020874	186.100000
851.054626	184.000000
851.088440	196.400000
851.122192	196.000000
851.156006	193.200000
851.189697	192.400000
851.223511	189.200000
851.257263	197.400000
851.291077	195.700000
851.324829	190.800000
851.358582	189.900000
851.392334	189.800000
851.426086	191.600000
851.459900	200.500000
851.493591	193.500000
851.527344	193.800000
851.561157	193.300000
851.594849	195.800000
851.628662	194.900000
851.662415	201.100000
851.696106	195.400000
851.729858	196.500000
851.763611	186.500000
851.797363	194.000000
851.831116	188.900000
851.864868	196.000000
851.898560	197.100000
851.932312	191.100000
851.966064	196.800000
851.999817	192.500000
852.033569	191.600000
852.067261	197.600000
852.101013	189.100000
852.134766	192.700000
852.168457	181.900000
852.202209	196.500000
852.235901	189.400000
852.269592	195.800000
852.303345	203.500000
852.337036	196.500000
852.370789	193.100000
852.404541	197.900000
852.438171	189.200000
852.471924	191.800000
852.505676	186.400000
852.539307	194.600000
852.573059	190.100000
852.606812	192.100000
852.640442	191.800000
852.674194	198.700000
852.707886	204.000000
852.741577	201.300000
852.775269	188.900000
852.809021	195.400000
852.842651	195.200000
852.876404	198.200000
852.910034	195.200000
852.943787	201.000000
852.977478	194.300000
853.011108	189.400000
853.044861	192.000000
853.078552	200.200000
853.112183	194.700000
853.145874	195.800000
853.179626	183.200000
853.213257	194.800000
853.246948	190.300000
853.280640	202.000000
853.314270	192.600000
853.347961	200.600000
853.381653	196.100000
853.415283	196.500000
853.448975	189.500000
853.482605	195.900000
853.516296	191.600000
853.549988	187.700000
853.583618	193.200000
853.617310	195.400000
853.651001	195.000000
853.684631	187.900000
853.718323	190.600000
853.751953	200.800000
853.785583	184.300000
853.819275	198.300000
853.852966	195.200000
853.886536	185.200000
853.920227	188.300000
853.953918	197.600000
853.987488	190.500000
854.021179	197.100000
854.054749	201.500000
854.088440	194.900000
854.122131	189.100000
854.155701	198.000000
854.189331	189.600000
854.223022	196.900000
854.256592	196.400000
854.290283	188.500000
854.323914	197.300000
854.357483	194.200000
854.391174	195.800000
854.424744	203.800000
854.458374	196.000000
854.492065	204.600000
854.525696	196.100000
854.559265	200.100000
854.592896	205.000000
854.626465	194.000000
854.660095	193.000000
854.693787	194.600000
854.727356	193.000000
854.760986	197.300000
854.794617	194.800000
854.828186	190.600000
854.861816	197.200000
854.895447	194.400000
854.929016	196.800000
854.962585	195.300000
854.996155	202.700000
855.029785	195.000000
855.063416	196.000000
855.097046	197.000000
855.130615	188.200000
855.164185	199.000000
855.197754	193.500000
855.231384	195.900000
855.264954	191.400000
855.298523	197.300000
855.332153	194.500000
855.365723	201.700000
855.399292	190.100000
855.432922	192.200000
855.466492	195.800000
855.500061	189.200000
855.533630	189.500000
855.567200	196.300000
855.600769	198.100000
855.634338	198.200000
855.667969	195.200000
855.701477	189.200000
855.735046	189.500000
855.768616	185.100000
855.802185	195.300000
855.835754	208.400000
855.869324	185.600000
855.902893	191.700000
855.936401	199.600000
855.969971	195.400000
856.003540	187.000000
856.037109	198.300000
856.070618	193.200000
856.104187	188.300000
856.137695	190.000000
856.171265	183.400000
856.204834	193.700000
856.238403	199.500000
856.271912	190.800000
856.305481	195.300000
856.338989	187.100000
856.372559	196.800000
856.406128	194.000000
856.439636	197.500000
856.473145	190.800000
856.506653	201.100000
856.540222	192.900000
856.573792	200.100000
856.607300	195.600000
856.640808	187.900000
856.674377	195.000000
856.707825	221.300000
856.741394	198.800000
856.774902	189.600000
856.808472	185.200000
856.841980	197.300000
856.875488	201.900000
856.908936	185.900000
856.942505	192.600000
856.976013	192.900000
857.009521	188.900000
857.043030	195.600000
857.076477	191.600000
857.110046	199.500000
857.143555	194.800000
857.177063	200.400000
857.210571	191.200000
857.244080	186.500000
857.277527	196.200000
857.311035	192.300000
857.344543	197.200000
857.378052	192.600000
857.411499	197.300000
857.445068	202.500000
857.478516	194.200000
857.512024	188.000000
857.545532	192.900000
857.578979	195.100000
857.612427	192.400000
857.645874	190.500000
857.679382	194.700000
857.712891	196.400000
857.746399	193.300000
857.779846	198.700000
857.813354	199.100000
857.846741	192.000000
857.880249	189.700000
857.913757	193.600000
857.947266	195.700000
857.980652	197.000000
858.014160	191.000000
858.047546	191.700000
858.081055	193.200000
858.114563	201.700000
858.147949	187.500000
858.181458	197.800000
858.214844	193.400000
858.248352	185.600000
858.281799	199.800000
858.315308	206.600000
858.348694	197.100000
858.382141	202.400000
858.415588	196.400000
858.449036	199.500000
858.482483	196.800000
858.515930	189.100000
858.549377	194.100000
858.582825	200.400000
858.616211	197.000000
858.649658	196.600000
858.683105	188.500000
858.716553	189.500000
858.750000	187.400000
858.783386	193.200000
858.816833	186.100000
858.850281	194.700000
858.883728	197.700000
858.917114	192.600000
858.950562	202.300000
858.983948	202.300000
859.017395	197.200000
859.050781	191.200000
859.084167	189.800000
859.117615	187.100000
859.151062	195.800000
859.184448	190.000000
859.217834	191.600000
859.251282	190.300000
859.284668	187.700000
859.318054	185.400000
859.351440	188.700000
859.384888	201.500000
859.418274	185.900000
859.451721	185.900000
859.485046	197.100000
859.518494	194.600000
859.551819	188.500000
859.585266	196.800000
859.618652	195.700000
859.652039	186.700000
859.685425	189.000000
859.718811	186.600000
859.752197	181.600000
859.785583	201.200000
859.819031	202.300000
859.852356	195.800000
859.885742	189.700000
859.919067	194.000000
859.952454	191.500000
859.985901	198.800000
860.019287	190.800000
860.052612	0.000000
860.085999	0.000000
860.119324	0.000000
860.152710	0.000000
860.186096	0.000000
860.219421	0.000000
860.252808	0.000000
860.286133	0.000000
860.319519	0.000000
860.352905	0.000000
860.386292	0.000000
860.419617	0.000000
860.452942	0.000000
860.486267	0.000000
860.519653	0.000000
860.553040	0.000000
860.586365	0.000000
860.619690	0.000000
860.653076	0.000000
860.686340	0.000000
860.719727	0.000000
860.753113	0.000000
860.786377	0.000000
860.819763	0.000000
860.853027	0.000000
860.886414	0.000000
860.919739	0.000000
860.953125	0.000000
860.986389	0.000000
861.019714	0.000000
861.053040	0.000000
861.086365	0.000000
861.119690	0.000000
861.153076	0.000000
861.186340	0.000000
861.219666	0.000000
861.252930	0.000000
861.286316	0.000000
861.319641	0.000000
861.352905	0.000000
861.386230	0.000000
861.419495	0.000000
861.452820	0.000000
861.486145	0.000000
861.519470	0.000000
861.552734	0.000000
861.586060	0.000000
861.619324	0.000000
861.652649	0.000000
861.685974	0.000000
861.719238	0.000000
861.752563	0.000000
861.785828	0.000000
861.819092	0.000000
861.852417	0.000000
861.885742	0.000000
861.918945	0.000000
861.952271	0.000000
861.985535	0.000000
862.018799	0.000000
862.052124	0.000000
862.085449	0.000000
862.118652	0.000000
862.151978	0.000000
862.185181	0.000000
862.218506	0.000000
862.251770	0.000000
862.285034	0.000000
862.318298	0.000000
862.351562	0.000000
862.384827	0.000000
862.418091	0.000000
862.451355	0.000000
862.484619	0.000000
862.517883	0.000000
862.551086	0.000000
862.584351	0.000000
862.617676	0.000000
862.650940	0.000000
862.684143	0.000000
862.717407	0.000000
862.750610	0.000000
862.783875	0.000000
862.817139	0.000000
862.850342	0.000000
862.883606	0.000000
862.916870	0.000000
862.950073	0.000000
862.983337	0.000000
863.016602	0.000000
863.049805	0.000000
863.083069	0.000000
863.116211	0.000000
863.149475	0.000000
863.182739	0.000000
863.216003	0.000000
863.249146	0.000000
863.282410	0.000000
863.315613	0.000000
863.348816	0.000000
863.382080	0.000000
863.415222	0.000000
863.448486	0.000000
863.481689	0.000000
863.514893	0.000000
863.548157	0.000000
863.581360	0.000000
863.614502	0.000000
863.647766	0.000000
863.680908	0.000000
863.714172	0.000000
863.747375	0.000000
863.780579	0.000000
863.813721	0.000000
863.846985	0.000000
863.880127	0.000000
863.913330	0.000000
863.946533	0.000000
863.979675	0.000000
864.012939	0.000000
