Model Number: SPM-001-M   
Serial Number: 10090201
Firmware Version: 004.17.6
Exposure Time: 500000.000000us
Data Taken on: 10-03-2021 12:29:41.478
Wavelength	Amplitude
733.770752	0.000000
733.808716	0.000000
733.846619	0.000000
733.884583	0.000000
733.922546	0.000000
733.960449	0.000000
733.998413	0.000000
734.036377	0.000000
734.074219	0.000000
734.112183	0.000000
734.150085	0.000000
734.188049	0.000000
734.226013	0.000000
734.263916	0.000000
734.301819	0.000000
734.339783	0.000000
734.377686	0.000000
734.415588	0.000000
734.453552	0.000000
734.491455	0.000000
734.529419	0.000000
734.567322	0.000000
734.605225	0.000000
734.643127	0.000000
734.681091	0.000000
734.718994	0.000000
734.756897	0.000000
734.794800	0.000000
734.832703	0.000000
734.870667	0.000000
734.908508	0.000000
734.946472	0.000000
734.984375	0.000000
735.022278	0.000000
735.060181	0.000000
735.098083	0.000000
735.135986	0.000000
735.173889	0.000000
735.211792	0.000000
735.249695	0.000000
735.287598	0.000000
735.325439	0.000000
735.363403	0.000000
735.401306	0.000000
735.439148	0.000000
735.477051	0.000000
735.515015	0.000000
735.552856	0.000000
735.590759	0.000000
735.628662	0.000000
735.666504	0.000000
735.704407	0.000000
735.742310	0.000000
735.780212	0.000000
735.818115	0.000000
735.856018	0.000000
735.893860	0.000000
735.931763	0.000000
735.969604	0.000000
736.007507	0.000000
736.045410	0.000000
736.083252	0.000000
736.121094	0.000000
736.158997	0.000000
736.196838	0.000000
736.234741	0.000000
736.272644	0.000000
736.310486	0.000000
736.348389	0.000000
736.386230	0.000000
736.424072	0.000000
736.461975	0.000000
736.499878	0.000000
736.537720	0.000000
736.575562	0.000000
736.613403	0.000000
736.651306	0.000000
736.689148	0.000000
736.726990	0.000000
736.764893	0.000000
736.802734	0.000000
736.840576	0.000000
736.878418	0.000000
736.916321	0.000000
736.954102	0.000000
736.992004	0.000000
737.029846	0.000000
737.067688	0.000000
737.105530	0.000000
737.143372	0.000000
737.181213	0.000000
737.219116	0.000000
737.256897	0.000000
737.294739	0.000000
737.332642	0.000000
737.370422	0.000000
737.408325	0.000000
737.446167	0.000000
737.483948	0.000000
737.521790	0.000000
737.559692	0.000000
737.597473	0.000000
737.635315	0.000000
737.673157	0.000000
737.710999	0.000000
737.748840	0.000000
737.786621	0.000000
737.824463	0.000000
737.862305	0.000000
737.900085	0.000000
737.937927	0.000000
737.975769	0.000000
738.013550	0.000000
738.051392	0.000000
738.089233	0.000000
738.127014	0.000000
738.164856	0.000000
738.202698	0.000000
738.240479	0.000000
738.278320	0.000000
738.316162	0.000000
738.353943	0.000000
738.391785	0.000000
738.429565	0.000000
738.467407	0.000000
738.505188	0.000000
738.542969	0.000000
738.580811	0.000000
738.618652	0.000000
738.656372	0.000000
738.694214	0.000000
738.732056	0.000000
738.769836	0.000000
738.807617	0.000000
738.845459	0.000000
738.883240	0.000000
738.921021	0.000000
738.958862	0.000000
738.996582	0.000000
739.034424	0.000000
739.072205	0.000000
739.109985	0.000000
739.147827	0.000000
739.185547	0.000000
739.223389	0.000000
739.261169	0.000000
739.298889	0.000000
739.336731	0.000000
739.374512	0.000000
739.412292	0.000000
739.450073	0.000000
739.487854	0.000000
739.525635	0.000000
739.563416	0.000000
739.601135	0.000000
739.638977	0.000000
739.676758	0.000000
739.714478	0.000000
739.752258	0.000000
739.790100	0.000000
739.827820	0.000000
739.865601	0.000000
739.903381	0.000000
739.941101	0.000000
739.978882	194.800000
740.016724	191.500000
740.054443	195.800000
740.092224	189.000000
740.130005	188.600000
740.167725	189.100000
740.205505	187.200000
740.243225	199.900000
740.281006	192.800000
740.318787	184.700000
740.356506	197.400000
740.394287	197.100000
740.432068	187.900000
740.469727	184.000000
740.507507	196.800000
740.545288	190.500000
740.583008	196.000000
740.620789	193.300000
740.658569	183.900000
740.696228	191.200000
740.734009	197.900000
740.771790	180.000000
740.809509	196.800000
740.847229	186.600000
740.884949	190.300000
740.922729	185.100000
740.960449	189.700000
740.998169	185.300000
741.035950	188.700000
741.073669	193.400000
741.111389	192.700000
741.149170	201.000000
741.186890	201.600000
741.224609	196.500000
741.262329	192.400000
741.300110	201.000000
741.337769	186.300000
741.375549	185.300000
741.413208	191.900000
741.450989	186.100000
741.488708	189.500000
741.526367	188.800000
741.564148	196.300000
741.601868	195.600000
741.639526	190.600000
741.677307	192.300000
741.715027	195.100000
741.752686	188.500000
741.790466	200.200000
741.828186	195.900000
741.865845	187.400000
741.903564	182.800000
741.941345	192.300000
741.979004	186.900000
742.016724	193.800000
742.054382	192.600000
742.092102	198.000000
742.129822	184.500000
742.167480	190.800000
742.205200	191.300000
742.242920	193.500000
742.280640	196.200000
742.318359	187.400000
742.356079	188.400000
742.393738	194.800000
742.431396	191.600000
742.469116	195.600000
742.506775	181.400000
742.544495	194.900000
742.582214	194.700000
742.619873	190.800000
742.657593	199.400000
742.695251	196.200000
742.732971	190.600000
742.770630	192.300000
742.808289	192.300000
742.846008	192.500000
742.883728	194.900000
742.921326	190.900000
742.959045	188.300000
742.996765	191.200000
743.034424	190.700000
743.072083	188.600000
743.109802	191.200000
743.147400	185.300000
743.185120	192.900000
743.222839	190.300000
743.260437	198.200000
743.298157	192.600000
743.335754	184.300000
743.373474	188.800000
743.411133	184.800000
743.448792	192.000000
743.486450	191.200000
743.524170	184.100000
743.561768	192.000000
743.599487	197.300000
743.637146	203.500000
743.674744	190.800000
743.712463	188.800000
743.750122	192.600000
743.787720	193.900000
743.825439	186.600000
743.863037	190.600000
743.900696	191.600000
743.938416	218.100000
743.976013	192.100000
744.013672	201.300000
744.051331	197.000000
744.088928	202.000000
744.126587	199.200000
744.164307	193.700000
744.201904	189.000000
744.239563	195.900000
744.277222	194.100000
744.314819	192.600000
744.352478	199.900000
744.390137	194.200000
744.427734	195.300000
744.465393	189.600000
744.502991	186.400000
744.540649	195.200000
744.578308	192.700000
744.615906	185.000000
744.653564	182.200000
744.691223	195.500000
744.728821	183.600000
744.766418	191.400000
744.804077	194.600000
744.841675	188.800000
744.879333	185.300000
744.916992	189.900000
744.954529	188.900000
744.992187	199.100000
745.029785	190.000000
745.067444	188.600000
745.105042	192.900000
745.142639	195.200000
745.180298	201.700000
745.217896	189.400000
745.255493	191.400000
745.293152	196.400000
745.330750	195.200000
745.368347	199.700000
745.405945	194.500000
745.443604	192.600000
745.481140	196.200000
745.518799	188.600000
745.556396	196.200000
745.593994	195.800000
745.631592	190.700000
745.669189	185.200000
745.706787	194.500000
745.744385	188.000000
745.781982	194.400000
745.819580	189.800000
745.857178	190.200000
745.894775	192.300000
745.932373	192.800000
745.969971	193.800000
746.007568	183.500000
746.045166	201.300000
746.082764	198.300000
746.120300	195.900000
746.157898	195.400000
746.195557	192.800000
746.233093	186.900000
746.270691	196.100000
746.308228	194.100000
746.345825	197.800000
746.383423	195.800000
746.420959	188.400000
746.458557	188.600000
746.496155	188.700000
746.533691	190.800000
746.571289	186.100000
746.608887	192.600000
746.646423	192.600000
746.684021	192.900000
746.721619	189.300000
746.759155	192.500000
746.796753	185.900000
746.834351	185.000000
746.871826	188.600000
746.909424	198.400000
746.946960	193.700000
746.984558	189.700000
747.022156	190.700000
747.059631	199.100000
747.097229	194.500000
747.134827	190.100000
747.172363	198.900000
747.209900	192.300000
747.247498	186.400000
747.285034	199.000000
747.322571	198.500000
747.360168	190.100000
747.397644	184.200000
747.435242	195.000000
747.472778	198.900000
747.510315	189.600000
747.547913	190.200000
747.585388	198.200000
747.622925	191.600000
747.660522	183.100000
747.697998	189.300000
747.735596	191.200000
747.773132	189.800000
747.810669	192.800000
747.848206	195.400000
747.885742	186.300000
747.923279	186.700000
747.960815	194.400000
747.998352	193.600000
748.035889	197.100000
748.073425	197.100000
748.110901	188.600000
748.148437	187.300000
748.185974	192.300000
748.223511	202.200000
748.261047	192.300000
748.298584	193.400000
748.336060	191.900000
748.373596	196.000000
748.411133	210.700000
748.448608	187.700000
748.486145	197.200000
748.523682	200.100000
748.561218	199.200000
748.598755	193.000000
748.636292	195.600000
748.673706	188.500000
748.711243	199.100000
748.748718	192.500000
748.786255	192.400000
748.823792	191.800000
748.861267	188.700000
748.898804	193.700000
748.936340	194.700000
748.973816	189.100000
749.011292	198.200000
749.048828	193.900000
749.086304	195.500000
749.123840	202.000000
749.161316	187.000000
749.198792	202.800000
749.236328	198.300000
749.273743	192.800000
749.311279	190.600000
749.348816	193.200000
749.386230	194.000000
749.423767	181.000000
749.461304	195.700000
749.498718	193.500000
749.536255	200.700000
749.573730	205.100000
749.611206	197.600000
749.648682	193.900000
749.686218	192.800000
749.723633	197.100000
749.761169	190.000000
749.798645	189.100000
749.836060	191.500000
749.873596	189.400000
749.911011	193.200000
749.948547	199.500000
749.986023	192.700000
750.023437	192.000000
750.060913	185.300000
750.098450	187.200000
750.135864	192.000000
750.173340	194.400000
750.210815	195.300000
750.248291	186.600000
750.285767	192.100000
750.323242	200.300000
750.360657	193.000000
750.398132	187.100000
750.435608	196.000000
750.473022	188.500000
750.510498	188.000000
750.547974	188.000000
750.585449	189.200000
750.622925	180.800000
750.660339	201.000000
750.697815	192.200000
750.735291	191.100000
750.772644	193.500000
750.810120	192.800000
750.847595	194.500000
750.885010	187.400000
750.922485	202.500000
750.959961	191.800000
750.997375	198.800000
751.034851	195.700000
751.072266	197.200000
751.109680	184.200000
751.147156	197.500000
751.184570	195.300000
751.221985	194.300000
751.259460	182.400000
751.296875	192.500000
751.334290	192.900000
751.371765	199.200000
751.409180	195.000000
751.446594	199.900000
751.484070	196.300000
751.521423	196.100000
751.558899	194.700000
751.596375	201.200000
751.633728	200.900000
751.671204	205.800000
751.708618	189.600000
751.746033	193.600000
751.783447	186.900000
751.820801	188.200000
751.858276	194.800000
751.895691	191.400000
751.933105	190.800000
751.970520	187.000000
752.007935	189.800000
752.045349	197.300000
752.082764	192.800000
752.120178	188.700000
752.157532	188.800000
752.195007	190.000000
752.232422	193.800000
752.269775	198.400000
752.307190	195.000000
752.344543	188.200000
752.382019	191.300000
752.419434	191.300000
752.456787	195.500000
752.494202	196.600000
752.531616	194.600000
752.568970	197.100000
752.606384	194.400000
752.643799	193.800000
752.681152	201.400000
752.718567	195.800000
752.755981	184.400000
752.793335	194.800000
752.830750	183.800000
752.868164	199.300000
752.905518	188.500000
752.942932	196.200000
752.980225	188.500000
753.017639	196.500000
753.055054	190.900000
753.092407	194.900000
753.129822	198.200000
753.167175	202.100000
753.204529	192.900000
753.241943	189.300000
753.279358	186.700000
753.316650	196.600000
753.354065	195.700000
753.391479	197.500000
753.428772	201.100000
753.466187	197.000000
753.503479	187.200000
753.540894	191.300000
753.578308	186.900000
753.615601	187.900000
753.653015	193.000000
753.690369	190.400000
753.727722	189.400000
753.765076	185.400000
753.802490	186.700000
753.839783	184.100000
753.877136	189.200000
753.914551	207.500000
753.951843	188.300000
753.989258	196.300000
754.026611	194.200000
754.063904	195.600000
754.101257	187.000000
754.138611	185.100000
754.175964	192.700000
754.213318	204.700000
754.250610	184.200000
754.288025	189.800000
754.325378	185.700000
754.362671	197.500000
754.400024	191.400000
754.437378	201.700000
754.474670	203.800000
754.512085	189.800000
754.549438	192.000000
754.586731	191.400000
754.624084	191.000000
754.661438	187.200000
754.698730	201.000000
754.736084	189.900000
754.773376	192.000000
754.810730	195.900000
754.848083	190.500000
754.885315	197.700000
754.922668	185.100000
754.960022	187.700000
754.997314	197.900000
755.034668	193.900000
755.072021	195.100000
755.109253	191.800000
755.146606	202.400000
755.183960	192.200000
755.221252	204.100000
755.258545	200.200000
755.295898	200.000000
755.333191	202.500000
755.370544	198.300000
755.407776	196.500000
755.445129	196.100000
755.482422	199.400000
755.519714	191.500000
755.557068	187.900000
755.594360	185.800000
755.631653	199.800000
755.668945	203.800000
755.706299	197.300000
755.743530	207.900000
755.780884	204.100000
755.818176	202.300000
755.855408	202.400000
755.892761	199.000000
755.930054	198.100000
755.967346	199.600000
756.004639	200.300000
756.041870	197.800000
756.079224	202.300000
756.116516	193.100000
756.153748	201.800000
756.191040	205.900000
756.228394	199.800000
756.265625	194.300000
756.302917	198.200000
756.340210	195.100000
756.377441	204.400000
756.414795	206.200000
756.452087	199.000000
756.489319	193.500000
756.526611	201.700000
756.563843	198.900000
756.601135	211.100000
756.638428	209.700000
756.675659	200.400000
756.712952	205.000000
756.750244	203.300000
756.787476	201.900000
756.824768	208.700000
756.862061	199.000000
756.899292	245.700000
756.936584	205.400000
756.973816	211.700000
757.011047	213.600000
757.048340	202.000000
757.085632	201.500000
757.122864	217.900000
757.160156	200.400000
757.197327	204.600000
757.234619	206.900000
757.271912	200.800000
757.309082	208.600000
757.346375	199.300000
757.383667	209.400000
757.420837	204.600000
757.458130	202.700000
757.495422	202.600000
757.532593	206.000000
757.569885	197.900000
757.607117	199.600000
757.644348	206.500000
757.681580	216.300000
757.718811	192.900000
757.756042	204.600000
757.793335	202.000000
757.830505	207.000000
757.867798	202.200000
757.905029	202.800000
757.942200	207.500000
757.979492	202.400000
758.016724	204.100000
758.053894	203.400000
758.091187	224.600000
758.128418	205.800000
758.165588	204.800000
758.202820	217.900000
758.240112	209.000000
758.277283	218.700000
758.314514	209.900000
758.351685	206.000000
758.388916	218.700000
758.426147	216.000000
758.463379	217.700000
758.500610	213.300000
758.537842	210.600000
758.575012	216.600000
758.612244	204.200000
758.649475	223.400000
758.686646	203.600000
758.723877	216.000000
758.761108	218.300000
758.798279	210.600000
758.835510	213.500000
758.872742	218.200000
758.909851	213.700000
758.947083	214.900000
758.984253	212.100000
759.021484	216.900000
759.058716	216.800000
759.095886	216.700000
759.133057	211.700000
759.170288	217.300000
759.207458	209.000000
759.244690	225.400000
759.281860	222.400000
759.319031	213.100000
759.356262	210.800000
759.393433	211.700000
759.430603	213.600000
759.467773	213.100000
759.505005	220.900000
759.542175	219.200000
759.579346	213.500000
759.616516	214.300000
759.653687	217.400000
759.690918	211.300000
759.728027	217.600000
759.765259	215.700000
759.802429	218.000000
759.839539	217.700000
759.876770	223.000000
759.913940	226.800000
759.951111	218.600000
759.988281	217.400000
760.025452	215.000000
760.062561	213.100000
760.099792	226.000000
760.136963	221.000000
760.174072	217.300000
760.211243	211.900000
760.248413	212.900000
760.285583	213.700000
760.322754	229.500000
760.359863	224.900000
760.397034	225.200000
760.434204	218.000000
760.471375	220.100000
760.508545	217.300000
760.545715	218.400000
760.582825	215.200000
760.619995	225.000000
760.657166	214.300000
760.694275	227.300000
760.731445	222.500000
760.768555	223.600000
760.805664	225.200000
760.842834	223.100000
760.879944	225.300000
760.917114	223.600000
760.954285	222.700000
760.991394	216.200000
761.028564	227.900000
761.065674	227.300000
761.102783	220.100000
761.139954	230.000000
761.177124	230.400000
761.214172	231.300000
761.251343	222.500000
761.288452	225.600000
761.325562	230.200000
761.362732	223.000000
761.399841	227.700000
761.436951	229.800000
761.474121	223.800000
761.511169	229.000000
761.548340	233.600000
761.585449	232.300000
761.622559	234.800000
761.659668	231.300000
761.696838	237.300000
761.733887	235.500000
761.771057	231.100000
761.808167	233.100000
761.845276	238.700000
761.882385	247.000000
761.919434	237.300000
761.956604	256.200000
761.993713	232.400000
762.030762	242.700000
762.067871	236.600000
762.105042	236.800000
762.142090	245.700000
762.179199	239.900000
762.216309	245.100000
762.253418	255.900000
762.290527	250.100000
762.327637	247.000000
762.364685	234.700000
762.401794	247.300000
762.438904	244.100000
762.475952	237.000000
762.513062	238.100000
762.550110	238.900000
762.587219	256.200000
762.624329	254.100000
762.661377	247.400000
762.698486	246.100000
762.735596	247.300000
762.772644	240.300000
762.809753	238.200000
762.846863	246.300000
762.883911	251.000000
762.921021	250.500000
762.958069	248.600000
762.995117	257.200000
763.032227	258.900000
763.069336	248.100000
763.106323	244.000000
763.143433	243.100000
763.180481	251.600000
763.217590	253.900000
763.254639	249.400000
763.291687	251.900000
763.328735	260.000000
763.365845	252.100000
763.402893	252.300000
763.439941	254.800000
763.477051	258.300000
763.514038	260.900000
763.551147	250.800000
763.588196	255.000000
763.625244	257.200000
763.662292	263.800000
763.699402	266.500000
763.736389	263.300000
763.773499	273.400000
763.810486	264.800000
763.847534	260.800000
763.884644	265.100000
763.921631	260.800000
763.958679	273.100000
763.995728	262.300000
764.032776	270.900000
764.069824	256.900000
764.106873	267.800000
764.143860	275.200000
764.180969	266.500000
764.218018	275.800000
764.255005	267.200000
764.292053	268.400000
764.329102	278.100000
764.366089	279.100000
764.403137	276.800000
764.440125	266.800000
764.477173	271.300000
764.514221	272.000000
764.551208	272.900000
764.588257	266.200000
764.625305	277.200000
764.662292	284.000000
764.699341	288.200000
764.736389	279.800000
764.773376	295.700000
764.810425	282.800000
764.847473	290.100000
764.884399	281.500000
764.921448	291.800000
764.958435	290.300000
764.995483	281.200000
765.032532	295.900000
765.069458	281.800000
765.106506	282.600000
765.143555	282.700000
765.180481	289.200000
765.217529	296.100000
765.254578	279.700000
765.291504	290.600000
765.328552	286.300000
765.365540	284.100000
765.402527	299.900000
765.439575	284.700000
765.476501	280.500000
765.513550	282.400000
765.550537	287.400000
765.587463	295.800000
765.624512	288.300000
765.661499	280.300000
765.698486	296.900000
765.735474	287.000000
765.772461	290.300000
765.809448	297.800000
765.846436	294.400000
765.883423	300.000000
765.920410	296.200000
765.957397	290.600000
765.994385	297.000000
766.031311	304.700000
766.068359	297.100000
766.105286	298.700000
766.142273	305.200000
766.179260	301.000000
766.216187	295.300000
766.253174	292.300000
766.290161	301.200000
766.327148	303.200000
766.364136	304.900000
766.401123	321.300000
766.438049	298.400000
766.475037	313.500000
766.512024	309.900000
766.548950	322.800000
766.585937	317.100000
766.622864	315.300000
766.659790	314.600000
766.696777	303.600000
766.733704	321.600000
766.770691	312.500000
766.807678	331.200000
766.844604	323.100000
766.881531	324.000000
766.918518	328.700000
766.955444	329.300000
766.992432	323.900000
767.029358	328.500000
767.066284	331.700000
767.103271	326.400000
767.140198	357.900000
767.177124	347.000000
767.214050	336.300000
767.251038	337.700000
767.287964	335.600000
767.324890	333.400000
767.361816	339.900000
767.398743	344.200000
767.435730	338.900000
767.472595	345.000000
767.509583	350.700000
767.546509	338.600000
767.583374	344.500000
767.620361	338.300000
767.657288	346.200000
767.694214	345.500000
767.731140	345.600000
767.768066	346.500000
767.804993	352.000000
767.841919	342.600000
767.878845	353.000000
767.915710	360.600000
767.952698	353.900000
767.989563	357.100000
768.026489	359.400000
768.063416	350.600000
768.100281	354.400000
768.137207	366.800000
768.174133	365.100000
768.211060	364.200000
768.247986	364.700000
768.284912	363.100000
768.321777	367.900000
768.358704	364.400000
768.395630	369.900000
768.432495	360.800000
768.469421	370.500000
768.506348	377.800000
768.543152	382.000000
768.580078	377.900000
768.616943	381.000000
768.653870	382.000000
768.690796	381.300000
768.727661	380.400000
768.764587	383.100000
768.801453	378.500000
768.838318	390.500000
768.875244	385.600000
768.912109	395.300000
768.948975	388.400000
768.985901	388.200000
769.022766	388.500000
769.059631	395.600000
769.096558	390.900000
769.133362	392.200000
769.170288	391.500000
769.207214	395.700000
769.244019	401.700000
769.280945	398.900000
769.317810	408.100000
769.354675	403.500000
769.391541	413.600000
769.428406	408.000000
769.465271	420.100000
769.502136	406.300000
769.539062	412.200000
769.575867	411.100000
769.612732	413.400000
769.649597	416.900000
769.686462	422.900000
769.723328	417.200000
769.760193	414.400000
769.797058	418.500000
769.833923	430.500000
769.870728	426.000000
769.907593	430.500000
769.944519	426.600000
769.981323	428.800000
770.018188	429.600000
770.055054	429.900000
770.091858	429.200000
770.128723	440.800000
770.165588	448.100000
770.202393	429.000000
770.239258	444.100000
770.276062	442.000000
770.312927	438.100000
770.349792	446.600000
770.386597	446.000000
770.423462	452.900000
770.460327	462.900000
770.497131	446.400000
770.533997	440.500000
770.570862	454.200000
770.607605	454.700000
770.644470	448.900000
770.681335	448.600000
770.718140	451.900000
770.754944	442.800000
770.791809	446.600000
770.828613	450.100000
770.865479	452.000000
770.902222	463.600000
770.939087	454.400000
770.975952	445.700000
771.012695	451.000000
771.049561	471.000000
771.086365	454.100000
771.123169	451.800000
771.159973	455.800000
771.196838	457.800000
771.233582	458.200000
771.270447	462.200000
771.307251	462.000000
771.344055	462.500000
771.380859	464.400000
771.417664	457.800000
771.454468	465.900000
771.491272	469.100000
771.528076	466.600000
771.564880	466.100000
771.601685	479.500000
771.638428	467.000000
771.675293	473.300000
771.712097	463.200000
771.748840	481.500000
771.785645	475.800000
771.822449	479.500000
771.859253	482.200000
771.896057	479.100000
771.932861	489.900000
771.969604	482.700000
772.006409	477.900000
772.043213	495.500000
772.079956	487.900000
772.116760	481.300000
772.153503	484.700000
772.190308	495.000000
772.227112	488.000000
772.263855	484.300000
772.300659	490.600000
772.337463	501.700000
772.374207	491.300000
772.411011	488.600000
772.447754	493.300000
772.484497	513.200000
772.521301	506.500000
772.558105	501.900000
772.594849	505.600000
772.631592	513.500000
772.668396	509.800000
772.705139	519.700000
772.741882	517.300000
772.778625	533.200000
772.815430	532.400000
772.852173	525.400000
772.888916	536.500000
772.925720	538.400000
772.962463	548.000000
772.999207	543.100000
773.035950	549.600000
773.072754	549.000000
773.109436	544.600000
773.146240	544.900000
773.182922	547.200000
773.219727	558.500000
773.256470	554.400000
773.293152	542.000000
773.329956	547.700000
773.366699	554.200000
773.403381	545.300000
773.440186	556.200000
773.476929	562.700000
773.513611	555.700000
773.550354	559.000000
773.587158	556.900000
773.623840	555.500000
773.660583	568.800000
773.697327	583.500000
773.734009	568.600000
773.770813	570.300000
773.807495	568.100000
773.844238	572.800000
773.880981	591.100000
773.917664	587.700000
773.954407	591.800000
773.991150	582.300000
774.027832	590.600000
774.064575	581.500000
774.101318	593.500000
774.138000	598.900000
774.174744	591.800000
774.211487	599.300000
774.248108	586.400000
774.284851	587.100000
774.321594	602.700000
774.358276	605.900000
774.395020	616.600000
774.431702	611.100000
774.468384	604.700000
774.505127	602.500000
774.541809	619.200000
774.578491	635.000000
774.615234	631.900000
774.651917	622.900000
774.688599	625.400000
774.725342	631.300000
774.762024	634.400000
774.798706	645.000000
774.835449	641.600000
774.872070	645.500000
774.908813	644.500000
774.945496	637.400000
774.982178	638.700000
775.018860	648.900000
775.055542	651.700000
775.092224	651.400000
775.128967	661.300000
775.165588	656.300000
775.202271	648.300000
775.239014	662.800000
775.275635	664.900000
775.312317	661.500000
775.349060	669.900000
775.385681	666.300000
775.422363	654.700000
775.459045	667.200000
775.495667	675.500000
775.532410	678.200000
775.569092	680.100000
775.605713	676.800000
775.642395	672.900000
775.679016	680.300000
775.715698	684.100000
775.752380	688.700000
775.789001	682.100000
775.825684	680.100000
775.862366	682.600000
775.898987	696.200000
775.935669	683.900000
775.972351	708.900000
776.008972	704.200000
776.045654	704.000000
776.082336	698.200000
776.118958	694.800000
776.155640	702.700000
776.192322	711.600000
776.228882	713.700000
776.265564	710.100000
776.302185	707.100000
776.338867	712.100000
776.375488	697.300000
776.412109	716.700000
776.448792	718.600000
776.485413	724.100000
776.522034	713.400000
776.558716	705.000000
776.595337	706.000000
776.631958	715.600000
776.668579	714.500000
776.705261	721.400000
776.741882	715.500000
776.778503	713.400000
776.815186	709.400000
776.851746	718.800000
776.888367	722.200000
776.924988	728.200000
776.961609	720.200000
776.998291	718.400000
777.034851	713.200000
777.071472	725.600000
777.108154	719.000000
777.144714	730.800000
777.181335	730.200000
777.218018	723.000000
777.254578	730.100000
777.291199	728.500000
777.327759	738.700000
777.364380	747.400000
777.401062	748.000000
777.437622	758.200000
777.474243	747.900000
777.510864	755.900000
777.547424	749.500000
777.584045	760.300000
777.620667	763.800000
777.657227	771.100000
777.693848	768.800000
777.730469	785.300000
777.767029	772.600000
777.803650	778.000000
777.840271	768.300000
777.876831	772.200000
777.913452	783.300000
777.950012	760.800000
777.986633	761.500000
778.023193	763.900000
778.059753	763.400000
778.096375	767.400000
778.132996	782.700000
778.169556	765.700000
778.206116	769.800000
778.242737	767.300000
778.279297	776.400000
778.315857	768.200000
778.352478	776.800000
778.389038	789.900000
778.425598	791.900000
778.462219	795.900000
778.498718	806.400000
778.535339	810.500000
778.571838	814.900000
778.608459	822.900000
778.645020	815.400000
778.681580	825.800000
778.718140	829.700000
778.754761	826.800000
778.791260	828.200000
778.827881	843.200000
778.864441	838.400000
778.900940	840.000000
778.937561	841.100000
778.974121	839.100000
779.010620	822.800000
779.047241	835.200000
779.083801	846.500000
779.120300	844.700000
779.156860	852.000000
779.193359	846.600000
779.229980	846.900000
779.266541	859.200000
779.303040	862.400000
779.339600	856.900000
779.376160	852.400000
779.412659	860.800000
779.449219	855.700000
779.485779	862.000000
779.522278	860.200000
779.558838	873.700000
779.595398	876.100000
779.631897	870.500000
779.668457	866.400000
779.705017	872.500000
779.741516	865.800000
779.778076	863.900000
779.814575	869.400000
779.851074	883.100000
779.887634	877.100000
779.924133	886.900000
779.960693	876.000000
779.997253	883.700000
780.033691	888.700000
780.070251	892.500000
780.106812	901.500000
780.143250	904.900000
780.179810	901.900000
780.216370	904.000000
780.252808	915.200000
780.289368	927.700000
780.325867	931.200000
780.362366	927.000000
780.398865	940.700000
780.435364	930.400000
780.471863	941.700000
780.508423	942.800000
780.544861	952.600000
780.581421	955.700000
780.617920	945.500000
780.654419	943.900000
780.690918	953.100000
780.727417	959.800000
780.763916	958.600000
780.800415	969.400000
780.836914	949.700000
780.873352	955.500000
780.909912	951.800000
780.946411	955.300000
780.982849	964.700000
781.019348	987.200000
781.055786	976.000000
781.092346	969.700000
781.128845	976.000000
781.165283	982.800000
781.201782	989.700000
781.238281	991.100000
781.274719	998.700000
781.311218	988.000000
781.347717	1003.200000
781.384155	988.700000
781.420654	990.700000
781.457092	1004.200000
781.493591	1004.900000
781.530090	991.400000
781.566528	996.400000
781.602966	998.800000
781.639465	998.400000
781.675903	999.500000
781.712402	1007.600000
781.748901	1014.700000
781.785278	1004.000000
781.821777	1010.400000
781.858276	1002.500000
781.894714	1022.000000
781.931152	1014.300000
781.967651	1025.400000
782.004089	1013.100000
782.040527	1023.700000
782.076965	1018.400000
782.113403	1023.400000
782.149902	1029.900000
782.186340	1020.200000
782.222778	1035.900000
782.259277	1018.500000
782.295654	1019.800000
782.332092	1028.000000
782.368591	1020.600000
782.404968	1006.200000
782.441467	1016.700000
782.477905	1020.700000
782.514282	1008.200000
782.550781	1030.100000
782.587219	1025.000000
782.623596	1034.200000
782.660095	1035.900000
782.696472	1043.000000
782.732910	1045.200000
782.769348	1051.300000
782.805786	1070.800000
782.842224	1063.700000
782.878662	1060.400000
782.915039	1061.100000
782.951477	1054.700000
782.987915	1045.800000
783.024292	1061.700000
783.060730	1055.600000
783.097168	1042.400000
783.133545	1039.100000
783.169983	1030.200000
783.206421	1024.000000
783.242798	1025.100000
783.279236	1008.300000
783.315613	1007.300000
783.352051	1002.700000
783.388489	992.700000
783.424866	981.200000
783.461304	985.300000
783.497681	987.900000
783.534058	981.300000
783.570496	971.400000
783.606934	960.300000
783.643250	948.900000
783.679687	937.600000
783.716125	884.700000
783.752441	845.000000
783.788879	794.100000
783.825317	730.900000
783.861633	673.800000
783.898071	617.100000
783.934448	571.100000
783.970825	529.700000
784.007263	495.200000
784.043579	476.000000
784.080017	479.500000
784.116394	494.900000
784.152710	546.700000
784.189148	611.100000
784.225525	673.800000
784.261902	735.400000
784.298279	791.400000
784.334656	856.500000
784.371033	896.200000
784.407410	953.300000
784.443787	974.800000
784.480164	987.300000
784.516541	990.900000
784.552856	1011.900000
784.589233	1013.300000
784.625610	1012.300000
784.661987	1049.200000
784.698364	1040.200000
784.734741	1029.300000
784.771057	1034.700000
784.807434	1044.500000
784.843811	1062.000000
784.880127	1063.700000
784.916504	1095.100000
784.952881	1100.600000
784.989197	1093.000000
785.025574	1093.300000
785.061951	1096.600000
785.098267	1130.800000
785.134644	1128.600000
785.170959	1130.500000
785.207275	1135.100000
785.243652	1138.600000
785.279968	1125.600000
785.316345	1131.700000
785.352722	1132.900000
785.388977	1134.200000
785.425354	1109.300000
785.461731	1098.300000
785.498047	1081.600000
785.534363	1077.100000
785.570679	1081.300000
785.606995	1087.000000
785.643372	1083.500000
785.679687	1072.900000
785.716003	1061.800000
785.752380	1064.000000
785.788635	1071.900000
785.825012	1093.000000
785.861328	1099.700000
785.897644	1091.300000
785.933960	1102.000000
785.970337	1102.800000
786.006592	1124.100000
786.042908	1138.300000
786.079285	1147.900000
786.115540	1158.200000
786.151855	1157.100000
786.188171	1151.500000
786.224487	1153.900000
786.260803	1151.100000
786.297119	1170.000000
786.333435	1174.400000
786.369751	1161.800000
786.406006	1171.600000
786.442322	1155.100000
786.478638	1138.500000
786.514954	1157.200000
786.551270	1161.200000
786.587585	1173.000000
786.623840	1159.200000
786.660156	1152.300000
786.696472	1134.300000
786.732727	1133.400000
786.769043	1136.600000
786.805298	1127.100000
786.841614	1130.800000
786.877930	1129.600000
786.914124	1115.800000
786.950439	1135.900000
786.986755	1143.500000
787.023010	1158.800000
787.059326	1163.500000
787.095642	1165.400000
787.131836	1182.900000
787.168152	1171.000000
787.204468	1178.000000
787.240723	1197.900000
787.276978	1211.000000
787.313293	1220.200000
787.349548	1214.500000
787.385803	1212.300000
787.422058	1207.800000
787.458313	1208.800000
787.494629	1213.000000
787.530823	1213.800000
787.567139	1203.600000
787.603455	1190.100000
787.639648	1170.600000
787.675903	1174.400000
787.712219	1175.300000
787.748413	1176.000000
787.784729	1185.900000
787.820984	1170.000000
787.857178	1162.700000
787.893494	1154.000000
787.929749	1142.600000
787.965942	1154.100000
788.002258	1166.800000
788.038452	1181.700000
788.074707	1160.800000
788.110962	1165.000000
788.147217	1157.400000
788.183472	1173.500000
788.219727	1186.600000
788.255920	1202.800000
788.292175	1204.900000
788.328430	1201.700000
788.364624	1180.800000
788.400879	1167.000000
788.437134	1182.000000
788.473328	1183.400000
788.509583	1181.200000
788.545837	1175.900000
788.582031	1161.700000
788.618286	1149.600000
788.654480	1141.100000
788.690735	1157.800000
788.726990	1178.800000
788.763184	1176.300000
788.799377	1190.500000
788.835632	1176.500000
788.871826	1194.700000
788.908081	1194.800000
788.944336	1186.400000
788.980469	1210.600000
789.016724	1206.200000
789.052979	1206.100000
789.089111	1181.000000
789.125366	1181.400000
789.161621	1161.000000
789.197754	1180.100000
789.234009	1166.600000
789.270142	1156.700000
789.306396	1143.600000
789.342590	1134.200000
789.378784	1109.700000
789.414978	1113.500000
789.451233	1133.500000
789.487366	1134.800000
789.523621	1140.800000
789.559814	1125.900000
789.595947	1110.600000
789.632202	1127.300000
789.668335	1141.200000
789.704529	1160.700000
789.740784	1176.500000
789.776917	1175.400000
789.813110	1163.200000
789.849304	1179.500000
789.885498	1181.800000
789.921692	1200.300000
789.957886	1204.300000
789.994019	1202.200000
790.030212	1197.800000
790.066406	1196.500000
790.102539	1200.300000
790.138733	1201.900000
790.174927	1196.400000
790.211060	1218.600000
790.247253	1197.500000
790.283386	1187.500000
790.319580	1177.300000
790.355774	1153.500000
790.391907	1159.700000
790.428101	1182.100000
790.464294	1187.100000
790.500427	1187.900000
790.536621	1171.700000
790.572754	1158.600000
790.608887	1157.600000
790.645081	1167.400000
790.681274	1178.500000
790.717346	1178.000000
790.753540	1143.500000
790.789734	1070.700000
790.825867	1019.400000
790.862000	1022.500000
790.898132	1067.800000
790.934265	1128.900000
790.970459	1184.200000
791.006592	1210.300000
791.042725	1209.600000
791.078918	1204.700000
791.114990	1210.300000
791.151184	1223.900000
791.187317	1247.800000
791.223389	1238.300000
791.259583	1220.900000
791.295715	1227.900000
791.331848	1231.700000
791.367981	1248.500000
791.404114	1253.600000
791.440247	1247.600000
791.476379	1247.700000
791.512451	1228.500000
791.548584	1227.100000
791.584778	1223.900000
791.620850	1250.900000
791.656982	1254.800000
791.693115	1246.900000
791.729187	1243.400000
791.765381	1227.200000
791.801514	1227.600000
791.837585	1232.300000
791.873718	1241.600000
791.909851	1249.800000
791.945923	1255.500000
791.982056	1221.000000
792.018188	1214.500000
792.054260	1224.700000
792.090393	1226.500000
792.126465	1218.200000
792.162598	1227.200000
792.198669	1217.700000
792.234741	1211.200000
792.270874	1204.800000
792.307007	1189.300000
792.343079	1199.700000
792.379150	1214.700000
792.415283	1190.300000
792.451355	1194.200000
792.487488	1171.600000
792.523560	1169.300000
792.559631	1175.400000
792.595764	1176.200000
792.631836	1182.900000
792.667908	1182.200000
792.703979	1166.800000
792.740051	1169.000000
792.776184	1175.100000
792.812256	1179.000000
792.848328	1186.400000
792.884399	1190.100000
792.920471	1183.900000
792.956543	1178.000000
792.992615	1176.400000
793.028748	1171.400000
793.064758	1179.000000
793.100830	1200.500000
793.136963	1215.400000
793.172974	1204.400000
793.209045	1199.500000
793.245178	1212.200000
793.281189	1194.000000
793.317261	1202.900000
793.353271	1205.900000
793.389404	1212.300000
793.425476	1207.400000
793.461487	1190.800000
793.497559	1188.100000
793.533630	1193.800000
793.569641	1195.100000
793.605713	1196.500000
793.641785	1193.800000
793.677795	1207.600000
793.713867	1193.100000
793.749878	1199.100000
793.785950	1212.600000
793.822021	1215.700000
793.858032	1197.800000
793.894104	1208.500000
793.930176	1190.900000
793.966187	1199.300000
794.002258	1184.600000
794.038269	1191.000000
794.074280	1187.500000
794.110352	1214.700000
794.146423	1185.400000
794.182373	1179.200000
794.218445	1169.600000
794.254517	1161.600000
794.290466	1149.100000
794.326538	1149.300000
794.362549	1154.500000
794.398560	1161.300000
794.434631	1163.000000
794.470581	1125.900000
794.506653	1122.600000
794.542664	1131.300000
794.578674	1128.500000
794.614685	1125.500000
794.650757	1119.100000
794.686707	1110.100000
794.722778	1103.400000
794.758789	1110.600000
794.794739	1119.200000
794.830811	1142.100000
794.866821	1161.900000
794.902771	1155.300000
794.938843	1144.000000
794.974792	1136.100000
795.010803	1139.400000
795.046814	1135.700000
795.082825	1124.800000
795.118835	1143.800000
795.154846	1119.800000
795.190796	1126.100000
795.226807	1098.100000
795.262817	1108.000000
795.298767	1107.000000
795.334778	1106.300000
795.370850	1097.300000
795.406799	1090.800000
795.442810	1073.800000
795.478821	1078.000000
795.514709	1076.400000
795.550720	1099.200000
795.586670	1076.400000
795.622681	1082.100000
795.658691	1079.900000
795.694641	1071.300000
795.730652	1061.300000
795.766663	1069.300000
795.802551	1071.500000
795.838562	1085.400000
795.874573	1073.200000
795.910522	1067.400000
795.946472	1053.500000
795.982483	1065.900000
796.018433	1071.000000
796.054382	1079.500000
796.090393	1065.500000
796.126282	1054.500000
796.162292	1039.800000
796.198242	1032.800000
796.234192	1040.100000
796.270203	1038.600000
796.306091	1047.500000
796.342041	1057.300000
796.378052	1045.100000
796.413940	1040.600000
796.449951	1041.700000
796.485901	1039.500000
796.521790	1038.900000
796.557800	1052.500000
796.593689	1054.100000
796.629639	1043.000000
796.665649	1035.500000
796.701599	1032.800000
796.737488	1030.300000
796.773437	1037.100000
796.809387	1039.300000
796.845337	1028.100000
796.881287	1018.200000
796.917175	1004.500000
796.953125	999.700000
796.989075	1016.000000
797.024963	1025.000000
797.060913	1023.000000
797.096863	1017.700000
797.132751	1009.200000
797.168701	992.300000
797.204590	999.800000
797.240540	1004.400000
797.276489	1012.100000
797.312439	1014.900000
797.348328	1005.100000
797.384277	997.700000
797.420166	991.100000
797.456055	996.200000
797.492004	988.600000
797.527893	1000.600000
797.563843	1003.700000
797.599731	983.500000
797.635620	970.500000
797.671570	981.000000
797.707520	978.400000
797.743347	973.800000
797.779297	989.800000
797.815125	980.000000
797.851074	967.500000
797.887024	964.400000
797.922913	954.600000
797.958801	969.900000
797.994690	964.800000
798.030579	971.700000
798.066467	978.300000
798.102356	961.500000
798.138245	949.400000
798.174133	951.100000
798.210083	957.400000
798.245911	962.500000
798.281799	966.600000
798.317749	959.800000
798.353577	952.100000
798.389465	951.400000
798.425293	946.900000
798.461243	942.800000
798.497131	945.800000
798.532959	949.000000
798.568848	952.300000
798.604736	941.100000
798.640564	927.100000
798.676453	927.200000
798.712402	936.000000
798.748230	939.300000
798.784119	935.000000
798.820007	934.200000
798.855835	926.500000
798.891724	925.600000
798.927551	922.600000
798.963379	927.900000
798.999268	925.700000
799.035095	922.200000
799.070984	909.600000
799.106873	901.800000
799.142700	913.600000
799.178528	903.900000
799.214417	905.200000
799.250244	917.000000
799.286133	909.200000
799.321960	908.300000
799.357788	901.200000
799.393677	901.700000
799.429504	902.500000
799.465332	901.300000
799.501221	911.500000
799.537048	902.900000
799.572876	890.600000
799.608704	891.200000
799.644531	898.600000
799.680359	897.300000
799.716248	900.000000
799.752014	908.600000
799.787903	897.900000
799.823730	897.500000
799.859558	885.200000
799.895386	891.400000
799.931213	893.200000
799.967041	883.600000
800.002869	879.400000
800.038696	888.300000
800.074463	863.500000
800.110352	872.900000
800.146179	864.700000
800.181946	874.400000
800.217773	870.800000
800.253540	872.200000
800.289429	864.200000
800.325256	861.800000
800.361023	847.500000
800.396851	857.200000
800.432678	854.400000
800.468445	850.500000
800.504272	846.000000
800.540100	829.600000
800.575867	827.300000
800.611694	835.200000
800.647461	823.500000
800.683289	827.700000
800.719116	828.400000
800.754883	819.100000
800.790649	806.500000
800.826477	797.800000
800.862244	821.200000
800.898071	801.900000
800.933838	798.300000
800.969604	795.300000
801.005432	794.900000
801.041199	798.700000
801.076965	790.300000
801.112793	780.000000
801.148560	769.900000
801.184326	775.000000
801.220154	774.500000
801.255859	760.100000
801.291687	762.100000
801.327454	756.800000
801.363281	757.400000
801.398987	756.800000
801.434814	755.700000
801.470520	761.000000
801.506287	747.500000
801.542114	743.900000
801.577820	748.300000
801.613647	743.400000
801.649414	737.000000
801.685120	737.200000
801.720886	746.400000
801.756714	736.100000
801.792419	723.600000
801.828186	721.100000
801.863892	730.800000
801.899719	720.100000
801.935486	715.100000
801.971252	725.700000
802.006958	718.500000
802.042725	709.200000
802.078430	711.700000
802.114197	708.300000
802.149963	724.200000
802.185669	709.200000
802.221436	704.800000
802.257202	706.400000
802.292908	703.900000
802.328674	709.100000
802.364441	705.500000
802.400146	703.000000
802.435913	699.600000
802.471558	695.400000
802.507324	691.100000
802.543091	683.400000
802.578796	694.600000
802.614502	695.500000
802.650269	695.600000
802.685974	679.400000
802.721741	685.700000
802.757446	691.300000
802.793152	683.800000
802.828918	693.600000
802.864624	684.600000
802.900330	682.200000
802.936035	679.900000
802.971802	674.200000
803.007446	672.100000
803.043213	665.600000
803.078857	671.300000
803.114624	656.700000
803.150330	660.100000
803.185974	653.700000
803.221741	652.400000
803.257446	661.800000
803.293152	662.700000
803.328857	654.400000
803.364563	649.200000
803.400208	639.200000
803.435974	649.300000
803.471680	641.800000
803.507324	639.300000
803.543030	648.100000
803.578735	648.700000
803.614441	636.800000
803.650146	643.800000
803.685791	629.400000
803.721497	631.100000
803.757202	620.700000
803.792847	631.600000
803.828552	620.800000
803.864258	622.100000
803.899902	620.100000
803.935608	606.000000
803.971313	615.400000
804.006958	612.900000
804.042664	608.500000
804.078308	613.800000
804.113953	605.700000
804.149658	611.200000
804.185364	598.600000
804.221008	612.800000
804.256714	598.300000
804.292297	597.600000
804.328003	594.600000
804.363708	588.900000
804.399292	587.300000
804.434998	590.500000
804.470703	578.700000
804.506287	593.400000
804.541992	584.700000
804.577637	588.500000
804.613281	577.700000
804.648926	574.900000
804.684570	580.000000
804.720215	570.400000
804.755920	577.200000
804.791565	570.400000
804.827209	570.600000
804.862854	570.000000
804.898437	559.300000
804.934143	563.700000
804.969788	564.300000
805.005371	568.600000
805.041077	564.500000
805.076721	567.700000
805.112305	553.700000
805.147949	555.700000
805.183655	550.800000
805.219238	554.300000
805.254883	555.200000
805.290466	560.400000
805.326111	552.300000
805.361755	542.700000
805.397400	545.300000
805.432983	548.900000
805.468628	549.600000
805.504211	556.400000
805.539856	549.600000
805.575500	558.300000
805.611084	547.500000
805.646729	530.600000
805.682373	538.500000
805.717957	550.500000
805.753601	551.900000
805.789246	532.400000
805.824768	542.900000
805.860413	544.900000
805.895996	533.000000
805.931641	535.400000
805.967224	540.100000
806.002869	532.100000
806.038452	542.100000
806.074036	539.000000
806.109619	523.300000
806.145264	523.200000
806.180847	524.700000
806.216431	519.200000
806.252014	524.000000
806.287659	525.000000
806.323181	531.000000
806.358826	525.800000
806.394409	505.300000
806.429993	507.100000
806.465576	522.800000
806.501160	510.300000
806.536743	500.600000
806.572327	508.800000
806.607910	504.900000
806.643494	505.700000
806.679077	499.300000
806.714661	502.200000
806.750244	505.400000
806.785828	494.700000
806.821350	492.600000
806.856934	500.300000
806.892517	492.900000
806.928101	488.600000
806.963684	488.100000
806.999268	499.400000
807.034790	479.900000
807.070374	486.400000
807.105896	480.400000
807.141479	477.100000
807.177063	485.000000
807.212585	475.500000
807.248169	475.400000
807.283752	483.900000
807.319275	474.800000
807.354858	472.900000
807.390381	469.700000
807.425903	469.900000
807.461487	469.000000
807.497070	457.600000
807.532593	460.000000
807.568115	458.700000
807.603699	454.200000
807.639221	448.500000
807.674744	452.100000
807.710266	457.700000
807.745850	462.000000
807.781372	451.600000
807.816895	446.500000
807.852417	453.500000
807.888000	447.500000
807.923523	445.800000
807.959045	451.600000
807.994629	437.800000
808.030090	436.200000
808.065613	442.000000
808.101135	442.100000
808.136658	440.300000
808.172241	436.800000
808.207764	437.100000
808.243225	429.700000
808.278809	427.300000
808.314270	435.700000
808.349792	424.000000
808.385315	422.900000
808.420837	427.200000
808.456360	431.800000
808.491882	430.800000
808.527344	425.900000
808.562866	434.200000
808.598389	427.800000
808.633850	421.300000
808.669434	416.400000
808.704895	424.800000
808.740417	431.000000
808.775940	423.800000
808.811462	416.000000
808.846924	407.000000
808.882385	404.700000
808.917847	405.100000
808.953369	405.900000
808.988892	398.700000
809.024353	408.600000
809.059875	406.700000
809.095398	405.700000
809.130798	399.100000
809.166321	398.900000
809.201843	397.300000
809.237305	398.600000
809.272766	403.100000
809.308228	388.100000
809.343750	389.200000
809.379211	389.700000
809.414734	390.100000
809.450134	398.600000
809.485657	382.200000
809.521118	388.600000
809.556580	385.100000
809.592102	384.100000
809.627502	381.700000
809.663025	379.800000
809.698486	377.100000
809.733887	370.900000
809.769409	373.300000
809.804871	364.000000
809.840271	367.600000
809.875793	370.600000
809.911194	374.500000
809.946655	366.300000
809.982178	363.100000
810.017639	368.200000
810.053040	366.100000
810.088501	360.500000
810.123901	362.300000
810.159424	356.600000
810.194885	353.100000
810.230286	358.400000
810.265747	350.700000
810.301208	348.300000
810.336609	353.200000
810.372070	348.100000
810.407532	352.900000
810.442932	350.500000
810.478394	354.500000
810.513794	348.100000
810.549255	348.000000
810.584717	343.200000
810.620117	340.000000
810.655518	348.500000
810.690979	345.800000
810.726379	345.700000
810.761841	332.000000
810.797302	333.200000
810.832642	330.000000
810.868103	345.700000
810.903564	333.300000
810.938904	340.400000
810.974365	328.500000
811.009827	335.300000
811.045166	329.500000
811.080627	322.100000
811.115967	328.500000
811.151428	337.200000
811.186829	326.000000
811.222229	328.500000
811.257629	322.200000
811.293091	328.500000
811.328430	332.400000
811.363892	325.400000
811.399292	329.300000
811.434631	321.900000
811.470093	326.400000
811.505493	318.600000
811.540833	320.200000
811.576294	324.300000
811.611694	320.400000
811.647034	314.600000
811.682434	315.600000
811.717773	318.000000
811.753235	322.500000
811.788635	315.900000
811.823975	316.900000
811.859375	324.300000
811.894775	310.500000
811.930115	313.300000
811.965515	313.000000
812.000916	317.300000
812.036255	309.700000
812.071655	316.700000
812.106995	307.700000
812.142395	308.800000
812.177795	315.700000
812.213196	313.500000
812.248474	315.300000
812.283875	305.200000
812.319214	309.700000
812.354614	309.000000
812.390015	303.300000
812.425293	306.600000
812.460693	304.900000
812.496094	300.800000
812.531433	295.100000
812.566772	294.900000
812.602173	300.400000
812.637451	302.100000
812.672852	295.300000
812.708191	299.100000
812.743530	293.900000
812.778931	287.200000
812.814270	292.100000
812.849609	299.500000
812.884949	292.500000
812.920227	286.000000
812.955627	301.100000
812.990967	293.400000
813.026306	288.300000
813.061646	276.400000
813.096985	275.300000
813.132324	274.600000
813.167664	278.400000
813.203003	283.300000
813.238281	271.300000
813.273682	272.100000
813.308960	270.700000
813.344299	273.100000
813.379639	280.500000
813.414978	272.300000
813.450256	272.000000
813.485596	275.800000
813.520874	268.300000
813.556213	272.900000
813.591614	275.300000
813.626831	267.600000
813.662170	274.200000
813.697510	281.900000
813.732788	263.700000
813.768127	270.700000
813.803467	270.000000
813.838745	266.300000
813.874084	270.700000
813.909363	268.300000
813.944641	271.500000
813.979980	259.800000
814.015320	265.800000
814.050598	261.500000
814.085876	267.000000
814.121155	263.700000
814.156494	263.200000
814.191772	263.800000
814.227051	257.300000
814.262390	262.400000
814.297668	261.000000
814.332947	262.100000
814.368225	254.500000
814.403564	258.000000
814.438782	256.500000
814.474121	258.500000
814.509338	254.400000
814.544617	261.600000
814.579956	252.700000
814.615173	262.400000
814.650513	260.300000
814.685791	251.500000
814.721008	255.600000
814.756348	254.000000
814.791626	250.100000
814.826843	251.700000
814.862122	251.800000
814.897400	248.900000
814.932678	251.500000
814.967957	250.200000
815.003235	248.600000
815.038452	242.800000
815.073730	241.900000
815.108948	252.500000
815.144226	250.300000
815.179504	252.200000
815.214722	237.600000
815.250000	238.600000
815.285278	244.500000
815.320496	238.000000
815.355774	242.300000
815.391052	243.800000
815.426270	239.800000
815.461487	239.900000
815.496765	235.900000
815.531982	231.600000
815.567261	239.600000
815.602539	246.000000
815.637695	240.100000
815.672974	241.700000
815.708191	241.700000
815.743408	243.700000
815.778687	235.500000
815.813904	246.600000
815.849121	227.400000
815.884399	230.500000
815.919556	231.300000
815.954834	232.600000
815.990051	235.500000
816.025269	237.500000
816.060486	229.400000
816.095703	228.700000
816.130920	233.700000
816.166199	229.000000
816.201416	232.900000
816.236572	239.000000
816.271851	226.900000
816.307007	236.200000
816.342224	224.200000
816.377441	228.300000
816.412659	218.600000
816.447876	231.000000
816.483093	227.700000
816.518250	227.300000
816.553467	223.900000
816.588745	230.600000
816.623901	222.100000
816.659119	216.500000
816.694275	223.000000
816.729492	219.000000
816.764709	255.100000
816.799927	217.700000
816.835083	222.100000
816.870300	216.400000
816.905457	220.700000
816.940674	223.700000
816.975830	217.400000
817.010986	214.900000
817.046204	216.700000
817.081421	213.900000
817.116577	212.400000
817.151733	223.300000
817.186951	222.900000
817.222107	218.400000
817.257324	222.900000
817.292419	218.700000
817.327637	211.100000
817.362854	215.800000
817.398010	210.200000
817.433167	212.400000
817.468323	212.500000
817.503479	213.000000
817.538635	223.000000
817.573853	216.500000
817.608948	215.900000
817.644165	210.700000
817.679321	209.800000
817.714478	210.800000
817.749634	214.600000
817.784790	224.900000
817.819946	218.600000
817.855103	201.500000
817.890198	211.700000
817.925415	204.900000
817.960571	211.700000
817.995667	211.200000
818.030823	214.100000
818.066040	206.500000
818.101135	209.300000
818.136292	208.200000
818.171448	204.500000
818.206543	209.000000
818.241699	211.400000
818.276855	208.700000
818.311951	207.600000
818.347107	203.900000
818.382263	209.900000
818.417358	215.000000
818.452515	215.900000
818.487610	213.400000
818.522766	204.400000
818.557922	216.000000
818.593018	210.000000
818.628113	209.400000
818.663269	203.500000
818.698364	207.000000
818.733521	202.400000
818.768677	209.300000
818.803711	201.000000
818.838867	201.400000
818.874023	205.900000
818.909058	201.600000
818.944214	200.600000
818.979370	208.500000
819.014404	207.000000
819.049561	202.500000
819.084595	207.600000
819.119751	197.600000
819.154846	207.400000
819.189941	203.800000
819.225037	197.600000
819.260193	194.700000
819.295227	197.500000
819.330322	194.000000
819.365479	194.400000
819.400513	226.100000
819.435608	191.600000
819.470764	189.800000
819.505798	192.700000
819.540894	196.900000
819.575989	195.100000
819.611084	203.600000
819.646179	203.800000
819.681213	200.700000
819.716309	195.800000
819.751404	196.600000
819.786438	201.500000
819.821533	192.700000
819.856628	198.000000
819.891663	202.300000
819.926758	209.000000
819.961853	203.600000
819.996887	193.500000
820.031982	201.300000
820.067017	196.000000
820.102112	225.300000
820.137207	194.700000
820.172302	211.500000
820.207275	193.800000
820.242371	193.700000
820.277405	192.700000
820.312500	196.800000
820.347534	198.900000
820.382568	201.000000
820.417664	192.500000
820.452759	195.000000
820.487732	192.300000
820.522827	194.600000
820.557861	192.200000
820.592896	194.400000
820.627930	194.800000
820.662964	192.400000
820.698059	197.700000
820.733093	194.100000
820.768127	198.600000
820.803162	193.900000
820.838196	193.500000
820.873230	196.100000
820.908264	194.800000
820.943298	192.000000
820.978333	200.200000
821.013367	195.500000
821.048401	200.100000
821.083435	201.900000
821.118469	186.700000
821.153503	200.200000
821.188477	196.600000
821.223511	186.200000
821.258484	194.300000
821.293579	195.000000
821.328613	187.200000
821.363647	192.000000
821.398621	188.500000
821.433655	189.900000
821.468628	207.300000
821.503662	192.200000
821.538696	196.800000
821.573669	188.500000
821.608704	198.100000
821.643677	189.400000
821.678650	197.200000
821.713684	203.000000
821.748718	192.600000
821.783691	192.000000
821.818726	194.100000
821.853638	194.900000
821.888672	192.000000
821.923706	193.800000
821.958618	188.800000
821.993652	190.700000
822.028687	198.100000
822.063599	199.900000
822.098633	194.700000
822.133667	189.500000
822.168579	192.800000
822.203613	194.900000
822.238586	190.100000
822.273560	195.200000
822.308533	190.900000
822.343567	190.700000
822.378479	191.900000
822.413452	192.500000
822.448425	187.400000
822.483398	198.000000
822.518372	198.700000
822.553345	191.500000
822.588318	200.600000
822.623291	191.300000
822.658203	190.400000
822.693237	193.000000
822.728210	188.200000
822.763123	195.100000
822.798096	187.700000
822.833069	193.300000
822.867981	191.900000
822.902954	194.600000
822.937927	196.100000
822.972900	204.600000
823.007874	184.400000
823.042725	196.500000
823.077698	203.500000
823.112671	188.600000
823.147583	190.600000
823.182556	196.400000
823.217529	197.400000
823.252441	190.100000
823.287415	207.300000
823.322388	195.100000
823.357239	192.300000
823.392212	201.000000
823.427185	195.600000
823.462097	188.600000
823.497009	196.000000
823.531982	190.200000
823.566895	193.200000
823.601807	187.500000
823.636719	190.000000
823.671631	196.300000
823.706604	190.900000
823.741455	194.200000
823.776428	184.900000
823.811340	196.200000
823.846252	199.000000
823.881165	199.500000
823.916138	194.400000
823.950989	201.000000
823.985901	189.400000
824.020813	193.500000
824.055725	191.100000
824.090637	188.600000
824.125610	193.200000
824.160461	192.700000
824.195374	195.900000
824.230225	197.900000
824.265198	185.500000
824.300110	189.600000
824.334961	204.200000
824.369873	182.600000
824.404785	195.200000
824.439636	199.700000
824.474548	184.100000
824.509460	181.800000
824.544312	198.200000
824.579224	195.300000
824.614075	195.500000
824.648987	190.300000
824.683899	191.200000
824.718811	189.200000
824.753662	198.700000
824.788574	197.300000
824.823364	194.100000
824.858276	189.000000
824.893188	197.700000
824.928040	198.700000
824.962952	195.700000
824.997803	196.600000
825.032654	193.200000
825.067566	195.600000
825.102417	190.700000
825.137268	191.100000
825.172119	193.200000
825.206970	190.500000
825.241882	191.300000
825.276733	189.500000
825.311646	190.000000
825.346436	185.000000
825.381348	187.100000
825.416138	192.300000
825.450989	187.400000
825.485901	184.200000
825.520691	183.300000
825.555542	185.800000
825.590454	191.100000
825.625244	184.200000
825.660095	199.900000
825.695007	196.200000
825.729797	190.400000
825.764648	188.000000
825.799438	190.600000
825.834290	192.600000
825.869202	185.700000
825.903992	194.000000
825.938843	188.900000
825.973694	187.000000
826.008484	203.100000
826.043335	186.400000
826.078186	183.000000
826.112976	198.500000
826.147827	197.100000
826.182678	203.500000
826.217468	184.300000
826.252319	197.000000
826.287109	187.400000
826.321899	199.200000
826.356750	189.500000
826.391541	186.900000
826.426392	198.000000
826.461182	191.400000
826.495972	185.600000
826.530823	183.300000
826.565613	191.800000
826.600403	186.400000
826.635254	194.000000
826.670044	183.200000
826.704834	184.600000
826.739685	186.500000
826.774475	193.100000
826.809265	190.100000
826.844055	188.100000
826.878906	198.500000
826.913635	194.100000
826.948425	194.900000
826.983215	191.500000
827.018005	196.000000
827.052856	189.200000
827.087585	193.600000
827.122375	183.500000
827.157227	190.700000
827.191956	202.400000
827.226746	188.000000
827.261536	195.300000
827.296265	183.600000
827.331116	189.000000
827.365906	194.600000
827.400635	187.400000
827.435425	183.500000
827.470215	199.000000
827.504944	190.100000
827.539734	196.900000
827.574463	190.300000
827.609253	197.800000
827.644043	192.300000
827.678772	197.900000
827.713562	189.100000
827.748352	189.600000
827.783081	188.500000
827.817871	192.200000
827.852600	186.700000
827.887329	193.200000
827.922119	181.300000
827.956848	193.600000
827.991638	205.100000
828.026367	192.000000
828.061157	191.300000
828.095886	191.400000
828.130615	205.900000
828.165344	180.400000
828.200073	191.400000
828.234863	188.300000
828.269592	191.000000
828.304321	198.100000
828.339111	192.500000
828.373779	188.000000
828.408569	195.500000
828.443298	196.500000
828.477966	189.200000
828.512756	191.400000
828.547424	185.700000
828.582214	188.900000
828.616943	189.000000
828.651672	190.200000
828.686340	194.200000
828.721130	188.000000
828.755798	189.800000
828.790527	190.700000
828.825256	193.600000
828.859924	191.600000
828.894714	198.700000
828.929443	199.600000
828.964111	188.500000
828.998840	194.800000
829.033569	190.000000
829.068237	189.500000
829.102966	189.100000
829.137634	194.100000
829.172363	193.900000
829.207092	193.000000
829.241821	187.900000
829.276489	184.200000
829.311157	192.500000
829.345825	189.700000
829.380554	197.300000
829.415283	186.800000
829.449951	185.000000
829.484619	201.500000
829.519348	199.700000
829.554016	190.500000
829.588745	191.300000
829.623413	185.700000
829.658081	202.500000
829.692749	185.300000
829.727417	195.800000
829.762146	193.200000
829.796814	187.900000
829.831482	189.800000
829.866150	192.300000
829.900879	187.300000
829.935486	193.800000
829.970154	188.300000
830.004883	202.200000
830.039490	191.500000
830.074219	189.100000
830.108887	191.800000
830.143494	191.000000
830.178223	186.100000
830.212891	189.800000
830.247498	191.200000
830.282166	198.800000
830.316772	197.600000
830.351501	188.300000
830.386169	191.100000
830.420776	188.700000
830.455444	191.000000
830.490112	189.800000
830.524719	182.600000
830.559387	193.800000
830.594055	194.800000
830.628662	190.500000
830.663330	190.400000
830.697998	199.700000
830.732605	189.700000
830.767273	193.400000
830.801941	191.800000
830.836487	201.000000
830.871155	193.500000
830.905762	193.500000
830.940430	184.200000
830.975098	187.500000
831.009644	193.200000
831.044312	198.700000
831.078979	193.700000
831.113525	181.500000
831.148193	191.100000
831.182861	189.400000
831.217407	195.000000
831.252075	209.400000
831.286621	188.400000
831.321289	187.700000
831.355896	191.300000
831.390564	197.900000
831.425110	192.100000
831.459778	197.300000
831.494324	205.100000
831.528931	193.800000
831.563599	195.400000
831.598145	184.500000
831.632751	191.300000
831.667419	188.400000
831.701965	193.300000
831.736572	194.500000
831.771179	183.800000
831.805786	189.200000
831.840393	197.300000
831.874939	182.800000
831.909546	194.800000
831.944153	182.900000
831.978760	189.600000
832.013306	185.700000
832.047913	198.300000
832.082458	200.200000
832.117065	187.900000
832.151672	199.700000
832.186218	191.100000
832.220825	195.400000
832.255432	183.300000
832.289978	187.300000
832.324585	192.700000
832.359192	194.000000
832.393677	189.300000
832.428284	192.700000
832.462830	189.400000
832.497437	189.100000
832.531982	193.900000
832.566589	190.300000
832.601135	192.400000
832.635681	182.400000
832.670227	190.300000
832.704773	198.800000
832.739380	193.700000
832.773926	191.000000
832.808472	187.000000
832.843079	191.800000
832.877563	193.800000
832.912170	189.000000
832.946716	183.200000
832.981201	197.800000
833.015808	193.600000
833.050293	190.700000
833.084839	185.800000
833.119446	189.000000
833.153992	195.600000
833.188477	191.300000
833.223022	185.800000
833.257568	192.400000
833.292114	197.300000
833.326660	203.700000
833.361145	187.400000
833.395691	182.400000
833.430237	190.400000
833.464783	193.800000
833.499329	188.000000
833.533875	185.900000
833.568359	195.000000
833.602905	196.800000
833.637390	195.700000
833.671875	187.400000
833.706421	189.800000
833.740906	187.100000
833.775452	179.800000
833.809998	188.800000
833.844482	198.900000
833.879028	190.600000
833.913513	189.100000
833.947998	193.600000
833.982544	188.200000
834.017090	188.800000
834.051514	180.600000
834.086060	193.900000
834.120544	191.600000
834.155029	193.800000
834.189575	189.800000
834.223999	193.300000
834.258545	193.200000
834.293030	192.600000
834.327515	192.300000
834.362000	186.900000
834.396545	195.900000
834.430969	190.100000
834.465454	194.500000
834.500000	182.500000
834.534424	193.500000
834.568970	181.000000
834.603455	183.700000
834.637878	188.000000
834.672363	190.800000
834.706909	190.800000
834.741333	191.500000
834.775818	183.400000
834.810242	187.100000
834.844727	191.100000
834.879211	188.600000
834.913635	190.600000
834.948181	192.100000
834.982666	191.500000
835.017090	188.900000
835.051575	193.900000
835.086060	188.200000
835.120483	195.000000
835.154907	195.500000
835.189331	190.000000
835.223816	194.000000
835.258301	185.200000
835.292786	186.800000
835.327209	196.500000
835.361694	187.400000
835.396057	185.800000
835.430542	193.700000
835.465027	192.600000
835.499390	185.500000
835.533875	210.900000
835.568359	189.400000
835.602722	183.600000
835.637207	192.900000
835.671692	185.800000
835.706055	207.700000
835.740540	193.200000
835.774902	194.300000
835.809387	192.800000
835.843811	183.400000
835.878235	198.700000
835.912659	185.500000
835.947083	188.300000
835.981506	190.600000
836.015930	183.200000
836.050354	196.800000
836.084778	200.000000
836.119202	197.100000
836.153625	204.400000
836.187988	186.700000
836.222473	187.400000
836.256897	193.000000
836.291260	190.700000
836.325684	192.200000
836.360046	188.300000
836.394470	190.300000
836.428894	198.000000
836.463318	186.700000
836.497681	195.500000
836.532104	198.200000
836.566467	191.400000
836.600891	190.600000
836.635315	196.700000
836.669678	193.400000
836.704102	194.500000
836.738525	192.000000
836.772888	182.300000
836.807251	189.200000
836.841675	192.800000
836.876038	185.300000
836.910461	187.200000
836.944763	193.900000
836.979187	187.800000
837.013611	197.200000
837.047974	184.800000
837.082336	203.300000
837.116699	194.900000
837.151062	189.500000
837.185486	184.700000
837.219849	189.400000
837.254211	195.600000
837.288574	190.800000
837.322937	185.600000
837.357300	178.500000
837.391663	203.100000
837.426086	196.600000
837.460388	191.600000
837.494751	196.300000
837.529114	189.900000
837.563477	197.600000
837.597839	193.100000
837.632141	191.100000
837.666565	188.300000
837.700928	194.800000
837.735229	195.400000
837.769592	193.000000
837.803955	196.100000
837.838257	189.600000
837.872620	187.500000
837.906982	199.400000
837.941284	191.900000
837.975647	191.500000
838.010010	197.900000
838.044312	189.500000
838.078674	189.200000
838.112976	191.700000
838.147339	195.500000
838.181702	192.400000
838.216003	200.600000
838.250366	193.800000
838.284668	195.000000
838.318970	183.600000
838.353333	192.100000
838.387634	189.000000
838.421936	190.800000
838.456299	191.800000
838.490601	199.100000
838.524902	194.400000
838.559265	197.000000
838.593567	195.200000
838.627869	185.500000
838.662170	193.300000
838.696472	183.400000
838.730774	188.000000
838.765137	195.000000
838.799377	176.800000
838.833740	193.600000
838.868042	198.300000
838.902283	182.700000
838.936646	196.800000
838.970947	192.800000
839.005188	197.000000
839.039551	185.400000
839.073792	198.000000
839.108093	188.800000
839.142395	201.100000
839.176697	184.900000
839.210937	191.300000
839.245300	202.900000
839.279541	185.400000
839.313843	190.700000
839.348145	194.600000
839.382385	196.100000
839.416687	196.600000
839.450989	196.800000
839.485229	190.800000
839.519531	187.800000
839.553833	197.300000
839.588013	191.900000
839.622314	191.900000
839.656555	194.800000
839.690857	189.800000
839.725159	186.100000
839.759460	190.800000
839.793640	188.600000
839.827942	190.300000
839.862183	187.800000
839.896423	193.500000
839.930725	200.900000
839.964966	199.700000
839.999207	199.700000
840.033508	197.800000
840.067688	188.000000
840.101990	201.200000
840.136230	190.800000
840.170471	198.700000
840.204712	187.300000
840.238953	187.200000
840.273193	193.000000
840.307434	194.800000
840.341736	186.200000
840.375916	184.600000
840.410217	189.300000
840.444397	197.100000
840.478638	195.200000
840.512878	198.900000
840.547119	193.400000
840.581360	194.000000
840.615601	201.600000
840.649780	201.300000
840.684021	192.000000
840.718262	200.300000
840.752441	197.500000
840.786682	192.700000
840.820862	194.400000
840.855103	200.100000
840.889343	193.400000
840.923584	196.500000
840.957764	195.400000
840.992004	193.600000
841.026184	205.800000
841.060425	191.200000
841.094666	188.300000
841.128845	195.400000
841.163025	193.500000
841.197266	194.900000
841.231445	192.400000
841.265686	192.800000
841.299866	186.900000
841.334045	199.300000
841.368286	190.200000
841.402405	199.500000
841.436646	196.300000
841.470825	189.400000
841.505005	191.200000
841.539185	187.800000
841.573425	188.600000
841.607544	192.800000
841.641785	192.300000
841.675964	186.300000
841.710144	190.600000
841.744324	189.800000
841.778503	191.200000
841.812683	187.800000
841.846863	201.100000
841.881042	198.100000
841.915222	189.500000
841.949402	205.800000
841.983521	182.900000
842.017700	190.000000
842.051880	192.500000
842.086060	193.200000
842.120239	192.500000
842.154419	190.900000
842.188538	192.300000
842.222717	187.000000
842.256897	203.100000
842.291016	189.500000
842.325195	195.300000
842.359375	203.100000
842.393494	201.400000
842.427673	192.700000
842.461853	196.500000
842.495911	201.900000
842.530090	195.100000
842.564209	192.200000
842.598389	192.900000
842.632568	194.900000
842.666626	196.300000
842.700806	189.400000
842.734985	190.600000
842.769043	195.500000
842.803223	190.500000
842.837402	192.000000
842.871460	189.500000
842.905640	199.900000
842.939697	187.500000
842.973877	195.100000
843.007996	197.000000
843.042175	201.600000
843.076233	189.300000
843.110413	193.100000
843.144470	201.800000
843.178589	195.600000
843.212769	189.100000
843.246826	196.800000
843.280945	191.300000
843.315125	190.100000
843.349182	187.800000
843.383301	198.700000
843.417419	204.400000
843.451538	192.200000
843.485657	190.300000
843.519714	192.200000
843.553833	195.100000
843.587952	191.400000
843.622070	187.900000
843.656128	195.200000
843.690247	190.500000
843.724304	190.500000
843.758423	194.300000
843.792542	190.600000
843.826599	191.300000
843.860718	191.000000
843.894836	185.000000
843.928894	194.100000
843.963013	195.500000
843.997070	189.200000
844.031128	186.500000
844.065247	198.200000
844.099304	197.500000
844.133362	193.000000
844.167480	195.000000
844.201599	200.600000
844.235596	194.300000
844.269714	194.800000
844.303711	195.100000
844.337830	184.900000
844.371948	195.400000
844.405945	191.000000
844.440063	187.900000
844.474121	206.400000
844.508118	191.100000
844.542236	192.200000
844.576294	191.600000
844.610352	187.200000
844.644409	191.400000
844.678406	184.100000
844.712524	195.700000
844.746582	198.700000
844.780640	191.900000
844.814636	192.100000
844.848755	203.000000
844.882751	192.000000
844.916809	196.700000
844.950867	192.800000
844.984863	200.400000
845.018921	192.300000
845.052979	187.900000
845.086975	193.300000
845.121033	186.000000
845.155090	186.900000
845.189087	198.200000
845.223145	189.500000
845.257141	192.400000
845.291199	196.600000
845.325256	201.300000
845.359253	192.700000
845.393250	203.400000
845.427307	191.800000
845.461304	195.200000
845.495361	193.700000
845.529358	203.800000
845.563354	190.200000
845.597412	188.100000
845.631409	200.500000
845.665405	200.100000
845.699463	198.200000
845.733459	192.000000
845.767456	199.900000
845.801453	191.500000
845.835449	200.500000
845.869446	197.000000
845.903503	197.300000
845.937439	189.500000
845.971497	198.700000
846.005493	186.400000
846.039429	195.900000
846.073486	202.100000
846.107483	190.600000
846.141418	193.100000
846.175476	192.800000
846.209473	199.300000
846.243408	189.100000
846.277405	193.300000
846.311401	186.900000
846.345337	193.400000
846.379395	199.200000
846.413330	190.700000
846.447327	200.300000
846.481323	185.900000
846.515259	188.800000
846.549255	194.000000
846.583252	195.100000
846.617187	186.900000
846.651184	195.200000
846.685120	191.100000
846.719055	199.500000
846.753052	197.100000
846.786987	196.800000
846.820984	186.900000
846.854980	199.900000
846.888916	188.400000
846.922852	195.900000
846.956848	202.300000
846.990723	188.900000
847.024719	193.800000
847.058716	191.300000
847.092590	200.100000
847.126587	195.000000
847.160522	190.900000
847.194458	197.600000
847.228455	188.600000
847.262390	188.400000
847.296265	190.900000
847.330261	199.600000
847.364136	190.900000
847.398132	189.500000
847.432068	193.900000
847.466003	191.200000
847.499939	191.500000
847.533875	194.900000
847.567749	190.500000
847.601746	191.300000
847.635681	195.400000
847.669556	184.400000
847.703491	198.400000
847.737427	207.400000
847.771301	189.100000
847.805237	193.900000
847.839233	194.900000
847.873108	192.200000
847.907043	190.700000
847.940918	198.500000
847.974854	192.800000
848.008789	196.200000
848.042664	192.900000
848.076538	196.700000
848.110474	192.500000
848.144348	195.800000
848.178284	187.700000
848.212219	194.700000
848.246094	190.900000
848.279968	195.200000
848.313904	195.800000
848.347778	195.300000
848.381653	192.500000
848.415588	190.200000
848.449463	189.500000
848.483337	196.500000
848.517212	197.500000
848.551086	194.000000
848.585022	188.600000
848.618835	201.400000
848.652771	190.400000
848.686646	188.800000
848.720520	201.200000
848.754395	191.100000
848.788330	197.700000
848.822144	196.500000
848.856018	191.900000
848.889954	203.000000
848.923767	188.100000
848.957642	189.000000
848.991577	197.300000
849.025391	189.900000
849.059265	191.700000
849.093079	189.800000
849.126953	188.100000
849.160828	198.200000
849.194641	193.400000
849.228577	189.700000
849.262451	192.300000
849.296265	191.400000
849.330139	188.700000
849.364014	194.000000
849.397827	196.700000
849.431702	192.500000
849.465515	199.000000
849.499329	184.900000
849.533203	187.800000
849.567078	181.700000
849.600891	197.000000
849.634766	191.700000
849.668518	197.200000
849.702393	193.200000
849.736267	186.000000
849.770020	204.100000
849.803894	196.700000
849.837769	192.500000
849.871521	193.300000
849.905396	198.800000
849.939270	188.000000
849.973022	191.800000
850.006897	197.400000
850.040710	195.800000
850.074524	196.000000
850.108337	191.100000
850.142151	196.600000
850.175964	199.800000
850.209778	190.400000
850.243530	179.500000
850.277405	198.500000
850.311218	193.900000
850.344971	190.500000
850.378845	202.500000
850.412659	190.100000
850.446411	194.100000
850.480225	192.300000
850.514038	199.000000
850.547791	196.000000
850.581665	193.700000
850.615417	189.700000
850.649231	193.600000
850.683044	191.800000
850.716858	190.900000
850.750610	194.900000
850.784424	196.800000
850.818176	189.900000
850.851929	192.000000
850.885742	189.800000
850.919495	191.900000
850.953308	200.300000
850.987122	202.400000
851.020874	187.300000
851.054626	186.100000
851.088440	196.300000
851.122192	195.500000
851.156006	192.600000
851.189697	192.800000
851.223511	187.800000
851.257263	197.400000
851.291077	195.400000
851.324829	192.100000
851.358582	189.600000
851.392334	191.700000
851.426086	192.300000
851.459900	200.800000
851.493591	192.400000
851.527344	193.500000
851.561157	192.600000
851.594849	195.200000
851.628662	195.100000
851.662415	200.400000
851.696106	195.200000
851.729858	197.900000
851.763611	187.800000
851.797363	194.000000
851.831116	189.600000
851.864868	195.900000
851.898560	197.500000
851.932312	191.800000
851.966064	194.700000
851.999817	192.200000
852.033569	193.400000
852.067261	197.000000
852.101013	189.400000
852.134766	192.800000
852.168457	182.600000
852.202209	198.500000
852.235901	189.500000
852.269592	194.900000
852.303345	201.300000
852.337036	197.100000
852.370789	192.800000
852.404541	196.600000
852.438171	189.300000
852.471924	193.300000
852.505676	186.600000
852.539307	195.400000
852.573059	189.100000
852.606812	190.200000
852.640442	191.800000
852.674194	197.500000
852.707886	204.300000
852.741577	199.900000
852.775269	188.700000
852.809021	194.500000
852.842651	195.500000
852.876404	198.700000
852.910034	194.400000
852.943787	199.000000
852.977478	196.200000
853.011108	190.200000
853.044861	191.400000
853.078552	199.100000
853.112183	195.200000
853.145874	195.400000
853.179626	182.900000
853.213257	194.600000
853.246948	189.900000
853.280640	201.600000
853.314270	192.200000
853.347961	200.900000
853.381653	195.700000
853.415283	197.300000
853.448975	190.600000
853.482605	195.100000
853.516296	192.700000
853.549988	187.700000
853.583618	194.600000
853.617310	195.800000
853.651001	194.700000
853.684631	188.600000
853.718323	190.200000
853.751953	200.600000
853.785583	184.800000
853.819275	197.800000
853.852966	194.000000
853.886536	185.200000
853.920227	187.600000
853.953918	199.400000
853.987488	191.500000
854.021179	196.000000
854.054749	199.900000
854.088440	196.200000
854.122131	189.500000
854.155701	197.700000
854.189331	189.800000
854.223022	196.100000
854.256592	195.900000
854.290283	189.800000
854.323914	197.500000
854.357483	194.600000
854.391174	195.200000
854.424744	202.900000
854.458374	193.200000
854.492065	204.800000
854.525696	196.300000
854.559265	200.800000
854.592896	204.400000
854.626465	192.500000
854.660095	194.600000
854.693787	194.100000
854.727356	192.000000
854.760986	198.300000
854.794617	195.000000
854.828186	192.400000
854.861816	196.200000
854.895447	195.300000
854.929016	194.300000
854.962585	196.300000
854.996155	201.700000
855.029785	195.300000
855.063416	196.900000
855.097046	198.300000
855.130615	188.400000
855.164185	199.400000
855.197754	194.700000
855.231384	196.000000
855.264954	191.800000
855.298523	196.500000
855.332153	194.000000
855.365723	200.300000
855.399292	191.200000
855.432922	193.400000
855.466492	194.300000
855.500061	188.400000
855.533630	190.500000
855.567200	196.600000
855.600769	198.200000
855.634338	197.400000
855.667969	195.100000
855.701477	189.500000
855.735046	189.400000
855.768616	184.500000
855.802185	194.600000
855.835754	207.400000
855.869324	185.600000
855.902893	191.500000
855.936401	200.600000
855.969971	195.200000
856.003540	186.200000
856.037109	196.600000
856.070618	193.200000
856.104187	185.800000
856.137695	191.000000
856.171265	183.100000
856.204834	191.700000
856.238403	198.700000
856.271912	189.600000
856.305481	195.500000
856.338989	189.100000
856.372559	195.800000
856.406128	194.100000
856.439636	199.000000
856.473145	191.900000
856.506653	200.300000
856.540222	191.900000
856.573792	200.200000
856.607300	196.900000
856.640808	188.600000
856.674377	194.700000
856.707825	222.000000
856.741394	197.100000
856.774902	191.300000
856.808472	184.100000
856.841980	196.800000
856.875488	200.900000
856.908936	187.100000
856.942505	192.200000
856.976013	192.600000
857.009521	188.500000
857.043030	195.200000
857.076477	192.800000
857.110046	198.200000
857.143555	193.400000
857.177063	199.200000
857.210571	190.700000
857.244080	186.000000
857.277527	196.900000
857.311035	191.900000
857.344543	195.800000
857.378052	192.800000
857.411499	198.300000
857.445068	203.500000
857.478516	193.200000
857.512024	186.500000
857.545532	191.600000
857.578979	195.000000
857.612427	193.000000
857.645874	190.000000
857.679382	194.100000
857.712891	197.100000
857.746399	192.400000
857.779846	197.700000
857.813354	198.700000
857.846741	193.100000
857.880249	189.900000
857.913757	193.000000
857.947266	194.200000
857.980652	196.800000
858.014160	189.600000
858.047546	191.500000
858.081055	190.400000
858.114563	201.100000
858.147949	188.200000
858.181458	197.600000
858.214844	191.900000
858.248352	185.100000
858.281799	199.400000
858.315308	207.100000
858.348694	197.500000
858.382141	200.900000
858.415588	197.400000
858.449036	199.000000
858.482483	195.900000
858.515930	189.500000
858.549377	193.700000
858.582825	199.300000
858.616211	198.000000
858.649658	195.200000
858.683105	188.900000
858.716553	190.000000
858.750000	189.200000
858.783386	191.000000
858.816833	185.900000
858.850281	195.800000
858.883728	196.100000
858.917114	192.700000
858.950562	202.300000
858.983948	202.500000
859.017395	196.800000
859.050781	192.100000
859.084167	187.500000
859.117615	187.700000
859.151062	196.200000
859.184448	189.300000
859.217834	190.900000
859.251282	192.000000
859.284668	188.800000
859.318054	183.000000
859.351440	190.400000
859.384888	201.000000
859.418274	184.600000
859.451721	184.200000
859.485046	195.200000
859.518494	194.400000
859.551819	189.700000
859.585266	195.400000
859.618652	195.500000
859.652039	187.100000
859.685425	187.800000
859.718811	185.200000
859.752197	181.800000
859.785583	200.700000
859.819031	200.500000
859.852356	197.100000
859.885742	189.000000
859.919067	193.100000
859.952454	190.900000
859.985901	199.900000
860.019287	190.900000
860.052612	0.000000
860.085999	0.000000
860.119324	0.000000
860.152710	0.000000
860.186096	0.000000
860.219421	0.000000
860.252808	0.000000
860.286133	0.000000
860.319519	0.000000
860.352905	0.000000
860.386292	0.000000
860.419617	0.000000
860.452942	0.000000
860.486267	0.000000
860.519653	0.000000
860.553040	0.000000
860.586365	0.000000
860.619690	0.000000
860.653076	0.000000
860.686340	0.000000
860.719727	0.000000
860.753113	0.000000
860.786377	0.000000
860.819763	0.000000
860.853027	0.000000
860.886414	0.000000
860.919739	0.000000
860.953125	0.000000
860.986389	0.000000
861.019714	0.000000
861.053040	0.000000
861.086365	0.000000
861.119690	0.000000
861.153076	0.000000
861.186340	0.000000
861.219666	0.000000
861.252930	0.000000
861.286316	0.000000
861.319641	0.000000
861.352905	0.000000
861.386230	0.000000
861.419495	0.000000
861.452820	0.000000
861.486145	0.000000
861.519470	0.000000
861.552734	0.000000
861.586060	0.000000
861.619324	0.000000
861.652649	0.000000
861.685974	0.000000
861.719238	0.000000
861.752563	0.000000
861.785828	0.000000
861.819092	0.000000
861.852417	0.000000
861.885742	0.000000
861.918945	0.000000
861.952271	0.000000
861.985535	0.000000
862.018799	0.000000
862.052124	0.000000
862.085449	0.000000
862.118652	0.000000
862.151978	0.000000
862.185181	0.000000
862.218506	0.000000
862.251770	0.000000
862.285034	0.000000
862.318298	0.000000
862.351562	0.000000
862.384827	0.000000
862.418091	0.000000
862.451355	0.000000
862.484619	0.000000
862.517883	0.000000
862.551086	0.000000
862.584351	0.000000
862.617676	0.000000
862.650940	0.000000
862.684143	0.000000
862.717407	0.000000
862.750610	0.000000
862.783875	0.000000
862.817139	0.000000
862.850342	0.000000
862.883606	0.000000
862.916870	0.000000
862.950073	0.000000
862.983337	0.000000
863.016602	0.000000
863.049805	0.000000
863.083069	0.000000
863.116211	0.000000
863.149475	0.000000
863.182739	0.000000
863.216003	0.000000
863.249146	0.000000
863.282410	0.000000
863.315613	0.000000
863.348816	0.000000
863.382080	0.000000
863.415222	0.000000
863.448486	0.000000
863.481689	0.000000
863.514893	0.000000
863.548157	0.000000
863.581360	0.000000
863.614502	0.000000
863.647766	0.000000
863.680908	0.000000
863.714172	0.000000
863.747375	0.000000
863.780579	0.000000
863.813721	0.000000
863.846985	0.000000
863.880127	0.000000
863.913330	0.000000
863.946533	0.000000
863.979675	0.000000
864.012939	0.000000
