Model Number: SPM-001-M   
Serial Number: 10090201
Firmware Version: 004.17.6
Exposure Time: 500000.000000us
Data Taken on: 10-03-2021 12:30:51.955
Wavelength	Amplitude
733.770752	0.000000
733.808716	0.000000
733.846619	0.000000
733.884583	0.000000
733.922546	0.000000
733.960449	0.000000
733.998413	0.000000
734.036377	0.000000
734.074219	0.000000
734.112183	0.000000
734.150085	0.000000
734.188049	0.000000
734.226013	0.000000
734.263916	0.000000
734.301819	0.000000
734.339783	0.000000
734.377686	0.000000
734.415588	0.000000
734.453552	0.000000
734.491455	0.000000
734.529419	0.000000
734.567322	0.000000
734.605225	0.000000
734.643127	0.000000
734.681091	0.000000
734.718994	0.000000
734.756897	0.000000
734.794800	0.000000
734.832703	0.000000
734.870667	0.000000
734.908508	0.000000
734.946472	0.000000
734.984375	0.000000
735.022278	0.000000
735.060181	0.000000
735.098083	0.000000
735.135986	0.000000
735.173889	0.000000
735.211792	0.000000
735.249695	0.000000
735.287598	0.000000
735.325439	0.000000
735.363403	0.000000
735.401306	0.000000
735.439148	0.000000
735.477051	0.000000
735.515015	0.000000
735.552856	0.000000
735.590759	0.000000
735.628662	0.000000
735.666504	0.000000
735.704407	0.000000
735.742310	0.000000
735.780212	0.000000
735.818115	0.000000
735.856018	0.000000
735.893860	0.000000
735.931763	0.000000
735.969604	0.000000
736.007507	0.000000
736.045410	0.000000
736.083252	0.000000
736.121094	0.000000
736.158997	0.000000
736.196838	0.000000
736.234741	0.000000
736.272644	0.000000
736.310486	0.000000
736.348389	0.000000
736.386230	0.000000
736.424072	0.000000
736.461975	0.000000
736.499878	0.000000
736.537720	0.000000
736.575562	0.000000
736.613403	0.000000
736.651306	0.000000
736.689148	0.000000
736.726990	0.000000
736.764893	0.000000
736.802734	0.000000
736.840576	0.000000
736.878418	0.000000
736.916321	0.000000
736.954102	0.000000
736.992004	0.000000
737.029846	0.000000
737.067688	0.000000
737.105530	0.000000
737.143372	0.000000
737.181213	0.000000
737.219116	0.000000
737.256897	0.000000
737.294739	0.000000
737.332642	0.000000
737.370422	0.000000
737.408325	0.000000
737.446167	0.000000
737.483948	0.000000
737.521790	0.000000
737.559692	0.000000
737.597473	0.000000
737.635315	0.000000
737.673157	0.000000
737.710999	0.000000
737.748840	0.000000
737.786621	0.000000
737.824463	0.000000
737.862305	0.000000
737.900085	0.000000
737.937927	0.000000
737.975769	0.000000
738.013550	0.000000
738.051392	0.000000
738.089233	0.000000
738.127014	0.000000
738.164856	0.000000
738.202698	0.000000
738.240479	0.000000
738.278320	0.000000
738.316162	0.000000
738.353943	0.000000
738.391785	0.000000
738.429565	0.000000
738.467407	0.000000
738.505188	0.000000
738.542969	0.000000
738.580811	0.000000
738.618652	0.000000
738.656372	0.000000
738.694214	0.000000
738.732056	0.000000
738.769836	0.000000
738.807617	0.000000
738.845459	0.000000
738.883240	0.000000
738.921021	0.000000
738.958862	0.000000
738.996582	0.000000
739.034424	0.000000
739.072205	0.000000
739.109985	0.000000
739.147827	0.000000
739.185547	0.000000
739.223389	0.000000
739.261169	0.000000
739.298889	0.000000
739.336731	0.000000
739.374512	0.000000
739.412292	0.000000
739.450073	0.000000
739.487854	0.000000
739.525635	0.000000
739.563416	0.000000
739.601135	0.000000
739.638977	0.000000
739.676758	0.000000
739.714478	0.000000
739.752258	0.000000
739.790100	0.000000
739.827820	0.000000
739.865601	0.000000
739.903381	0.000000
739.941101	0.000000
739.978882	195.600000
740.016724	191.200000
740.054443	196.300000
740.092224	189.900000
740.130005	187.100000
740.167725	188.800000
740.205505	186.900000
740.243225	198.700000
740.281006	193.100000
740.318787	186.200000
740.356506	197.800000
740.394287	198.400000
740.432068	188.500000
740.469727	184.400000
740.507507	194.700000
740.545288	193.100000
740.583008	194.200000
740.620789	193.200000
740.658569	183.700000
740.696228	192.300000
740.734009	197.900000
740.771790	180.400000
740.809509	196.900000
740.847229	186.200000
740.884949	189.500000
740.922729	185.600000
740.960449	191.200000
740.998169	187.300000
741.035950	187.900000
741.073669	192.400000
741.111389	193.600000
741.149170	201.600000
741.186890	203.800000
741.224609	195.600000
741.262329	193.800000
741.300110	201.100000
741.337769	187.100000
741.375549	186.200000
741.413208	194.600000
741.450989	187.700000
741.488708	191.900000
741.526367	189.200000
741.564148	197.100000
741.601868	196.000000
741.639526	194.000000
741.677307	192.800000
741.715027	195.800000
741.752686	188.300000
741.790466	200.500000
741.828186	196.300000
741.865845	189.000000
741.903564	183.200000
741.941345	193.700000
741.979004	187.100000
742.016724	195.300000
742.054382	193.600000
742.092102	198.200000
742.129822	184.000000
742.167480	190.800000
742.205200	191.200000
742.242920	193.600000
742.280640	196.400000
742.318359	190.100000
742.356079	190.400000
742.393738	197.400000
742.431396	190.900000
742.469116	196.600000
742.506775	182.600000
742.544495	194.600000
742.582214	196.600000
742.619873	191.300000
742.657593	198.500000
742.695251	196.300000
742.732971	191.700000
742.770630	192.700000
742.808289	192.100000
742.846008	191.300000
742.883728	196.600000
742.921326	192.000000
742.959045	188.100000
742.996765	191.700000
743.034424	191.600000
743.072083	187.800000
743.109802	192.500000
743.147400	185.000000
743.185120	193.500000
743.222839	190.700000
743.260437	197.700000
743.298157	194.000000
743.335754	184.800000
743.373474	188.400000
743.411133	184.300000
743.448792	192.300000
743.486450	192.400000
743.524170	184.500000
743.561768	194.100000
743.599487	198.400000
743.637146	203.300000
743.674744	190.200000
743.712463	190.600000
743.750122	192.400000
743.787720	195.300000
743.825439	188.100000
743.863037	189.100000
743.900696	191.600000
743.938416	218.900000
743.976013	191.400000
744.013672	200.700000
744.051331	197.300000
744.088928	202.500000
744.126587	197.500000
744.164307	193.800000
744.201904	190.000000
744.239563	195.900000
744.277222	194.500000
744.314819	190.700000
744.352478	200.000000
744.390137	194.000000
744.427734	194.400000
744.465393	190.200000
744.502991	187.800000
744.540649	195.100000
744.578308	192.400000
744.615906	186.700000
744.653564	181.600000
744.691223	194.700000
744.728821	184.400000
744.766418	190.900000
744.804077	194.900000
744.841675	189.200000
744.879333	186.100000
744.916992	191.300000
744.954529	190.900000
744.992187	198.400000
745.029785	190.400000
745.067444	188.100000
745.105042	193.900000
745.142639	194.600000
745.180298	203.600000
745.217896	190.400000
745.255493	192.400000
745.293152	194.900000
745.330750	197.800000
745.368347	200.400000
745.405945	196.800000
745.443604	191.200000
745.481140	197.600000
745.518799	189.900000
745.556396	197.400000
745.593994	196.400000
745.631592	192.900000
745.669189	187.800000
745.706787	194.500000
745.744385	187.900000
745.781982	196.100000
745.819580	189.200000
745.857178	190.700000
745.894775	191.900000
745.932373	192.500000
745.969971	192.000000
746.007568	184.100000
746.045166	201.600000
746.082764	198.600000
746.120300	195.000000
746.157898	195.200000
746.195557	191.700000
746.233093	186.100000
746.270691	196.600000
746.308228	194.200000
746.345825	197.100000
746.383423	195.600000
746.420959	187.500000
746.458557	189.500000
746.496155	190.600000
746.533691	190.800000
746.571289	187.200000
746.608887	191.900000
746.646423	193.100000
746.684021	192.200000
746.721619	189.400000
746.759155	192.900000
746.796753	186.600000
746.834351	184.600000
746.871826	188.700000
746.909424	199.400000
746.946960	194.400000
746.984558	190.700000
747.022156	191.000000
747.059631	198.600000
747.097229	195.200000
747.134827	189.500000
747.172363	201.100000
747.209900	192.500000
747.247498	188.200000
747.285034	199.500000
747.322571	200.400000
747.360168	191.000000
747.397644	185.300000
747.435242	195.200000
747.472778	199.900000
747.510315	188.600000
747.547913	191.600000
747.585388	198.300000
747.622925	191.900000
747.660522	183.300000
747.697998	189.900000
747.735596	190.400000
747.773132	189.300000
747.810669	192.400000
747.848206	197.200000
747.885742	186.500000
747.923279	187.000000
747.960815	194.200000
747.998352	194.100000
748.035889	196.400000
748.073425	197.900000
748.110901	189.300000
748.148437	188.600000
748.185974	192.600000
748.223511	202.500000
748.261047	194.400000
748.298584	193.500000
748.336060	192.000000
748.373596	195.400000
748.411133	211.100000
748.448608	187.800000
748.486145	197.200000
748.523682	197.600000
748.561218	199.400000
748.598755	192.400000
748.636292	196.800000
748.673706	189.500000
748.711243	200.200000
748.748718	194.100000
748.786255	194.000000
748.823792	191.600000
748.861267	187.900000
748.898804	193.800000
748.936340	195.800000
748.973816	191.000000
749.011292	199.200000
749.048828	194.300000
749.086304	196.600000
749.123840	202.400000
749.161316	188.800000
749.198792	201.600000
749.236328	198.300000
749.273743	193.100000
749.311279	192.700000
749.348816	194.400000
749.386230	193.000000
749.423767	179.900000
749.461304	195.300000
749.498718	192.800000
749.536255	200.400000
749.573730	205.600000
749.611206	199.600000
749.648682	191.800000
749.686218	194.100000
749.723633	196.200000
749.761169	190.600000
749.798645	187.700000
749.836060	191.800000
749.873596	189.600000
749.911011	192.900000
749.948547	199.400000
749.986023	191.600000
750.023437	190.600000
750.060913	184.000000
750.098450	186.500000
750.135864	191.400000
750.173340	194.000000
750.210815	197.600000
750.248291	187.200000
750.285767	191.600000
750.323242	200.300000
750.360657	194.200000
750.398132	187.600000
750.435608	196.600000
750.473022	189.700000
750.510498	188.200000
750.547974	189.600000
750.585449	190.200000
750.622925	182.400000
750.660339	201.000000
750.697815	193.700000
750.735291	191.300000
750.772644	193.000000
750.810120	193.000000
750.847595	194.700000
750.885010	187.900000
750.922485	202.700000
750.959961	191.000000
750.997375	201.300000
751.034851	196.300000
751.072266	199.100000
751.109680	185.300000
751.147156	199.700000
751.184570	196.100000
751.221985	195.100000
751.259460	183.800000
751.296875	192.700000
751.334290	192.000000
751.371765	198.300000
751.409180	195.100000
751.446594	199.300000
751.484070	194.500000
751.521423	196.000000
751.558899	196.000000
751.596375	199.600000
751.633728	199.200000
751.671204	205.600000
751.708618	187.700000
751.746033	194.900000
751.783447	186.100000
751.820801	189.500000
751.858276	196.500000
751.895691	191.200000
751.933105	190.000000
751.970520	187.800000
752.007935	190.900000
752.045349	196.700000
752.082764	193.300000
752.120178	190.800000
752.157532	189.100000
752.195007	190.500000
752.232422	197.800000
752.269775	197.000000
752.307190	196.300000
752.344543	188.500000
752.382019	193.600000
752.419434	191.200000
752.456787	195.700000
752.494202	196.900000
752.531616	195.500000
752.568970	197.000000
752.606384	194.800000
752.643799	193.800000
752.681152	201.900000
752.718567	195.900000
752.755981	185.700000
752.793335	193.900000
752.830750	185.800000
752.868164	199.800000
752.905518	189.500000
752.942932	196.600000
752.980225	189.200000
753.017639	198.600000
753.055054	192.400000
753.092407	195.200000
753.129822	199.800000
753.167175	202.000000
753.204529	193.100000
753.241943	190.300000
753.279358	186.400000
753.316650	196.300000
753.354065	196.500000
753.391479	197.400000
753.428772	203.500000
753.466187	197.100000
753.503479	187.700000
753.540894	191.800000
753.578308	186.800000
753.615601	187.600000
753.653015	192.900000
753.690369	192.300000
753.727722	188.400000
753.765076	187.300000
753.802490	187.200000
753.839783	184.400000
753.877136	189.500000
753.914551	208.600000
753.951843	187.600000
753.989258	197.500000
754.026611	192.500000
754.063904	194.900000
754.101257	188.100000
754.138611	185.600000
754.175964	192.600000
754.213318	204.200000
754.250610	186.400000
754.288025	191.700000
754.325378	185.100000
754.362671	199.500000
754.400024	189.400000
754.437378	202.100000
754.474670	201.800000
754.512085	189.300000
754.549438	192.800000
754.586731	191.000000
754.624084	191.400000
754.661438	189.300000
754.698730	199.900000
754.736084	190.900000
754.773376	190.600000
754.810730	195.800000
754.848083	190.800000
754.885315	198.700000
754.922668	185.700000
754.960022	189.300000
754.997314	198.200000
755.034668	194.700000
755.072021	194.500000
755.109253	191.500000
755.146606	202.300000
755.183960	194.100000
755.221252	204.000000
755.258545	200.200000
755.295898	199.900000
755.333191	202.500000
755.370544	198.500000
755.407776	195.100000
755.445129	197.000000
755.482422	200.400000
755.519714	193.000000
755.557068	188.500000
755.594360	188.200000
755.631653	200.300000
755.668945	205.900000
755.706299	197.700000
755.743530	207.700000
755.780884	203.600000
755.818176	203.500000
755.855408	200.600000
755.892761	198.100000
755.930054	196.900000
755.967346	200.300000
756.004639	200.000000
756.041870	199.200000
756.079224	202.300000
756.116516	195.700000
756.153748	202.500000
756.191040	206.700000
756.228394	201.200000
756.265625	194.200000
756.302917	198.400000
756.340210	196.600000
756.377441	205.200000
756.414795	205.100000
756.452087	199.100000
756.489319	192.800000
756.526611	202.300000
756.563843	202.600000
756.601135	209.900000
756.638428	209.200000
756.675659	199.200000
756.712952	205.300000
756.750244	203.900000
756.787476	202.300000
756.824768	208.100000
756.862061	199.200000
756.899292	248.100000
756.936584	205.100000
756.973816	213.000000
757.011047	214.300000
757.048340	203.200000
757.085632	203.400000
757.122864	218.800000
757.160156	200.000000
757.197327	205.500000
757.234619	207.600000
757.271912	203.700000
757.309082	207.700000
757.346375	201.300000
757.383667	208.200000
757.420837	205.300000
757.458130	204.900000
757.495422	204.700000
757.532593	206.100000
757.569885	198.500000
757.607117	199.800000
757.644348	206.200000
757.681580	217.500000
757.718811	193.800000
757.756042	204.700000
757.793335	203.100000
757.830505	208.600000
757.867798	203.100000
757.905029	202.800000
757.942200	208.200000
757.979492	202.000000
758.016724	205.100000
758.053894	203.600000
758.091187	225.900000
758.128418	207.000000
758.165588	205.900000
758.202820	217.800000
758.240112	208.800000
758.277283	218.200000
758.314514	209.400000
758.351685	206.000000
758.388916	216.800000
758.426147	215.400000
758.463379	218.100000
758.500610	212.500000
758.537842	209.700000
758.575012	215.900000
758.612244	205.700000
758.649475	222.100000
758.686646	202.800000
758.723877	217.000000
758.761108	218.700000
758.798279	209.800000
758.835510	211.700000
758.872742	216.900000
758.909851	213.900000
758.947083	214.900000
758.984253	213.400000
759.021484	217.100000
759.058716	216.300000
759.095886	217.100000
759.133057	211.200000
759.170288	216.800000
759.207458	210.000000
759.244690	226.000000
759.281860	223.400000
759.319031	215.400000
759.356262	211.200000
759.393433	212.200000
759.430603	212.100000
759.467773	213.500000
759.505005	220.300000
759.542175	221.500000
759.579346	212.900000
759.616516	216.200000
759.653687	217.300000
759.690918	211.000000
759.728027	215.900000
759.765259	218.000000
759.802429	218.800000
759.839539	218.400000
759.876770	222.100000
759.913940	225.900000
759.951111	217.500000
759.988281	217.500000
760.025452	214.500000
760.062561	213.600000
760.099792	226.100000
760.136963	221.000000
760.174072	216.300000
760.211243	212.600000
760.248413	213.300000
760.285583	214.100000
760.322754	229.300000
760.359863	226.100000
760.397034	226.100000
760.434204	218.000000
760.471375	220.600000
760.508545	218.400000
760.545715	218.000000
760.582825	215.400000
760.619995	224.800000
760.657166	212.800000
760.694275	226.600000
760.731445	222.500000
760.768555	222.800000
760.805664	224.500000
760.842834	224.800000
760.879944	225.200000
760.917114	226.000000
760.954285	221.200000
760.991394	217.100000
761.028564	228.000000
761.065674	228.100000
761.102783	219.900000
761.139954	230.500000
761.177124	227.500000
761.214172	232.400000
761.251343	224.000000
761.288452	227.300000
761.325562	229.700000
761.362732	224.100000
761.399841	226.300000
761.436951	229.900000
761.474121	224.900000
761.511169	230.800000
761.548340	235.500000
761.585449	233.400000
761.622559	235.200000
761.659668	233.700000
761.696838	238.800000
761.733887	236.600000
761.771057	231.900000
761.808167	233.600000
761.845276	237.300000
761.882385	246.000000
761.919434	236.000000
761.956604	255.800000
761.993713	232.000000
762.030762	243.400000
762.067871	238.100000
762.105042	237.500000
762.142090	244.400000
762.179199	240.500000
762.216309	244.100000
762.253418	253.200000
762.290527	249.200000
762.327637	245.900000
762.364685	236.800000
762.401794	245.000000
762.438904	244.700000
762.475952	238.900000
762.513062	237.300000
762.550110	239.200000
762.587219	255.900000
762.624329	253.300000
762.661377	247.100000
762.698486	246.200000
762.735596	247.700000
762.772644	240.600000
762.809753	239.300000
762.846863	246.800000
762.883911	252.200000
762.921021	250.700000
762.958069	249.800000
762.995117	256.500000
763.032227	258.900000
763.069336	249.000000
763.106323	246.100000
763.143433	243.700000
763.180481	253.600000
763.217590	252.200000
763.254639	250.900000
763.291687	250.700000
763.328735	261.600000
763.365845	253.200000
763.402893	253.700000
763.439941	257.200000
763.477051	259.900000
763.514038	259.700000
763.551147	253.600000
763.588196	255.800000
763.625244	258.300000
763.662292	262.900000
763.699402	267.200000
763.736389	263.200000
763.773499	271.900000
763.810486	265.600000
763.847534	261.700000
763.884644	265.900000
763.921631	262.500000
763.958679	273.200000
763.995728	263.400000
764.032776	272.000000
764.069824	258.300000
764.106873	267.800000
764.143860	273.900000
764.180969	266.800000
764.218018	273.800000
764.255005	266.700000
764.292053	267.900000
764.329102	281.600000
764.366089	280.100000
764.403137	278.800000
764.440125	266.200000
764.477173	271.700000
764.514221	272.200000
764.551208	273.400000
764.588257	265.400000
764.625305	280.700000
764.662292	283.700000
764.699341	290.100000
764.736389	279.700000
764.773376	296.000000
764.810425	282.600000
764.847473	291.600000
764.884399	283.900000
764.921448	293.400000
764.958435	291.000000
764.995483	282.700000
765.032532	298.600000
765.069458	283.700000
765.106506	283.900000
765.143555	284.700000
765.180481	288.000000
765.217529	297.000000
765.254578	280.800000
765.291504	291.700000
765.328552	286.100000
765.365540	285.200000
765.402527	300.900000
765.439575	286.100000
765.476501	281.700000
765.513550	283.800000
765.550537	287.700000
765.587463	295.200000
765.624512	285.100000
765.661499	281.100000
765.698486	297.600000
765.735474	287.700000
765.772461	291.500000
765.809448	299.200000
765.846436	296.700000
765.883423	302.200000
765.920410	295.100000
765.957397	291.900000
765.994385	295.800000
766.031311	304.100000
766.068359	298.200000
766.105286	300.500000
766.142273	307.000000
766.179260	300.600000
766.216187	297.500000
766.253174	294.200000
766.290161	304.200000
766.327148	305.600000
766.364136	306.100000
766.401123	320.400000
766.438049	299.700000
766.475037	315.300000
766.512024	310.900000
766.548950	324.300000
766.585937	320.200000
766.622864	315.200000
766.659790	316.000000
766.696777	302.600000
766.733704	323.600000
766.770691	313.800000
766.807678	327.600000
766.844604	320.400000
766.881531	321.500000
766.918518	329.700000
766.955444	333.200000
766.992432	322.700000
767.029358	328.800000
767.066284	330.300000
767.103271	326.200000
767.140198	358.500000
767.177124	347.500000
767.214050	337.100000
767.251038	339.400000
767.287964	334.600000
767.324890	333.700000
767.361816	338.500000
767.398743	345.100000
767.435730	339.200000
767.472595	344.900000
767.509583	349.800000
767.546509	339.300000
767.583374	345.000000
767.620361	339.700000
767.657288	347.000000
767.694214	347.600000
767.731140	345.600000
767.768066	345.700000
767.804993	354.600000
767.841919	343.400000
767.878845	353.100000
767.915710	361.600000
767.952698	355.600000
767.989563	356.000000
768.026489	357.200000
768.063416	350.700000
768.100281	352.300000
768.137207	366.800000
768.174133	366.000000
768.211060	366.000000
768.247986	366.300000
768.284912	364.200000
768.321777	368.500000
768.358704	363.200000
768.395630	370.900000
768.432495	361.700000
768.469421	370.300000
768.506348	375.400000
768.543152	386.000000
768.580078	378.900000
768.616943	382.600000
768.653870	380.600000
768.690796	381.400000
768.727661	379.700000
768.764587	382.300000
768.801453	378.000000
768.838318	393.000000
768.875244	386.200000
768.912109	394.700000
768.948975	385.800000
768.985901	389.900000
769.022766	389.300000
769.059631	395.000000
769.096558	393.400000
769.133362	392.500000
769.170288	392.000000
769.207214	394.700000
769.244019	400.800000
769.280945	400.300000
769.317810	407.600000
769.354675	403.400000
769.391541	412.500000
769.428406	408.600000
769.465271	419.200000
769.502136	408.500000
769.539062	412.000000
769.575867	410.500000
769.612732	415.200000
769.649597	417.500000
769.686462	422.900000
769.723328	419.400000
769.760193	415.400000
769.797058	418.500000
769.833923	431.800000
769.870728	423.700000
769.907593	431.300000
769.944519	428.500000
769.981323	433.700000
770.018188	433.000000
770.055054	429.600000
770.091858	430.100000
770.128723	443.600000
770.165588	446.200000
770.202393	433.200000
770.239258	444.000000
770.276062	438.600000
770.312927	440.400000
770.349792	447.500000
770.386597	444.100000
770.423462	453.800000
770.460327	461.300000
770.497131	444.800000
770.533997	437.300000
770.570862	457.700000
770.607605	457.100000
770.644470	450.300000
770.681335	451.700000
770.718140	453.100000
770.754944	443.900000
770.791809	446.700000
770.828613	448.000000
770.865479	451.700000
770.902222	463.500000
770.939087	453.500000
770.975952	446.300000
771.012695	450.800000
771.049561	468.600000
771.086365	454.600000
771.123169	452.600000
771.159973	457.800000
771.196838	457.200000
771.233582	457.900000
771.270447	460.000000
771.307251	463.900000
771.344055	462.900000
771.380859	464.700000
771.417664	460.900000
771.454468	468.000000
771.491272	468.200000
771.528076	470.500000
771.564880	466.100000
771.601685	478.000000
771.638428	468.200000
771.675293	472.300000
771.712097	465.200000
771.748840	482.300000
771.785645	478.000000
771.822449	479.000000
771.859253	480.000000
771.896057	477.500000
771.932861	492.400000
771.969604	479.100000
772.006409	475.800000
772.043213	491.400000
772.079956	486.700000
772.116760	478.600000
772.153503	486.000000
772.190308	493.900000
772.227112	488.100000
772.263855	482.900000
772.300659	491.300000
772.337463	499.100000
772.374207	490.300000
772.411011	486.700000
772.447754	492.300000
772.484497	508.000000
772.521301	505.900000
772.558105	503.200000
772.594849	504.300000
772.631592	509.200000
772.668396	511.700000
772.705139	517.400000
772.741882	517.000000
772.778625	532.100000
772.815430	531.500000
772.852173	526.400000
772.888916	539.100000
772.925720	537.500000
772.962463	546.300000
772.999207	543.100000
773.035950	546.300000
773.072754	548.800000
773.109436	543.500000
773.146240	544.800000
773.182922	547.100000
773.219727	557.600000
773.256470	551.100000
773.293152	539.000000
773.329956	546.600000
773.366699	554.900000
773.403381	547.600000
773.440186	561.000000
773.476929	562.600000
773.513611	555.400000
773.550354	557.900000
773.587158	556.100000
773.623840	553.700000
773.660583	564.900000
773.697327	580.300000
773.734009	568.400000
773.770813	566.700000
773.807495	566.600000
773.844238	566.900000
773.880981	588.500000
773.917664	588.200000
773.954407	592.400000
773.991150	582.700000
774.027832	591.000000
774.064575	583.500000
774.101318	592.500000
774.138000	601.500000
774.174744	595.500000
774.211487	597.100000
774.248108	588.700000
774.284851	587.600000
774.321594	598.400000
774.358276	606.100000
774.395020	617.100000
774.431702	614.300000
774.468384	604.200000
774.505127	603.600000
774.541809	617.800000
774.578491	631.600000
774.615234	630.700000
774.651917	623.100000
774.688599	628.600000
774.725342	635.300000
774.762024	636.900000
774.798706	644.900000
774.835449	640.500000
774.872070	648.000000
774.908813	641.400000
774.945496	639.900000
774.982178	640.900000
775.018860	651.900000
775.055542	653.700000
775.092224	658.600000
775.128967	658.300000
775.165588	655.500000
775.202271	646.800000
775.239014	663.300000
775.275635	665.500000
775.312317	662.500000
775.349060	664.500000
775.385681	662.600000
775.422363	657.500000
775.459045	670.000000
775.495667	668.300000
775.532410	674.000000
775.569092	670.500000
775.605713	673.700000
775.642395	672.300000
775.679016	682.300000
775.715698	686.400000
775.752380	689.900000
775.789001	679.600000
775.825684	681.400000
775.862366	682.600000
775.898987	693.200000
775.935669	685.100000
775.972351	708.300000
776.008972	704.200000
776.045654	705.900000
776.082336	696.900000
776.118958	698.600000
776.155640	701.000000
776.192322	711.600000
776.228882	716.900000
776.265564	714.900000
776.302185	705.000000
776.338867	710.200000
776.375488	700.000000
776.412109	715.800000
776.448792	721.300000
776.485413	726.700000
776.522034	714.700000
776.558716	707.500000
776.595337	708.400000
776.631958	716.800000
776.668579	717.800000
776.705261	718.300000
776.741882	715.200000
776.778503	716.000000
776.815186	710.700000
776.851746	717.900000
776.888367	723.700000
776.924988	726.100000
776.961609	718.200000
776.998291	718.500000
777.034851	709.100000
777.071472	726.000000
777.108154	723.000000
777.144714	732.100000
777.181335	733.600000
777.218018	728.000000
777.254578	731.600000
777.291199	728.900000
777.327759	738.200000
777.364380	743.800000
777.401062	752.600000
777.437622	762.800000
777.474243	750.500000
777.510864	759.800000
777.547424	752.100000
777.584045	757.700000
777.620667	763.200000
777.657227	767.600000
777.693848	771.000000
777.730469	782.200000
777.767029	776.800000
777.803650	777.100000
777.840271	771.300000
777.876831	771.200000
777.913452	780.900000
777.950012	765.000000
777.986633	760.400000
778.023193	762.500000
778.059753	760.300000
778.096375	764.300000
778.132996	780.300000
778.169556	767.700000
778.206116	766.800000
778.242737	768.500000
778.279297	780.000000
778.315857	773.400000
778.352478	782.500000
778.389038	784.500000
778.425598	787.800000
778.462219	801.800000
778.498718	804.100000
778.535339	814.900000
778.571838	810.200000
778.608459	822.100000
778.645020	810.700000
778.681580	823.300000
778.718140	829.300000
778.754761	821.900000
778.791260	829.500000
778.827881	844.100000
778.864441	830.800000
778.900940	838.700000
778.937561	846.100000
778.974121	839.900000
779.010620	823.300000
779.047241	833.700000
779.083801	844.700000
779.120300	845.300000
779.156860	849.000000
779.193359	852.100000
779.229980	849.500000
779.266541	857.000000
779.303040	864.100000
779.339600	850.900000
779.376160	846.000000
779.412659	861.500000
779.449219	853.800000
779.485779	869.800000
779.522278	866.300000
779.558838	869.400000
779.595398	872.400000
779.631897	876.200000
779.668457	867.300000
779.705017	876.100000
779.741516	865.500000
779.778076	861.100000
779.814575	869.800000
779.851074	882.400000
779.887634	873.600000
779.924133	880.400000
779.960693	870.900000
779.997253	885.400000
780.033691	887.300000
780.070251	890.300000
780.106812	903.900000
780.143250	903.300000
780.179810	893.900000
780.216370	901.200000
780.252808	913.300000
780.289368	922.500000
780.325867	922.400000
780.362366	921.200000
780.398865	934.800000
780.435364	928.400000
780.471863	943.900000
780.508423	939.800000
780.544861	956.100000
780.581421	960.300000
780.617920	949.500000
780.654419	945.700000
780.690918	954.300000
780.727417	960.800000
780.763916	954.700000
780.800415	964.900000
780.836914	948.300000
780.873352	953.400000
780.909912	949.600000
780.946411	952.700000
780.982849	958.800000
781.019348	979.500000
781.055786	972.800000
781.092346	966.700000
781.128845	976.900000
781.165283	983.900000
781.201782	988.800000
781.238281	999.700000
781.274719	997.800000
781.311218	989.100000
781.347717	999.500000
781.384155	989.500000
781.420654	991.200000
781.457092	1004.400000
781.493591	997.600000
781.530090	985.500000
781.566528	995.400000
781.602966	998.700000
781.639465	1003.900000
781.675903	996.000000
781.712402	1010.600000
781.748901	1017.100000
781.785278	1006.400000
781.821777	1016.800000
781.858276	1007.400000
781.894714	1022.000000
781.931152	1015.200000
781.967651	1019.600000
782.004089	1010.700000
782.040527	1019.700000
782.076965	1015.600000
782.113403	1019.800000
782.149902	1025.300000
782.186340	1018.700000
782.222778	1033.400000
782.259277	1017.700000
782.295654	1011.200000
782.332092	1025.800000
782.368591	1017.600000
782.404968	1008.500000
782.441467	1014.900000
782.477905	1011.200000
782.514282	1007.400000
782.550781	1037.000000
782.587219	1032.300000
782.623596	1037.500000
782.660095	1042.300000
782.696472	1041.000000
782.732910	1042.100000
782.769348	1047.600000
782.805786	1062.100000
782.842224	1058.800000
782.878662	1052.200000
782.915039	1060.800000
782.951477	1056.400000
782.987915	1046.100000
783.024292	1059.600000
783.060730	1054.600000
783.097168	1039.900000
783.133545	1035.900000
783.169983	1026.100000
783.206421	1016.800000
783.242798	1026.900000
783.279236	1011.400000
783.315613	1005.700000
783.352051	1001.000000
783.388489	987.400000
783.424866	975.700000
783.461304	981.200000
783.497681	986.600000
783.534058	965.000000
783.570496	944.300000
783.606934	903.500000
783.643250	870.800000
783.679687	830.700000
783.716125	758.800000
783.752441	713.300000
783.788879	671.600000
783.825317	629.600000
783.861633	599.100000
783.898071	582.800000
783.934448	592.600000
783.970825	619.700000
784.007263	652.300000
784.043579	703.200000
784.080017	758.300000
784.116394	802.600000
784.152710	854.900000
784.189148	910.900000
784.225525	961.400000
784.261902	983.200000
784.298279	1012.700000
784.334656	1035.200000
784.371033	1045.400000
784.407410	1063.000000
784.443787	1054.700000
784.480164	1044.400000
784.516541	1033.000000
784.552856	1043.100000
784.589233	1028.600000
784.625610	1031.200000
784.661987	1063.800000
784.698364	1048.300000
784.734741	1039.100000
784.771057	1040.900000
784.807434	1049.200000
784.843811	1070.800000
784.880127	1073.000000
784.916504	1098.600000
784.952881	1104.200000
784.989197	1095.200000
785.025574	1094.200000
785.061951	1107.800000
785.098267	1136.100000
785.134644	1137.700000
785.170959	1132.100000
785.207275	1139.800000
785.243652	1133.200000
785.279968	1125.300000
785.316345	1132.300000
785.352722	1128.900000
785.388977	1137.600000
785.425354	1114.300000
785.461731	1093.400000
785.498047	1086.300000
785.534363	1086.400000
785.570679	1084.100000
785.606995	1095.400000
785.643372	1092.800000
785.679687	1078.400000
785.716003	1066.800000
785.752380	1062.300000
785.788635	1070.200000
785.825012	1097.000000
785.861328	1103.600000
785.897644	1092.600000
785.933960	1107.400000
785.970337	1111.500000
786.006592	1122.800000
786.042908	1137.400000
786.079285	1148.600000
786.115540	1159.700000
786.151855	1165.000000
786.188171	1161.100000
786.224487	1152.200000
786.260803	1155.400000
786.297119	1172.100000
786.333435	1177.200000
786.369751	1167.200000
786.406006	1172.000000
786.442322	1152.400000
786.478638	1147.100000
786.514954	1166.100000
786.551270	1160.800000
786.587585	1177.200000
786.623840	1162.200000
786.660156	1153.700000
786.696472	1139.000000
786.732727	1126.400000
786.769043	1133.700000
786.805298	1131.200000
786.841614	1137.200000
786.877930	1133.000000
786.914124	1116.900000
786.950439	1134.300000
786.986755	1143.400000
787.023010	1160.300000
787.059326	1166.500000
787.095642	1158.800000
787.131836	1177.300000
787.168152	1164.600000
787.204468	1175.200000
787.240723	1203.400000
787.276978	1221.200000
787.313293	1227.100000
787.349548	1217.300000
787.385803	1225.800000
787.422058	1209.800000
787.458313	1213.700000
787.494629	1213.800000
787.530823	1214.200000
787.567139	1201.800000
787.603455	1192.500000
787.639648	1173.400000
787.675903	1173.900000
787.712219	1172.800000
787.748413	1171.400000
787.784729	1182.600000
787.820984	1174.500000
787.857178	1162.300000
787.893494	1145.600000
787.929749	1141.300000
787.965942	1155.700000
788.002258	1170.100000
788.038452	1175.500000
788.074707	1164.400000
788.110962	1166.100000
788.147217	1158.500000
788.183472	1165.900000
788.219727	1183.400000
788.255920	1199.600000
788.292175	1203.100000
788.328430	1198.000000
788.364624	1178.600000
788.400879	1173.700000
788.437134	1184.200000
788.473328	1181.900000
788.509583	1180.500000
788.545837	1168.900000
788.582031	1166.500000
788.618286	1150.900000
788.654480	1140.900000
788.690735	1159.300000
788.726990	1181.500000
788.763184	1175.500000
788.799377	1189.200000
788.835632	1170.100000
788.871826	1191.500000
788.908081	1190.700000
788.944336	1185.400000
788.980469	1207.600000
789.016724	1205.200000
789.052979	1205.900000
789.089111	1182.600000
789.125366	1189.200000
789.161621	1165.700000
789.197754	1180.600000
789.234009	1180.200000
789.270142	1159.700000
789.306396	1146.500000
789.342590	1134.400000
789.378784	1110.400000
789.414978	1108.500000
789.451233	1130.800000
789.487366	1133.500000
789.523621	1141.100000
789.559814	1127.800000
789.595947	1117.700000
789.632202	1122.900000
789.668335	1137.300000
789.704529	1158.400000
789.740784	1180.800000
789.776917	1180.600000
789.813110	1165.700000
789.849304	1175.100000
789.885498	1178.100000
789.921692	1193.000000
789.957886	1210.100000
789.994019	1210.900000
790.030212	1198.000000
790.066406	1193.600000
790.102539	1195.000000
790.138733	1203.300000
790.174927	1196.600000
790.211060	1207.900000
790.247253	1196.600000
790.283386	1183.100000
790.319580	1168.900000
790.355774	1154.500000
790.391907	1152.900000
790.428101	1186.800000
790.464294	1189.900000
790.500427	1191.000000
790.536621	1166.200000
790.572754	1152.100000
790.608887	1152.500000
790.645081	1163.900000
790.681274	1181.000000
790.717346	1178.100000
790.753540	1142.100000
790.789734	1075.300000
790.825867	1015.200000
790.862000	1014.100000
790.898132	1052.400000
790.934265	1105.700000
790.970459	1158.800000
791.006592	1174.300000
791.042725	1181.600000
791.078918	1178.500000
791.114990	1185.500000
791.151184	1197.900000
791.187317	1222.900000
791.223389	1216.400000
791.259583	1191.200000
791.295715	1201.000000
791.331848	1204.300000
791.367981	1221.400000
791.404114	1230.100000
791.440247	1223.800000
791.476379	1220.000000
791.512451	1200.800000
791.548584	1196.500000
791.584778	1198.500000
791.620850	1223.600000
791.656982	1236.300000
791.693115	1221.300000
791.729187	1211.300000
791.765381	1204.800000
791.801514	1201.900000
791.837585	1205.000000
791.873718	1213.500000
791.909851	1222.300000
791.945923	1230.300000
791.982056	1192.500000
792.018188	1192.700000
792.054260	1202.400000
792.090393	1199.100000
792.126465	1194.500000
792.162598	1198.700000
792.198669	1183.400000
792.234741	1182.800000
792.270874	1175.400000
792.307007	1161.000000
792.343079	1173.900000
792.379150	1184.200000
792.415283	1174.300000
792.451355	1172.100000
792.487488	1151.000000
792.523560	1146.900000
792.559631	1149.000000
792.595764	1145.500000
792.631836	1161.500000
792.667908	1171.700000
792.703979	1146.900000
792.740051	1140.500000
792.776184	1149.100000
792.812256	1150.900000
792.848328	1167.200000
792.884399	1171.900000
792.920471	1164.900000
792.956543	1153.800000
792.992615	1149.900000
793.028748	1143.400000
793.064758	1155.000000
793.100830	1173.400000
793.136963	1190.100000
793.172974	1179.500000
793.209045	1172.000000
793.245178	1189.800000
793.281189	1169.700000
793.317261	1175.600000
793.353271	1175.000000
793.389404	1179.600000
793.425476	1174.300000
793.461487	1157.200000
793.497559	1153.900000
793.533630	1158.600000
793.569641	1169.300000
793.605713	1171.000000
793.641785	1170.700000
793.677795	1175.500000
793.713867	1161.500000
793.749878	1169.100000
793.785950	1183.500000
793.822021	1191.100000
793.858032	1171.700000
793.894104	1191.400000
793.930176	1170.200000
793.966187	1172.500000
794.002258	1160.800000
794.038269	1167.600000
794.074280	1163.500000
794.110352	1190.700000
794.146423	1160.600000
794.182373	1153.300000
794.218445	1147.500000
794.254517	1137.400000
794.290466	1120.500000
794.326538	1127.700000
794.362549	1131.300000
794.398560	1138.900000
794.434631	1136.200000
794.470581	1109.300000
794.506653	1100.300000
794.542664	1101.900000
794.578674	1099.400000
794.614685	1098.800000
794.650757	1094.000000
794.686707	1087.600000
794.722778	1075.000000
794.758789	1087.000000
794.794739	1098.500000
794.830811	1117.800000
794.866821	1136.400000
794.902771	1131.600000
794.938843	1118.300000
794.974792	1113.500000
795.010803	1109.100000
795.046814	1113.900000
795.082825	1100.000000
795.118835	1115.300000
795.154846	1093.800000
795.190796	1097.900000
795.226807	1074.000000
795.262817	1089.000000
795.298767	1086.800000
795.334778	1083.900000
795.370850	1072.200000
795.406799	1074.000000
795.442810	1049.300000
795.478821	1046.900000
795.514709	1055.100000
795.550720	1071.200000
795.586670	1056.300000
795.622681	1053.000000
795.658691	1053.300000
795.694641	1045.600000
795.730652	1033.400000
795.766663	1045.700000
795.802551	1048.000000
795.838562	1069.800000
795.874573	1050.800000
795.910522	1046.100000
795.946472	1030.300000
795.982483	1044.100000
796.018433	1052.400000
796.054382	1056.000000
796.090393	1039.500000
796.126282	1028.600000
796.162292	1018.100000
796.198242	1011.400000
796.234192	1017.900000
796.270203	1015.100000
796.306091	1020.400000
796.342041	1034.500000
796.378052	1024.800000
796.413940	1016.000000
796.449951	1026.900000
796.485901	1017.900000
796.521790	1023.500000
796.557800	1034.800000
796.593689	1034.000000
796.629639	1015.100000
796.665649	1014.500000
796.701599	1014.300000
796.737488	1009.100000
796.773437	1016.000000
796.809387	1012.800000
796.845337	1012.200000
796.881287	999.300000
796.917175	986.200000
796.953125	985.900000
796.989075	1002.100000
797.024963	1009.300000
797.060913	1003.700000
797.096863	1000.000000
797.132751	991.600000
797.168701	973.700000
797.204590	979.700000
797.240540	984.000000
797.276489	990.800000
797.312439	995.000000
797.348328	992.400000
797.384277	978.100000
797.420166	967.200000
797.456055	972.000000
797.492004	970.600000
797.527893	973.500000
797.563843	979.000000
797.599731	964.400000
797.635620	950.000000
797.671570	957.600000
797.707520	956.600000
797.743347	961.600000
797.779297	973.000000
797.815125	962.100000
797.851074	954.300000
797.887024	949.200000
797.922913	940.700000
797.958801	953.300000
797.994690	953.500000
798.030579	956.400000
798.066467	957.300000
798.102356	940.100000
798.138245	933.400000
798.174133	931.100000
798.210083	934.100000
798.245911	943.400000
798.281799	949.800000
798.317749	940.300000
798.353577	928.300000
798.389465	927.300000
798.425293	930.000000
798.461243	922.100000
798.497131	930.800000
798.532959	927.600000
798.568848	930.600000
798.604736	918.300000
798.640564	907.300000
798.676453	906.300000
798.712402	918.600000
798.748230	921.500000
798.784119	917.200000
798.820007	916.800000
798.855835	910.900000
798.891724	900.500000
798.927551	902.200000
798.963379	913.000000
798.999268	905.200000
799.035095	900.900000
799.070984	900.100000
799.106873	886.900000
799.142700	894.800000
799.178528	885.300000
799.214417	887.800000
799.250244	900.500000
799.286133	888.600000
799.321960	888.400000
799.357788	883.100000
799.393677	885.500000
799.429504	883.400000
799.465332	887.800000
799.501221	894.100000
799.537048	887.400000
799.572876	880.300000
799.608704	878.600000
799.644531	885.400000
799.680359	887.500000
799.716248	892.100000
799.752014	894.100000
799.787903	877.100000
799.823730	878.600000
799.859558	870.600000
799.895386	870.200000
799.931213	873.800000
799.967041	861.300000
800.002869	863.500000
800.038696	879.200000
800.074463	849.200000
800.110352	855.600000
800.146179	848.400000
800.181946	852.500000
800.217773	858.200000
800.253540	854.600000
800.289429	846.600000
800.325256	840.800000
800.361023	832.000000
800.396851	832.700000
800.432678	837.900000
800.468445	834.800000
800.504272	823.900000
800.540100	811.100000
800.575867	812.300000
800.611694	814.600000
800.647461	811.400000
800.683289	812.300000
800.719116	813.200000
800.754883	804.300000
800.790649	787.100000
800.826477	785.000000
800.862244	806.900000
800.898071	790.400000
800.933838	787.600000
800.969604	782.300000
801.005432	779.800000
801.041199	782.900000
801.076965	778.500000
801.112793	767.200000
801.148560	757.700000
801.184326	760.000000
801.220154	761.800000
801.255859	748.100000
801.291687	748.100000
801.327454	744.100000
801.363281	745.900000
801.398987	739.700000
801.434814	743.300000
801.470520	749.800000
801.506287	738.200000
801.542114	730.900000
801.577820	738.600000
801.613647	736.800000
801.649414	729.100000
801.685120	727.400000
801.720886	735.700000
801.756714	720.400000
801.792419	713.000000
801.828186	707.800000
801.863892	717.500000
801.899719	703.500000
801.935486	704.500000
801.971252	715.600000
802.006958	710.000000
802.042725	702.000000
802.078430	702.900000
802.114197	696.000000
802.149963	710.200000
802.185669	697.300000
802.221436	692.300000
802.257202	697.100000
802.292908	695.100000
802.328674	698.200000
802.364441	697.200000
802.400146	691.400000
802.435913	685.900000
802.471558	682.300000
802.507324	676.800000
802.543091	671.600000
802.578796	685.400000
802.614502	690.500000
802.650269	684.400000
802.685974	670.300000
802.721741	672.000000
802.757446	675.700000
802.793152	670.100000
802.828918	682.100000
802.864624	671.900000
802.900330	671.600000
802.936035	668.500000
802.971802	666.000000
803.007446	662.300000
803.043213	653.700000
803.078857	662.100000
803.114624	648.500000
803.150330	655.700000
803.185974	645.500000
803.221741	641.100000
803.257446	648.600000
803.293152	651.900000
803.328857	642.900000
803.364563	639.400000
803.400208	630.500000
803.435974	641.600000
803.471680	633.700000
803.507324	631.500000
803.543030	634.100000
803.578735	639.100000
803.614441	625.500000
803.650146	631.700000
803.685791	619.400000
803.721497	623.100000
803.757202	610.900000
803.792847	622.000000
803.828552	611.300000
803.864258	610.900000
803.899902	608.100000
803.935608	596.400000
803.971313	600.600000
804.006958	601.700000
804.042664	598.900000
804.078308	607.400000
804.113953	597.000000
804.149658	601.700000
804.185364	590.500000
804.221008	602.500000
804.256714	590.400000
804.292297	588.900000
804.328003	585.300000
804.363708	577.800000
804.399292	579.900000
804.434998	581.800000
804.470703	567.900000
804.506287	584.800000
804.541992	575.000000
804.577637	581.700000
804.613281	567.700000
804.648926	564.000000
804.684570	568.000000
804.720215	565.600000
804.755920	565.400000
804.791565	559.900000
804.827209	564.000000
804.862854	559.600000
804.898437	551.400000
804.934143	556.800000
804.969788	553.600000
805.005371	556.600000
805.041077	557.200000
805.076721	561.000000
805.112305	545.400000
805.147949	547.100000
805.183655	543.000000
805.219238	548.100000
805.254883	547.100000
805.290466	551.200000
805.326111	542.200000
805.361755	532.600000
805.397400	541.000000
805.432983	542.600000
805.468628	540.600000
805.504211	550.000000
805.539856	543.800000
805.575500	547.000000
805.611084	540.000000
805.646729	521.700000
805.682373	527.300000
805.717957	540.500000
805.753601	541.300000
805.789246	523.400000
805.824768	538.400000
805.860413	538.700000
805.895996	523.700000
805.931641	522.400000
805.967224	533.200000
806.002869	525.100000
806.038452	536.300000
806.074036	527.600000
806.109619	519.900000
806.145264	515.500000
806.180847	514.800000
806.216431	510.200000
806.252014	518.000000
806.287659	514.800000
806.323181	526.400000
806.358826	516.700000
806.394409	497.300000
806.429993	499.800000
806.465576	516.500000
806.501160	498.600000
806.536743	491.900000
806.572327	500.000000
806.607910	497.700000
806.643494	495.900000
806.679077	495.800000
806.714661	493.600000
806.750244	496.100000
806.785828	488.300000
806.821350	485.000000
806.856934	495.900000
806.892517	488.800000
806.928101	481.700000
806.963684	482.000000
806.999268	490.500000
807.034790	470.900000
807.070374	480.900000
807.105896	475.000000
807.141479	468.200000
807.177063	478.700000
807.212585	468.400000
807.248169	468.000000
807.283752	474.800000
807.319275	468.000000
807.354858	468.800000
807.390381	463.000000
807.425903	464.900000
807.461487	460.200000
807.497070	455.900000
807.532593	455.700000
807.568115	454.100000
807.603699	450.400000
807.639221	446.500000
807.674744	449.900000
807.710266	452.500000
807.745850	455.700000
807.781372	448.700000
807.816895	444.100000
807.852417	448.900000
807.888000	442.700000
807.923523	442.300000
807.959045	445.300000
807.994629	432.000000
808.030090	429.600000
808.065613	441.000000
808.101135	440.100000
808.136658	436.200000
808.172241	433.100000
808.207764	430.500000
808.243225	424.300000
808.278809	423.300000
808.314270	432.900000
808.349792	421.100000
808.385315	420.100000
808.420837	425.300000
808.456360	427.800000
808.491882	425.600000
808.527344	419.300000
808.562866	430.000000
808.598389	420.900000
808.633850	417.100000
808.669434	413.700000
808.704895	422.600000
808.740417	425.000000
808.775940	416.700000
808.811462	410.600000
808.846924	404.200000
808.882385	399.200000
808.917847	399.900000
808.953369	402.300000
808.988892	395.600000
809.024353	404.900000
809.059875	405.100000
809.095398	400.000000
809.130798	392.900000
809.166321	392.600000
809.201843	390.300000
809.237305	395.200000
809.272766	400.800000
809.308228	382.800000
809.343750	384.400000
809.379211	387.100000
809.414734	389.300000
809.450134	395.800000
809.485657	378.800000
809.521118	383.900000
809.556580	382.900000
809.592102	380.000000
809.627502	377.800000
809.663025	377.600000
809.698486	368.800000
809.733887	370.900000
809.769409	372.200000
809.804871	359.500000
809.840271	366.100000
809.875793	370.800000
809.911194	368.700000
809.946655	363.400000
809.982178	357.100000
810.017639	364.000000
810.053040	360.100000
810.088501	359.300000
810.123901	357.000000
810.159424	355.400000
810.194885	346.900000
810.230286	353.600000
810.265747	348.000000
810.301208	346.600000
810.336609	347.300000
810.372070	344.200000
810.407532	346.500000
810.442932	346.600000
810.478394	352.200000
810.513794	345.500000
810.549255	341.800000
810.584717	340.400000
810.620117	337.600000
810.655518	342.200000
810.690979	343.200000
810.726379	341.300000
810.761841	329.200000
810.797302	332.300000
810.832642	331.900000
810.868103	340.300000
810.903564	329.300000
810.938904	336.900000
810.974365	325.500000
811.009827	330.800000
811.045166	326.000000
811.080627	318.900000
811.115967	326.100000
811.151428	334.500000
811.186829	324.600000
811.222229	327.300000
811.257629	319.300000
811.293091	324.400000
811.328430	330.700000
811.363892	322.800000
811.399292	327.400000
811.434631	320.400000
811.470093	327.700000
811.505493	315.600000
811.540833	318.800000
811.576294	323.200000
811.611694	318.100000
811.647034	312.300000
811.682434	314.800000
811.717773	317.900000
811.753235	321.800000
811.788635	313.900000
811.823975	315.600000
811.859375	324.700000
811.894775	309.100000
811.930115	310.700000
811.965515	311.800000
812.000916	314.600000
812.036255	309.000000
812.071655	312.400000
812.106995	306.600000
812.142395	307.900000
812.177795	315.100000
812.213196	311.800000
812.248474	311.600000
812.283875	302.100000
812.319214	306.100000
812.354614	304.300000
812.390015	303.200000
812.425293	302.700000
812.460693	303.000000
812.496094	301.200000
812.531433	291.300000
812.566772	293.900000
812.602173	298.300000
812.637451	299.000000
812.672852	294.500000
812.708191	298.900000
812.743530	292.800000
812.778931	285.900000
812.814270	288.700000
812.849609	297.100000
812.884949	290.400000
812.920227	284.800000
812.955627	299.700000
812.990967	291.200000
813.026306	285.200000
813.061646	276.800000
813.096985	273.200000
813.132324	273.200000
813.167664	277.700000
813.203003	283.000000
813.238281	269.300000
813.273682	272.800000
813.308960	266.900000
813.344299	270.300000
813.379639	279.800000
813.414978	273.900000
813.450256	271.000000
813.485596	274.000000
813.520874	265.800000
813.556213	269.600000
813.591614	273.400000
813.626831	268.500000
813.662170	271.400000
813.697510	281.600000
813.732788	262.700000
813.768127	269.200000
813.803467	269.500000
813.838745	263.800000
813.874084	267.500000
813.909363	267.400000
813.944641	268.800000
813.979980	258.400000
814.015320	264.400000
814.050598	260.600000
814.085876	266.500000
814.121155	264.900000
814.156494	261.900000
814.191772	260.900000
814.227051	258.800000
814.262390	260.200000
814.297668	259.600000
814.332947	261.500000
814.368225	252.400000
814.403564	257.000000
814.438782	254.400000
814.474121	256.100000
814.509338	253.500000
814.544617	263.000000
814.579956	253.200000
814.615173	260.900000
814.650513	259.900000
814.685791	249.500000
814.721008	253.500000
814.756348	253.600000
814.791626	248.600000
814.826843	248.400000
814.862122	252.700000
814.897400	245.000000
814.932678	249.700000
814.967957	249.800000
815.003235	248.600000
815.038452	241.100000
815.073730	240.600000
815.108948	250.800000
815.144226	247.600000
815.179504	252.300000
815.214722	239.100000
815.250000	237.200000
815.285278	244.600000
815.320496	238.300000
815.355774	241.800000
815.391052	243.800000
815.426270	240.200000
815.461487	238.900000
815.496765	235.400000
815.531982	231.500000
815.567261	237.400000
815.602539	246.300000
815.637695	240.800000
815.672974	242.500000
815.708191	241.500000
815.743408	242.500000
815.778687	235.900000
815.813904	244.800000
815.849121	227.400000
815.884399	229.700000
815.919556	230.400000
815.954834	229.100000
815.990051	235.900000
816.025269	238.500000
816.060486	229.200000
816.095703	228.700000
816.130920	232.000000
816.166199	227.400000
816.201416	232.300000
816.236572	239.300000
816.271851	227.800000
816.307007	235.200000
816.342224	222.500000
816.377441	227.100000
816.412659	219.600000
816.447876	231.400000
816.483093	226.000000
816.518250	228.200000
816.553467	223.700000
816.588745	232.200000
816.623901	220.400000
816.659119	217.500000
816.694275	222.200000
816.729492	218.600000
816.764709	254.100000
816.799927	216.600000
816.835083	222.000000
816.870300	216.600000
816.905457	220.200000
816.940674	222.200000
816.975830	217.200000
817.010986	215.400000
817.046204	216.500000
817.081421	213.900000
817.116577	213.300000
817.151733	222.800000
817.186951	223.200000
817.222107	218.300000
817.257324	221.800000
817.292419	218.900000
817.327637	210.100000
817.362854	216.500000
817.398010	210.500000
817.433167	212.800000
817.468323	212.000000
817.503479	213.500000
817.538635	222.000000
817.573853	216.800000
817.608948	214.900000
817.644165	210.500000
817.679321	209.100000
817.714478	208.900000
817.749634	213.800000
817.784790	224.800000
817.819946	220.800000
817.855103	201.900000
817.890198	212.700000
817.925415	202.300000
817.960571	213.100000
817.995667	211.500000
818.030823	213.200000
818.066040	205.000000
818.101135	212.200000
818.136292	207.500000
818.171448	204.500000
818.206543	208.500000
818.241699	213.900000
818.276855	209.000000
818.311951	207.000000
818.347107	204.500000
818.382263	210.500000
818.417358	213.700000
818.452515	216.300000
818.487610	215.100000
818.522766	205.600000
818.557922	216.100000
818.593018	212.300000
818.628113	208.700000
818.663269	203.900000
818.698364	206.800000
818.733521	205.100000
818.768677	209.400000
818.803711	202.900000
818.838867	204.000000
818.874023	206.000000
818.909058	203.500000
818.944214	199.400000
818.979370	208.900000
819.014404	206.300000
819.049561	202.600000
819.084595	207.200000
819.119751	198.700000
819.154846	207.200000
819.189941	201.500000
819.225037	197.600000
819.260193	193.100000
819.295227	196.500000
819.330322	192.100000
819.365479	193.200000
819.400513	225.600000
819.435608	191.700000
819.470764	190.900000
819.505798	192.000000
819.540894	197.500000
819.575989	194.300000
819.611084	205.200000
819.646179	204.800000
819.681213	201.300000
819.716309	195.600000
819.751404	196.700000
819.786438	201.400000
819.821533	193.200000
819.856628	197.700000
819.891663	202.000000
819.926758	208.200000
819.961853	204.800000
819.996887	194.400000
820.031982	202.400000
820.067017	196.300000
820.102112	225.400000
820.137207	195.100000
820.172302	214.100000
820.207275	193.200000
820.242371	195.600000
820.277405	193.700000
820.312500	196.900000
820.347534	198.500000
820.382568	203.000000
820.417664	194.400000
820.452759	194.800000
820.487732	191.400000
820.522827	194.200000
820.557861	191.500000
820.592896	195.100000
820.627930	194.700000
820.662964	191.200000
820.698059	197.300000
820.733093	192.900000
820.768127	199.700000
820.803162	195.700000
820.838196	192.800000
820.873230	195.200000
820.908264	195.600000
820.943298	191.500000
820.978333	200.900000
821.013367	195.600000
821.048401	200.700000
821.083435	200.800000
821.118469	186.500000
821.153503	200.100000
821.188477	197.800000
821.223511	188.200000
821.258484	196.000000
821.293579	195.000000
821.328613	187.300000
821.363647	192.900000
821.398621	188.600000
821.433655	190.500000
821.468628	208.700000
821.503662	192.100000
821.538696	197.500000
821.573669	188.200000
821.608704	198.500000
821.643677	190.500000
821.678650	198.600000
821.713684	201.800000
821.748718	192.800000
821.783691	193.800000
821.818726	196.600000
821.853638	195.300000
821.888672	192.600000
821.923706	193.700000
821.958618	191.600000
821.993652	191.000000
822.028687	200.100000
822.063599	199.000000
822.098633	195.400000
822.133667	189.000000
822.168579	193.000000
822.203613	194.700000
822.238586	190.200000
822.273560	195.200000
822.308533	190.100000
822.343567	190.700000
822.378479	193.500000
822.413452	192.200000
822.448425	187.600000
822.483398	197.500000
822.518372	198.000000
822.553345	189.800000
822.588318	201.400000
822.623291	191.300000
822.658203	189.300000
822.693237	192.300000
822.728210	188.000000
822.763123	194.900000
822.798096	188.300000
822.833069	193.800000
822.867981	192.400000
822.902954	195.200000
822.937927	195.300000
822.972900	204.500000
823.007874	184.000000
823.042725	197.600000
823.077698	205.700000
823.112671	188.900000
823.147583	190.300000
823.182556	196.900000
823.217529	197.500000
823.252441	191.600000
823.287415	206.700000
823.322388	197.100000
823.357239	192.300000
823.392212	202.100000
823.427185	196.400000
823.462097	188.100000
823.497009	196.300000
823.531982	190.500000
823.566895	193.300000
823.601807	188.400000
823.636719	189.700000
823.671631	196.700000
823.706604	190.700000
823.741455	195.700000
823.776428	185.000000
823.811340	198.300000
823.846252	198.700000
823.881165	201.600000
823.916138	194.200000
823.950989	201.400000
823.985901	189.000000
824.020813	194.400000
824.055725	191.100000
824.090637	189.100000
824.125610	195.700000
824.160461	193.200000
824.195374	195.700000
824.230225	199.400000
824.265198	186.200000
824.300110	189.100000
824.334961	205.400000
824.369873	184.100000
824.404785	194.700000
824.439636	198.600000
824.474548	185.300000
824.509460	182.000000
824.544312	199.600000
824.579224	194.100000
824.614075	194.900000
824.648987	191.700000
824.683899	191.400000
824.718811	189.700000
824.753662	200.300000
824.788574	197.900000
824.823364	194.200000
824.858276	189.200000
824.893188	199.900000
824.928040	197.700000
824.962952	196.300000
824.997803	196.600000
825.032654	195.800000
825.067566	196.500000
825.102417	191.200000
825.137268	191.700000
825.172119	194.000000
825.206970	189.400000
825.241882	193.100000
825.276733	188.300000
825.311646	191.000000
825.346436	187.000000
825.381348	187.400000
825.416138	193.600000
825.450989	189.300000
825.485901	184.000000
825.520691	184.600000
825.555542	186.300000
825.590454	193.000000
825.625244	184.000000
825.660095	199.700000
825.695007	196.700000
825.729797	192.000000
825.764648	190.300000
825.799438	191.900000
825.834290	193.000000
825.869202	186.100000
825.903992	194.300000
825.938843	189.800000
825.973694	188.200000
826.008484	204.200000
826.043335	187.500000
826.078186	182.600000
826.112976	199.200000
826.147827	198.100000
826.182678	202.000000
826.217468	184.000000
826.252319	197.400000
826.287109	187.400000
826.321899	200.200000
826.356750	190.700000
826.391541	187.300000
826.426392	197.100000
826.461182	193.200000
826.495972	185.600000
826.530823	184.600000
826.565613	191.400000
826.600403	186.900000
826.635254	195.100000
826.670044	184.600000
826.704834	183.900000
826.739685	188.300000
826.774475	192.500000
826.809265	192.900000
826.844055	190.300000
826.878906	199.500000
826.913635	193.800000
826.948425	195.200000
826.983215	192.800000
827.018005	198.200000
827.052856	190.100000
827.087585	196.400000
827.122375	183.900000
827.157227	190.900000
827.191956	202.600000
827.226746	187.900000
827.261536	196.200000
827.296265	185.600000
827.331116	188.300000
827.365906	196.400000
827.400635	188.300000
827.435425	184.800000
827.470215	198.500000
827.504944	190.800000
827.539734	196.300000
827.574463	191.200000
827.609253	198.200000
827.644043	191.300000
827.678772	197.500000
827.713562	189.900000
827.748352	191.600000
827.783081	187.800000
827.817871	193.300000
827.852600	186.900000
827.887329	193.000000
827.922119	181.100000
827.956848	195.200000
827.991638	205.000000
828.026367	193.100000
828.061157	193.300000
828.095886	193.300000
828.130615	205.100000
828.165344	183.600000
828.200073	192.000000
828.234863	190.400000
828.269592	191.100000
828.304321	198.400000
828.339111	192.500000
828.373779	188.700000
828.408569	197.400000
828.443298	197.600000
828.477966	188.800000
828.512756	193.700000
828.547424	186.700000
828.582214	190.700000
828.616943	189.000000
828.651672	191.300000
828.686340	196.100000
828.721130	188.600000
828.755798	190.500000
828.790527	191.200000
828.825256	193.000000
828.859924	192.300000
828.894714	197.600000
828.929443	200.400000
828.964111	187.400000
828.998840	195.200000
829.033569	188.900000
829.068237	189.300000
829.102966	188.000000
829.137634	192.400000
829.172363	193.200000
829.207092	191.600000
829.241821	188.200000
829.276489	184.000000
829.311157	191.600000
829.345825	190.400000
829.380554	195.200000
829.415283	185.700000
829.449951	186.100000
829.484619	200.100000
829.519348	199.900000
829.554016	192.800000
829.588745	191.400000
829.623413	185.800000
829.658081	203.000000
829.692749	183.800000
829.727417	197.800000
829.762146	192.200000
829.796814	188.400000
829.831482	189.000000
829.866150	194.900000
829.900879	188.300000
829.935486	194.900000
829.970154	188.500000
830.004883	203.200000
830.039490	191.900000
830.074219	189.500000
830.108887	190.700000
830.143494	190.300000
830.178223	186.100000
830.212891	191.300000
830.247498	190.000000
830.282166	199.900000
830.316772	196.200000
830.351501	189.300000
830.386169	190.400000
830.420776	189.700000
830.455444	190.700000
830.490112	189.800000
830.524719	183.300000
830.559387	194.700000
830.594055	194.100000
830.628662	190.400000
830.663330	190.100000
830.697998	200.000000
830.732605	190.200000
830.767273	193.400000
830.801941	192.200000
830.836487	201.600000
830.871155	193.900000
830.905762	192.900000
830.940430	184.600000
830.975098	188.100000
831.009644	193.100000
831.044312	200.800000
831.078979	195.600000
831.113525	182.300000
831.148193	191.800000
831.182861	189.800000
831.217407	195.500000
831.252075	209.000000
831.286621	190.200000
831.321289	186.700000
831.355896	192.100000
831.390564	197.600000
831.425110	193.200000
831.459778	197.400000
831.494324	205.000000
831.528931	194.300000
831.563599	195.800000
831.598145	184.500000
831.632751	192.000000
831.667419	188.700000
831.701965	194.100000
831.736572	195.100000
831.771179	185.900000
831.805786	188.100000
831.840393	197.900000
831.874939	182.400000
831.909546	197.000000
831.944153	183.600000
831.978760	191.200000
832.013306	185.400000
832.047913	197.400000
832.082458	198.300000
832.117065	188.200000
832.151672	200.100000
832.186218	192.600000
832.220825	193.600000
832.255432	182.700000
832.289978	187.900000
832.324585	193.500000
832.359192	194.900000
832.393677	190.200000
832.428284	191.800000
832.462830	188.700000
832.497437	189.000000
832.531982	195.500000
832.566589	190.200000
832.601135	193.400000
832.635681	182.900000
832.670227	190.300000
832.704773	199.300000
832.739380	192.400000
832.773926	191.700000
832.808472	186.200000
832.843079	191.700000
832.877563	194.500000
832.912170	189.400000
832.946716	183.600000
832.981201	198.300000
833.015808	194.200000
833.050293	191.000000
833.084839	186.900000
833.119446	189.700000
833.153992	194.700000
833.188477	192.300000
833.223022	187.800000
833.257568	193.300000
833.292114	196.600000
833.326660	203.400000
833.361145	188.500000
833.395691	184.400000
833.430237	189.600000
833.464783	195.600000
833.499329	187.600000
833.533875	187.500000
833.568359	194.900000
833.602905	198.200000
833.637390	196.800000
833.671875	188.700000
833.706421	190.000000
833.740906	188.100000
833.775452	181.700000
833.809998	189.500000
833.844482	197.000000
833.879028	190.800000
833.913513	189.500000
833.947998	194.400000
833.982544	186.000000
834.017090	188.200000
834.051514	179.500000
834.086060	194.200000
834.120544	192.000000
834.155029	193.800000
834.189575	189.600000
834.223999	193.600000
834.258545	193.100000
834.293030	192.300000
834.327515	191.700000
834.362000	188.100000
834.396545	196.400000
834.430969	189.300000
834.465454	196.600000
834.500000	182.100000
834.534424	194.500000
834.568970	181.800000
834.603455	181.900000
834.637878	187.900000
834.672363	192.300000
834.706909	190.100000
834.741333	193.400000
834.775818	183.900000
834.810242	187.200000
834.844727	192.400000
834.879211	191.800000
834.913635	191.200000
834.948181	193.300000
834.982666	191.200000
835.017090	191.400000
835.051575	194.100000
835.086060	190.400000
835.120483	195.100000
835.154907	196.600000
835.189331	190.300000
835.223816	194.700000
835.258301	185.200000
835.292786	188.200000
835.327209	196.800000
835.361694	187.800000
835.396057	187.300000
835.430542	194.400000
835.465027	191.800000
835.499390	186.500000
835.533875	211.300000
835.568359	188.700000
835.602722	183.100000
835.637207	193.500000
835.671692	186.600000
835.706055	207.800000
835.740540	193.400000
835.774902	194.500000
835.809387	191.600000
835.843811	185.200000
835.878235	199.600000
835.912659	185.800000
835.947083	188.100000
835.981506	191.900000
836.015930	184.100000
836.050354	196.400000
836.084778	200.000000
836.119202	197.600000
836.153625	205.000000
836.187988	186.900000
836.222473	187.600000
836.256897	192.200000
836.291260	192.100000
836.325684	193.900000
836.360046	191.400000
836.394470	188.700000
836.428894	198.900000
836.463318	187.000000
836.497681	197.000000
836.532104	197.300000
836.566467	193.100000
836.600891	191.200000
836.635315	198.000000
836.669678	193.700000
836.704102	196.200000
836.738525	191.500000
836.772888	184.000000
836.807251	188.100000
836.841675	194.600000
836.876038	185.500000
836.910461	187.900000
836.944763	194.000000
836.979187	188.100000
837.013611	197.300000
837.047974	185.100000
837.082336	202.800000
837.116699	195.700000
837.151062	189.800000
837.185486	185.600000
837.219849	188.000000
837.254211	196.400000
837.288574	189.600000
837.322937	185.700000
837.357300	179.000000
837.391663	203.700000
837.426086	196.900000
837.460388	192.600000
837.494751	197.000000
837.529114	189.500000
837.563477	197.900000
837.597839	193.700000
837.632141	192.300000
837.666565	188.900000
837.700928	194.500000
837.735229	194.800000
837.769592	194.300000
837.803955	196.200000
837.838257	189.200000
837.872620	188.200000
837.906982	199.300000
837.941284	191.700000
837.975647	192.400000
838.010010	198.000000
838.044312	191.000000
838.078674	188.100000
838.112976	193.300000
838.147339	194.600000
838.181702	191.600000
838.216003	201.100000
838.250366	193.900000
838.284668	193.000000
838.318970	184.600000
838.353333	190.700000
838.387634	190.500000
838.421936	191.000000
838.456299	192.900000
838.490601	199.100000
838.524902	195.500000
838.559265	195.800000
838.593567	196.100000
838.627869	186.100000
838.662170	194.900000
838.696472	184.200000
838.730774	188.000000
838.765137	196.500000
838.799377	177.700000
838.833740	193.200000
838.868042	197.200000
838.902283	182.800000
838.936646	199.600000
838.970947	193.400000
839.005188	196.800000
839.039551	184.700000
839.073792	198.600000
839.108093	189.400000
839.142395	201.300000
839.176697	185.700000
839.210937	191.800000
839.245300	204.000000
839.279541	186.100000
839.313843	191.100000
839.348145	194.300000
839.382385	198.000000
839.416687	196.600000
839.450989	196.000000
839.485229	189.900000
839.519531	186.800000
839.553833	196.800000
839.588013	192.700000
839.622314	192.900000
839.656555	194.900000
839.690857	192.100000
839.725159	185.300000
839.759460	190.600000
839.793640	189.800000
839.827942	190.000000
839.862183	187.600000
839.896423	193.000000
839.930725	200.100000
839.964966	198.300000
839.999207	199.400000
840.033508	197.800000
840.067688	190.300000
840.101990	200.300000
840.136230	192.200000
840.170471	199.600000
840.204712	188.200000
840.238953	186.600000
840.273193	193.600000
840.307434	196.700000
840.341736	188.200000
840.375916	184.600000
840.410217	190.100000
840.444397	196.100000
840.478638	196.300000
840.512878	197.900000
840.547119	193.600000
840.581360	194.200000
840.615601	201.100000
840.649780	200.800000
840.684021	192.400000
840.718262	201.400000
840.752441	197.400000
840.786682	193.300000
840.820862	193.700000
840.855103	198.700000
840.889343	193.200000
840.923584	197.700000
840.957764	194.800000
840.992004	194.500000
841.026184	206.700000
841.060425	190.800000
841.094666	188.400000
841.128845	194.800000
841.163025	192.700000
841.197266	195.800000
841.231445	193.400000
841.265686	193.600000
841.299866	187.500000
841.334045	200.600000
841.368286	190.600000
841.402405	200.400000
841.436646	195.600000
841.470825	189.100000
841.505005	189.900000
841.539185	188.400000
841.573425	188.300000
841.607544	193.100000
841.641785	191.300000
841.675964	187.100000
841.710144	191.400000
841.744324	191.300000
841.778503	190.900000
841.812683	188.600000
841.846863	201.800000
841.881042	199.800000
841.915222	189.100000
841.949402	208.300000
841.983521	183.300000
842.017700	191.700000
842.051880	192.800000
842.086060	195.000000
842.120239	193.300000
842.154419	189.200000
842.188538	192.200000
842.222717	188.800000
842.256897	204.100000
842.291016	187.700000
842.325195	193.600000
842.359375	203.300000
842.393494	200.600000
842.427673	191.300000
842.461853	196.100000
842.495911	201.300000
842.530090	194.000000
842.564209	191.200000
842.598389	195.100000
842.632568	194.400000
842.666626	198.000000
842.700806	188.400000
842.734985	190.500000
842.769043	195.400000
842.803223	191.900000
842.837402	190.700000
842.871460	190.500000
842.905640	199.700000
842.939697	189.400000
842.973877	193.700000
843.007996	198.800000
843.042175	201.300000
843.076233	190.400000
843.110413	192.000000
843.144470	202.100000
843.178589	196.200000
843.212769	190.300000
843.246826	197.300000
843.280945	191.400000
843.315125	190.300000
843.349182	189.500000
843.383301	200.900000
843.417419	205.000000
843.451538	191.600000
843.485657	190.200000
843.519714	189.400000
843.553833	194.300000
843.587952	188.900000
843.622070	188.900000
843.656128	196.600000
843.690247	190.600000
843.724304	190.000000
843.758423	194.200000
843.792542	190.400000
843.826599	193.200000
843.860718	191.100000
843.894836	186.000000
843.928894	193.400000
843.963013	195.100000
843.997070	190.400000
844.031128	185.700000
844.065247	197.000000
844.099304	197.400000
844.133362	194.300000
844.167480	195.800000
844.201599	200.400000
844.235596	193.900000
844.269714	194.300000
844.303711	195.800000
844.337830	185.600000
844.371948	194.800000
844.405945	192.200000
844.440063	187.900000
844.474121	207.900000
844.508118	191.900000
844.542236	192.000000
844.576294	191.000000
844.610352	187.300000
844.644409	190.400000
844.678406	184.900000
844.712524	197.400000
844.746582	200.400000
844.780640	192.200000
844.814636	193.000000
844.848755	203.300000
844.882751	191.700000
844.916809	197.300000
844.950867	194.700000
844.984863	200.700000
845.018921	191.400000
845.052979	187.800000
845.086975	192.800000
845.121033	186.000000
845.155090	187.200000
845.189087	199.900000
845.223145	191.700000
845.257141	191.000000
845.291199	196.800000
845.325256	199.300000
845.359253	192.900000
845.393250	202.700000
845.427307	192.700000
845.461304	194.100000
845.495361	193.800000
845.529358	203.600000
845.563354	190.400000
845.597412	188.100000
845.631409	200.000000
845.665405	200.300000
845.699463	197.500000
845.733459	190.900000
845.767456	199.600000
845.801453	190.700000
845.835449	199.000000
845.869446	196.700000
845.903503	197.600000
845.937439	190.000000
845.971497	199.200000
846.005493	186.700000
846.039429	196.000000
846.073486	202.100000
846.107483	190.500000
846.141418	192.100000
846.175476	190.700000
846.209473	201.000000
846.243408	189.100000
846.277405	195.000000
846.311401	188.100000
846.345337	193.700000
846.379395	199.200000
846.413330	189.200000
846.447327	200.500000
846.481323	189.400000
846.515259	190.400000
846.549255	193.400000
846.583252	195.300000
846.617187	187.300000
846.651184	194.800000
846.685120	192.300000
846.719055	199.200000
846.753052	197.600000
846.786987	195.900000
846.820984	186.800000
846.854980	200.200000
846.888916	188.100000
846.922852	194.400000
846.956848	202.900000
846.990723	187.500000
847.024719	194.000000
847.058716	191.600000
847.092590	200.400000
847.126587	194.300000
847.160522	190.900000
847.194458	197.500000
847.228455	188.100000
847.262390	187.300000
847.296265	191.300000
847.330261	199.600000
847.364136	190.800000
847.398132	189.300000
847.432068	192.100000
847.466003	191.000000
847.499939	191.200000
847.533875	195.700000
847.567749	189.100000
847.601746	191.000000
847.635681	195.800000
847.669556	185.300000
847.703491	199.900000
847.737427	208.900000
847.771301	188.200000
847.805237	194.700000
847.839233	193.500000
847.873108	193.400000
847.907043	190.400000
847.940918	200.400000
847.974854	193.900000
848.008789	198.000000
848.042664	193.200000
848.076538	197.700000
848.110474	192.000000
848.144348	194.500000
848.178284	185.800000
848.212219	193.400000
848.246094	189.600000
848.279968	195.600000
848.313904	195.400000
848.347778	195.000000
848.381653	192.700000
848.415588	189.800000
848.449463	189.700000
848.483337	196.500000
848.517212	199.000000
848.551086	194.400000
848.585022	189.300000
848.618835	201.400000
848.652771	190.200000
848.686646	188.200000
848.720520	201.500000
848.754395	193.500000
848.788330	197.400000
848.822144	199.000000
848.856018	191.200000
848.889954	202.000000
848.923767	187.300000
848.957642	188.900000
848.991577	197.200000
849.025391	190.700000
849.059265	192.600000
849.093079	188.500000
849.126953	186.600000
849.160828	198.700000
849.194641	194.000000
849.228577	189.800000
849.262451	192.400000
849.296265	190.800000
849.330139	188.900000
849.364014	193.400000
849.397827	196.900000
849.431702	192.000000
849.465515	197.600000
849.499329	183.500000
849.533203	187.700000
849.567078	181.600000
849.600891	197.700000
849.634766	192.100000
849.668518	198.900000
849.702393	192.600000
849.736267	187.100000
849.770020	204.400000
849.803894	197.800000
849.837769	192.700000
849.871521	194.300000
849.905396	198.500000
849.939270	190.500000
849.973022	190.200000
850.006897	196.900000
850.040710	195.500000
850.074524	198.200000
850.108337	192.000000
850.142151	197.200000
850.175964	200.000000
850.209778	193.000000
850.243530	180.600000
850.277405	198.400000
850.311218	193.500000
850.344971	189.800000
850.378845	200.100000
850.412659	189.800000
850.446411	192.500000
850.480225	192.800000
850.514038	198.700000
850.547791	195.400000
850.581665	192.000000
850.615417	189.800000
850.649231	193.400000
850.683044	191.000000
850.716858	192.000000
850.750610	193.400000
850.784424	197.800000
850.818176	189.800000
850.851929	190.000000
850.885742	189.700000
850.919495	193.400000
850.953308	199.800000
850.987122	201.000000
851.020874	186.600000
851.054626	185.600000
851.088440	196.100000
851.122192	198.000000
851.156006	191.100000
851.189697	191.700000
851.223511	187.000000
851.257263	197.700000
851.291077	196.000000
851.324829	191.800000
851.358582	188.700000
851.392334	192.100000
851.426086	190.700000
851.459900	200.200000
851.493591	192.400000
851.527344	194.500000
851.561157	192.100000
851.594849	196.900000
851.628662	194.100000
851.662415	201.300000
851.696106	194.900000
851.729858	198.000000
851.763611	187.700000
851.797363	194.000000
851.831116	188.100000
851.864868	195.000000
851.898560	197.000000
851.932312	190.000000
851.966064	194.600000
851.999817	193.500000
852.033569	192.700000
852.067261	197.300000
852.101013	189.600000
852.134766	193.000000
852.168457	182.600000
852.202209	198.700000
852.235901	188.100000
852.269592	196.200000
852.303345	202.700000
852.337036	196.000000
852.370789	191.900000
852.404541	195.800000
852.438171	189.700000
852.471924	192.200000
852.505676	186.100000
852.539307	194.500000
852.573059	189.500000
852.606812	191.000000
852.640442	192.000000
852.674194	197.000000
852.707886	204.600000
852.741577	201.300000
852.775269	189.300000
852.809021	192.700000
852.842651	195.900000
852.876404	198.100000
852.910034	195.100000
852.943787	199.000000
852.977478	196.100000
853.011108	187.700000
853.044861	191.200000
853.078552	200.700000
853.112183	196.900000
853.145874	193.600000
853.179626	183.400000
853.213257	193.900000
853.246948	190.500000
853.280640	200.500000
853.314270	192.200000
853.347961	200.600000
853.381653	196.600000
853.415283	196.400000
853.448975	190.400000
853.482605	193.700000
853.516296	192.700000
853.549988	188.100000
853.583618	194.000000
853.617310	195.700000
853.651001	194.400000
853.684631	189.000000
853.718323	191.100000
853.751953	202.000000
853.785583	184.600000
853.819275	198.600000
853.852966	194.800000
853.886536	184.400000
853.920227	187.200000
853.953918	199.000000
853.987488	191.900000
854.021179	197.700000
854.054749	199.600000
854.088440	195.900000
854.122131	189.000000
854.155701	196.300000
854.189331	188.800000
854.223022	197.100000
854.256592	194.500000
854.290283	190.500000
854.323914	197.200000
854.357483	194.600000
854.391174	194.900000
854.424744	204.300000
854.458374	195.700000
854.492065	204.200000
854.525696	192.500000
854.559265	201.500000
854.592896	203.900000
854.626465	195.300000
854.660095	194.500000
854.693787	195.900000
854.727356	191.300000
854.760986	197.500000
854.794617	195.000000
854.828186	191.400000
854.861816	196.600000
854.895447	194.800000
854.929016	193.800000
854.962585	196.200000
854.996155	201.800000
855.029785	194.600000
855.063416	196.700000
855.097046	198.800000
855.130615	186.900000
855.164185	200.000000
855.197754	194.400000
855.231384	196.600000
855.264954	190.800000
855.298523	197.100000
855.332153	193.600000
855.365723	201.300000
855.399292	189.500000
855.432922	193.200000
855.466492	195.400000
855.500061	188.600000
855.533630	189.200000
855.567200	195.100000
855.600769	199.300000
855.634338	197.300000
855.667969	196.700000
855.701477	188.500000
855.735046	189.300000
855.768616	183.500000
855.802185	195.700000
855.835754	207.100000
855.869324	185.000000
855.902893	192.100000
855.936401	200.300000
855.969971	194.600000
856.003540	185.400000
856.037109	196.400000
856.070618	193.500000
856.104187	186.500000
856.137695	191.900000
856.171265	184.000000
856.204834	193.500000
856.238403	199.200000
856.271912	190.200000
856.305481	194.500000
856.338989	187.200000
856.372559	196.000000
856.406128	194.700000
856.439636	197.200000
856.473145	191.600000
856.506653	200.400000
856.540222	193.000000
856.573792	199.000000
856.607300	198.400000
856.640808	187.500000
856.674377	194.600000
856.707825	223.500000
856.741394	198.400000
856.774902	189.000000
856.808472	184.000000
856.841980	196.500000
856.875488	201.200000
856.908936	186.400000
856.942505	192.700000
856.976013	192.600000
857.009521	187.900000
857.043030	195.100000
857.076477	192.200000
857.110046	199.100000
857.143555	193.700000
857.177063	199.200000
857.210571	188.800000
857.244080	187.900000
857.277527	195.700000
857.311035	192.700000
857.344543	196.700000
857.378052	195.200000
857.411499	197.800000
857.445068	204.700000
857.478516	193.100000
857.512024	187.700000
857.545532	191.500000
857.578979	198.000000
857.612427	192.700000
857.645874	191.500000
857.679382	194.800000
857.712891	198.200000
857.746399	193.500000
857.779846	200.400000
857.813354	197.800000
857.846741	193.700000
857.880249	189.800000
857.913757	196.400000
857.947266	194.800000
857.980652	196.500000
858.014160	190.200000
858.047546	192.700000
858.081055	192.700000
858.114563	203.100000
858.147949	186.600000
858.181458	197.500000
858.214844	192.300000
858.248352	185.400000
858.281799	197.900000
858.315308	206.800000
858.348694	196.300000
858.382141	202.000000
858.415588	196.400000
858.449036	199.800000
858.482483	196.700000
858.515930	190.400000
858.549377	193.800000
858.582825	201.900000
858.616211	196.600000
858.649658	195.900000
858.683105	188.200000
858.716553	189.400000
858.750000	188.600000
858.783386	191.300000
858.816833	185.300000
858.850281	195.300000
858.883728	196.600000
858.917114	192.700000
858.950562	203.100000
858.983948	201.300000
859.017395	197.600000
859.050781	190.800000
859.084167	189.800000
859.117615	186.700000
859.151062	197.700000
859.184448	189.200000
859.217834	193.600000
859.251282	190.300000
859.284668	189.300000
859.318054	184.300000
859.351440	192.500000
859.384888	200.300000
859.418274	185.900000
859.451721	184.200000
859.485046	197.000000
859.518494	194.900000
859.551819	190.100000
859.585266	194.900000
859.618652	196.300000
859.652039	186.700000
859.685425	188.400000
859.718811	185.200000
859.752197	181.600000
859.785583	201.500000
859.819031	201.500000
859.852356	196.000000
859.885742	190.300000
859.919067	192.000000
859.952454	191.300000
859.985901	198.500000
860.019287	192.500000
860.052612	0.000000
860.085999	0.000000
860.119324	0.000000
860.152710	0.000000
860.186096	0.000000
860.219421	0.000000
860.252808	0.000000
860.286133	0.000000
860.319519	0.000000
860.352905	0.000000
860.386292	0.000000
860.419617	0.000000
860.452942	0.000000
860.486267	0.000000
860.519653	0.000000
860.553040	0.000000
860.586365	0.000000
860.619690	0.000000
860.653076	0.000000
860.686340	0.000000
860.719727	0.000000
860.753113	0.000000
860.786377	0.000000
860.819763	0.000000
860.853027	0.000000
860.886414	0.000000
860.919739	0.000000
860.953125	0.000000
860.986389	0.000000
861.019714	0.000000
861.053040	0.000000
861.086365	0.000000
861.119690	0.000000
861.153076	0.000000
861.186340	0.000000
861.219666	0.000000
861.252930	0.000000
861.286316	0.000000
861.319641	0.000000
861.352905	0.000000
861.386230	0.000000
861.419495	0.000000
861.452820	0.000000
861.486145	0.000000
861.519470	0.000000
861.552734	0.000000
861.586060	0.000000
861.619324	0.000000
861.652649	0.000000
861.685974	0.000000
861.719238	0.000000
861.752563	0.000000
861.785828	0.000000
861.819092	0.000000
861.852417	0.000000
861.885742	0.000000
861.918945	0.000000
861.952271	0.000000
861.985535	0.000000
862.018799	0.000000
862.052124	0.000000
862.085449	0.000000
862.118652	0.000000
862.151978	0.000000
862.185181	0.000000
862.218506	0.000000
862.251770	0.000000
862.285034	0.000000
862.318298	0.000000
862.351562	0.000000
862.384827	0.000000
862.418091	0.000000
862.451355	0.000000
862.484619	0.000000
862.517883	0.000000
862.551086	0.000000
862.584351	0.000000
862.617676	0.000000
862.650940	0.000000
862.684143	0.000000
862.717407	0.000000
862.750610	0.000000
862.783875	0.000000
862.817139	0.000000
862.850342	0.000000
862.883606	0.000000
862.916870	0.000000
862.950073	0.000000
862.983337	0.000000
863.016602	0.000000
863.049805	0.000000
863.083069	0.000000
863.116211	0.000000
863.149475	0.000000
863.182739	0.000000
863.216003	0.000000
863.249146	0.000000
863.282410	0.000000
863.315613	0.000000
863.348816	0.000000
863.382080	0.000000
863.415222	0.000000
863.448486	0.000000
863.481689	0.000000
863.514893	0.000000
863.548157	0.000000
863.581360	0.000000
863.614502	0.000000
863.647766	0.000000
863.680908	0.000000
863.714172	0.000000
863.747375	0.000000
863.780579	0.000000
863.813721	0.000000
863.846985	0.000000
863.880127	0.000000
863.913330	0.000000
863.946533	0.000000
863.979675	0.000000
864.012939	0.000000
