Model Number: SPM-001-M   
Serial Number: 10090201
Firmware Version: 004.17.6
Exposure Time: 500000.000000us
Data Taken on: 10-03-2021 12:31:36.454
Wavelength	Amplitude
733.770752	0.000000
733.808716	0.000000
733.846619	0.000000
733.884583	0.000000
733.922546	0.000000
733.960449	0.000000
733.998413	0.000000
734.036377	0.000000
734.074219	0.000000
734.112183	0.000000
734.150085	0.000000
734.188049	0.000000
734.226013	0.000000
734.263916	0.000000
734.301819	0.000000
734.339783	0.000000
734.377686	0.000000
734.415588	0.000000
734.453552	0.000000
734.491455	0.000000
734.529419	0.000000
734.567322	0.000000
734.605225	0.000000
734.643127	0.000000
734.681091	0.000000
734.718994	0.000000
734.756897	0.000000
734.794800	0.000000
734.832703	0.000000
734.870667	0.000000
734.908508	0.000000
734.946472	0.000000
734.984375	0.000000
735.022278	0.000000
735.060181	0.000000
735.098083	0.000000
735.135986	0.000000
735.173889	0.000000
735.211792	0.000000
735.249695	0.000000
735.287598	0.000000
735.325439	0.000000
735.363403	0.000000
735.401306	0.000000
735.439148	0.000000
735.477051	0.000000
735.515015	0.000000
735.552856	0.000000
735.590759	0.000000
735.628662	0.000000
735.666504	0.000000
735.704407	0.000000
735.742310	0.000000
735.780212	0.000000
735.818115	0.000000
735.856018	0.000000
735.893860	0.000000
735.931763	0.000000
735.969604	0.000000
736.007507	0.000000
736.045410	0.000000
736.083252	0.000000
736.121094	0.000000
736.158997	0.000000
736.196838	0.000000
736.234741	0.000000
736.272644	0.000000
736.310486	0.000000
736.348389	0.000000
736.386230	0.000000
736.424072	0.000000
736.461975	0.000000
736.499878	0.000000
736.537720	0.000000
736.575562	0.000000
736.613403	0.000000
736.651306	0.000000
736.689148	0.000000
736.726990	0.000000
736.764893	0.000000
736.802734	0.000000
736.840576	0.000000
736.878418	0.000000
736.916321	0.000000
736.954102	0.000000
736.992004	0.000000
737.029846	0.000000
737.067688	0.000000
737.105530	0.000000
737.143372	0.000000
737.181213	0.000000
737.219116	0.000000
737.256897	0.000000
737.294739	0.000000
737.332642	0.000000
737.370422	0.000000
737.408325	0.000000
737.446167	0.000000
737.483948	0.000000
737.521790	0.000000
737.559692	0.000000
737.597473	0.000000
737.635315	0.000000
737.673157	0.000000
737.710999	0.000000
737.748840	0.000000
737.786621	0.000000
737.824463	0.000000
737.862305	0.000000
737.900085	0.000000
737.937927	0.000000
737.975769	0.000000
738.013550	0.000000
738.051392	0.000000
738.089233	0.000000
738.127014	0.000000
738.164856	0.000000
738.202698	0.000000
738.240479	0.000000
738.278320	0.000000
738.316162	0.000000
738.353943	0.000000
738.391785	0.000000
738.429565	0.000000
738.467407	0.000000
738.505188	0.000000
738.542969	0.000000
738.580811	0.000000
738.618652	0.000000
738.656372	0.000000
738.694214	0.000000
738.732056	0.000000
738.769836	0.000000
738.807617	0.000000
738.845459	0.000000
738.883240	0.000000
738.921021	0.000000
738.958862	0.000000
738.996582	0.000000
739.034424	0.000000
739.072205	0.000000
739.109985	0.000000
739.147827	0.000000
739.185547	0.000000
739.223389	0.000000
739.261169	0.000000
739.298889	0.000000
739.336731	0.000000
739.374512	0.000000
739.412292	0.000000
739.450073	0.000000
739.487854	0.000000
739.525635	0.000000
739.563416	0.000000
739.601135	0.000000
739.638977	0.000000
739.676758	0.000000
739.714478	0.000000
739.752258	0.000000
739.790100	0.000000
739.827820	0.000000
739.865601	0.000000
739.903381	0.000000
739.941101	0.000000
739.978882	195.500000
740.016724	191.500000
740.054443	198.000000
740.092224	188.900000
740.130005	189.900000
740.167725	190.200000
740.205505	189.100000
740.243225	198.500000
740.281006	192.200000
740.318787	185.100000
740.356506	196.800000
740.394287	198.300000
740.432068	188.200000
740.469727	186.500000
740.507507	195.700000
740.545288	191.800000
740.583008	192.600000
740.620789	192.600000
740.658569	183.100000
740.696228	191.900000
740.734009	196.800000
740.771790	179.800000
740.809509	197.000000
740.847229	188.100000
740.884949	188.700000
740.922729	185.500000
740.960449	191.100000
740.998169	187.500000
741.035950	187.100000
741.073669	193.000000
741.111389	190.800000
741.149170	202.700000
741.186890	202.900000
741.224609	197.500000
741.262329	193.300000
741.300110	203.600000
741.337769	186.100000
741.375549	186.700000
741.413208	194.000000
741.450989	188.700000
741.488708	190.200000
741.526367	190.800000
741.564148	196.700000
741.601868	197.600000
741.639526	192.200000
741.677307	191.900000
741.715027	194.600000
741.752686	188.000000
741.790466	200.500000
741.828186	195.100000
741.865845	188.000000
741.903564	184.000000
741.941345	191.600000
741.979004	187.700000
742.016724	194.900000
742.054382	191.900000
742.092102	199.300000
742.129822	185.500000
742.167480	190.600000
742.205200	189.300000
742.242920	193.700000
742.280640	196.600000
742.318359	186.900000
742.356079	188.200000
742.393738	196.200000
742.431396	190.700000
742.469116	196.800000
742.506775	181.100000
742.544495	194.200000
742.582214	195.300000
742.619873	191.100000
742.657593	199.200000
742.695251	197.400000
742.732971	190.300000
742.770630	193.600000
742.808289	190.800000
742.846008	192.100000
742.883728	193.800000
742.921326	192.100000
742.959045	189.000000
742.996765	192.800000
743.034424	191.200000
743.072083	188.900000
743.109802	191.900000
743.147400	185.200000
743.185120	192.500000
743.222839	192.000000
743.260437	198.200000
743.298157	194.700000
743.335754	184.200000
743.373474	189.700000
743.411133	185.000000
743.448792	192.000000
743.486450	192.600000
743.524170	184.200000
743.561768	192.900000
743.599487	199.100000
743.637146	203.400000
743.674744	191.500000
743.712463	190.800000
743.750122	193.500000
743.787720	196.100000
743.825439	188.400000
743.863037	190.300000
743.900696	190.500000
743.938416	217.000000
743.976013	192.100000
744.013672	202.000000
744.051331	196.400000
744.088928	201.500000
744.126587	197.000000
744.164307	194.500000
744.201904	188.300000
744.239563	195.700000
744.277222	193.800000
744.314819	192.800000
744.352478	197.800000
744.390137	194.900000
744.427734	192.000000
744.465393	190.600000
744.502991	184.700000
744.540649	195.600000
744.578308	191.600000
744.615906	187.000000
744.653564	180.600000
744.691223	196.000000
744.728821	183.300000
744.766418	191.800000
744.804077	195.100000
744.841675	189.300000
744.879333	185.400000
744.916992	191.700000
744.954529	189.700000
744.992187	197.600000
745.029785	191.000000
745.067444	189.200000
745.105042	193.800000
745.142639	194.900000
745.180298	201.400000
745.217896	189.800000
745.255493	191.900000
745.293152	196.900000
745.330750	197.000000
745.368347	201.200000
745.405945	197.300000
745.443604	192.700000
745.481140	196.600000
745.518799	192.100000
745.556396	197.500000
745.593994	196.400000
745.631592	193.600000
745.669189	187.800000
745.706787	195.400000
745.744385	188.600000
745.781982	195.700000
745.819580	189.100000
745.857178	192.500000
745.894775	192.900000
745.932373	193.500000
745.969971	193.100000
746.007568	183.900000
746.045166	201.000000
746.082764	198.200000
746.120300	195.200000
746.157898	194.600000
746.195557	193.400000
746.233093	188.000000
746.270691	195.300000
746.308228	194.200000
746.345825	197.600000
746.383423	196.400000
746.420959	186.600000
746.458557	188.600000
746.496155	188.900000
746.533691	191.900000
746.571289	187.000000
746.608887	193.600000
746.646423	192.700000
746.684021	193.500000
746.721619	189.000000
746.759155	194.100000
746.796753	185.400000
746.834351	186.500000
746.871826	189.200000
746.909424	200.600000
746.946960	195.400000
746.984558	190.400000
747.022156	191.200000
747.059631	200.600000
747.097229	193.800000
747.134827	191.500000
747.172363	200.300000
747.209900	193.700000
747.247498	188.300000
747.285034	199.900000
747.322571	201.900000
747.360168	190.900000
747.397644	186.600000
747.435242	196.900000
747.472778	200.100000
747.510315	189.000000
747.547913	192.600000
747.585388	199.000000
747.622925	193.100000
747.660522	183.500000
747.697998	189.900000
747.735596	190.500000
747.773132	191.400000
747.810669	191.600000
747.848206	197.200000
747.885742	186.600000
747.923279	187.800000
747.960815	193.900000
747.998352	194.000000
748.035889	195.400000
748.073425	197.300000
748.110901	187.600000
748.148437	188.000000
748.185974	191.900000
748.223511	202.100000
748.261047	193.200000
748.298584	194.300000
748.336060	190.400000
748.373596	194.100000
748.411133	210.300000
748.448608	187.700000
748.486145	195.800000
748.523682	199.400000
748.561218	197.300000
748.598755	193.300000
748.636292	196.000000
748.673706	188.700000
748.711243	198.900000
748.748718	195.200000
748.786255	192.200000
748.823792	192.900000
748.861267	187.800000
748.898804	195.200000
748.936340	194.400000
748.973816	189.500000
749.011292	198.600000
749.048828	195.800000
749.086304	196.700000
749.123840	205.200000
749.161316	188.800000
749.198792	202.900000
749.236328	199.600000
749.273743	191.700000
749.311279	190.700000
749.348816	195.600000
749.386230	193.000000
749.423767	179.700000
749.461304	195.700000
749.498718	192.200000
749.536255	199.600000
749.573730	204.100000
749.611206	198.800000
749.648682	190.900000
749.686218	193.000000
749.723633	196.900000
749.761169	189.900000
749.798645	187.100000
749.836060	191.300000
749.873596	187.500000
749.911011	192.000000
749.948547	199.800000
749.986023	192.500000
750.023437	191.000000
750.060913	187.100000
750.098450	186.000000
750.135864	191.800000
750.173340	191.800000
750.210815	197.400000
750.248291	186.800000
750.285767	193.600000
750.323242	200.200000
750.360657	194.400000
750.398132	186.800000
750.435608	198.100000
750.473022	188.300000
750.510498	189.400000
750.547974	188.100000
750.585449	191.100000
750.622925	181.300000
750.660339	201.200000
750.697815	192.500000
750.735291	192.100000
750.772644	194.000000
750.810120	194.000000
750.847595	195.400000
750.885010	187.500000
750.922485	202.800000
750.959961	192.300000
750.997375	200.000000
751.034851	196.300000
751.072266	197.900000
751.109680	185.600000
751.147156	199.300000
751.184570	196.100000
751.221985	193.900000
751.259460	183.900000
751.296875	193.600000
751.334290	193.000000
751.371765	199.000000
751.409180	195.200000
751.446594	200.300000
751.484070	194.200000
751.521423	194.500000
751.558899	192.600000
751.596375	200.200000
751.633728	198.400000
751.671204	205.600000
751.708618	187.400000
751.746033	193.800000
751.783447	186.600000
751.820801	189.000000
751.858276	195.200000
751.895691	192.100000
751.933105	189.100000
751.970520	188.100000
752.007935	191.600000
752.045349	198.100000
752.082764	192.000000
752.120178	190.800000
752.157532	187.500000
752.195007	190.900000
752.232422	195.800000
752.269775	198.400000
752.307190	196.600000
752.344543	189.100000
752.382019	191.100000
752.419434	190.700000
752.456787	195.600000
752.494202	196.700000
752.531616	195.100000
752.568970	197.200000
752.606384	194.100000
752.643799	195.500000
752.681152	202.900000
752.718567	196.700000
752.755981	185.100000
752.793335	194.600000
752.830750	184.100000
752.868164	198.000000
752.905518	189.200000
752.942932	197.800000
752.980225	188.700000
753.017639	197.300000
753.055054	191.500000
753.092407	194.900000
753.129822	198.500000
753.167175	202.700000
753.204529	193.100000
753.241943	189.400000
753.279358	186.500000
753.316650	196.000000
753.354065	195.400000
753.391479	195.600000
753.428772	201.700000
753.466187	196.100000
753.503479	187.100000
753.540894	190.600000
753.578308	188.000000
753.615601	185.000000
753.653015	193.800000
753.690369	190.300000
753.727722	188.200000
753.765076	184.500000
753.802490	187.600000
753.839783	183.800000
753.877136	189.100000
753.914551	208.000000
753.951843	188.600000
753.989258	196.900000
754.026611	195.300000
754.063904	195.800000
754.101257	188.400000
754.138611	185.700000
754.175964	194.600000
754.213318	204.900000
754.250610	186.100000
754.288025	191.000000
754.325378	186.500000
754.362671	200.200000
754.400024	191.700000
754.437378	202.800000
754.474670	203.500000
754.512085	189.300000
754.549438	194.600000
754.586731	191.000000
754.624084	193.200000
754.661438	188.800000
754.698730	200.400000
754.736084	192.100000
754.773376	191.600000
754.810730	196.400000
754.848083	191.000000
754.885315	197.400000
754.922668	185.000000
754.960022	188.800000
754.997314	198.000000
755.034668	193.900000
755.072021	194.600000
755.109253	192.300000
755.146606	201.000000
755.183960	192.000000
755.221252	203.700000
755.258545	199.200000
755.295898	199.800000
755.333191	201.500000
755.370544	197.800000
755.407776	193.400000
755.445129	195.300000
755.482422	200.400000
755.519714	191.100000
755.557068	187.500000
755.594360	188.100000
755.631653	200.900000
755.668945	204.000000
755.706299	199.900000
755.743530	207.200000
755.780884	203.900000
755.818176	202.900000
755.855408	201.700000
755.892761	199.800000
755.930054	199.600000
755.967346	201.300000
756.004639	202.200000
756.041870	198.800000
756.079224	203.000000
756.116516	197.200000
756.153748	202.800000
756.191040	206.600000
756.228394	200.500000
756.265625	194.400000
756.302917	199.700000
756.340210	196.600000
756.377441	203.600000
756.414795	206.900000
756.452087	200.100000
756.489319	194.300000
756.526611	203.000000
756.563843	202.100000
756.601135	209.700000
756.638428	208.400000
756.675659	200.600000
756.712952	205.300000
756.750244	202.800000
756.787476	201.800000
756.824768	207.000000
756.862061	199.100000
756.899292	247.100000
756.936584	207.300000
756.973816	212.900000
757.011047	214.700000
757.048340	202.500000
757.085632	201.900000
757.122864	217.000000
757.160156	201.500000
757.197327	204.100000
757.234619	208.400000
757.271912	200.600000
757.309082	207.900000
757.346375	199.500000
757.383667	210.300000
757.420837	204.100000
757.458130	204.800000
757.495422	203.600000
757.532593	206.800000
757.569885	197.600000
757.607117	201.700000
757.644348	206.800000
757.681580	218.300000
757.718811	193.600000
757.756042	205.700000
757.793335	202.900000
757.830505	208.500000
757.867798	202.500000
757.905029	202.400000
757.942200	208.700000
757.979492	203.000000
758.016724	206.600000
758.053894	204.200000
758.091187	225.400000
758.128418	207.200000
758.165588	206.500000
758.202820	218.600000
758.240112	209.500000
758.277283	218.000000
758.314514	210.500000
758.351685	204.400000
758.388916	217.600000
758.426147	214.300000
758.463379	219.500000
758.500610	211.000000
758.537842	209.600000
758.575012	215.200000
758.612244	205.600000
758.649475	220.900000
758.686646	203.600000
758.723877	216.300000
758.761108	218.700000
758.798279	208.800000
758.835510	212.900000
758.872742	217.100000
758.909851	213.600000
758.947083	214.600000
758.984253	214.200000
759.021484	218.200000
759.058716	217.700000
759.095886	215.900000
759.133057	212.500000
759.170288	216.600000
759.207458	210.700000
759.244690	225.100000
759.281860	224.400000
759.319031	212.600000
759.356262	212.900000
759.393433	213.800000
759.430603	214.300000
759.467773	214.100000
759.505005	221.800000
759.542175	218.900000
759.579346	213.300000
759.616516	216.100000
759.653687	218.700000
759.690918	212.500000
759.728027	217.100000
759.765259	217.100000
759.802429	220.300000
759.839539	219.200000
759.876770	222.000000
759.913940	227.000000
759.951111	216.600000
759.988281	217.800000
760.025452	214.300000
760.062561	212.700000
760.099792	225.900000
760.136963	220.900000
760.174072	216.000000
760.211243	212.400000
760.248413	212.500000
760.285583	214.500000
760.322754	228.900000
760.359863	224.700000
760.397034	224.300000
760.434204	219.400000
760.471375	217.900000
760.508545	218.700000
760.545715	217.700000
760.582825	216.200000
760.619995	225.100000
760.657166	212.700000
760.694275	225.700000
760.731445	223.600000
760.768555	222.500000
760.805664	224.800000
760.842834	223.000000
760.879944	226.100000
760.917114	223.400000
760.954285	222.100000
760.991394	216.000000
761.028564	229.200000
761.065674	228.200000
761.102783	220.100000
761.139954	229.700000
761.177124	229.800000
761.214172	232.000000
761.251343	224.200000
761.288452	228.000000
761.325562	231.300000
761.362732	224.200000
761.399841	226.700000
761.436951	231.700000
761.474121	225.700000
761.511169	231.400000
761.548340	235.400000
761.585449	234.400000
761.622559	234.100000
761.659668	234.000000
761.696838	238.100000
761.733887	236.400000
761.771057	232.800000
761.808167	235.100000
761.845276	237.700000
761.882385	248.000000
761.919434	236.000000
761.956604	255.400000
761.993713	233.200000
762.030762	243.900000
762.067871	236.400000
762.105042	238.900000
762.142090	245.800000
762.179199	241.000000
762.216309	244.600000
762.253418	254.800000
762.290527	249.100000
762.327637	247.800000
762.364685	235.400000
762.401794	247.000000
762.438904	244.500000
762.475952	239.000000
762.513062	238.400000
762.550110	240.300000
762.587219	255.900000
762.624329	253.400000
762.661377	247.700000
762.698486	249.800000
762.735596	248.000000
762.772644	241.200000
762.809753	237.600000
762.846863	247.400000
762.883911	250.700000
762.921021	252.300000
762.958069	250.900000
762.995117	257.900000
763.032227	258.900000
763.069336	250.300000
763.106323	244.600000
763.143433	243.700000
763.180481	252.900000
763.217590	253.200000
763.254639	252.500000
763.291687	250.500000
763.328735	260.600000
763.365845	252.300000
763.402893	252.600000
763.439941	257.500000
763.477051	259.000000
763.514038	259.800000
763.551147	253.600000
763.588196	256.300000
763.625244	256.000000
763.662292	264.400000
763.699402	267.400000
763.736389	261.400000
763.773499	272.000000
763.810486	263.900000
763.847534	262.000000
763.884644	266.100000
763.921631	262.000000
763.958679	273.900000
763.995728	261.400000
764.032776	270.400000
764.069824	257.900000
764.106873	266.900000
764.143860	274.800000
764.180969	265.400000
764.218018	276.100000
764.255005	265.700000
764.292053	270.700000
764.329102	278.100000
764.366089	277.900000
764.403137	277.600000
764.440125	269.300000
764.477173	271.300000
764.514221	273.200000
764.551208	271.900000
764.588257	267.100000
764.625305	278.900000
764.662292	284.900000
764.699341	290.400000
764.736389	280.700000
764.773376	296.800000
764.810425	282.600000
764.847473	292.200000
764.884399	285.600000
764.921448	295.800000
764.958435	291.800000
764.995483	280.800000
765.032532	297.600000
765.069458	282.700000
765.106506	284.400000
765.143555	284.900000
765.180481	288.000000
765.217529	297.100000
765.254578	282.000000
765.291504	292.700000
765.328552	289.800000
765.365540	286.100000
765.402527	300.300000
765.439575	287.200000
765.476501	282.200000
765.513550	283.300000
765.550537	287.600000
765.587463	296.400000
765.624512	287.100000
765.661499	282.200000
765.698486	298.200000
765.735474	286.200000
765.772461	289.500000
765.809448	298.100000
765.846436	295.900000
765.883423	301.800000
765.920410	294.400000
765.957397	291.700000
765.994385	295.300000
766.031311	305.800000
766.068359	298.600000
766.105286	299.000000
766.142273	306.700000
766.179260	302.300000
766.216187	294.700000
766.253174	293.600000
766.290161	301.600000
766.327148	305.200000
766.364136	307.200000
766.401123	324.100000
766.438049	299.800000
766.475037	313.300000
766.512024	310.700000
766.548950	326.500000
766.585937	319.000000
766.622864	313.900000
766.659790	315.600000
766.696777	303.100000
766.733704	322.200000
766.770691	313.400000
766.807678	329.000000
766.844604	321.200000
766.881531	324.900000
766.918518	330.600000
766.955444	331.500000
766.992432	323.100000
767.029358	328.800000
767.066284	330.800000
767.103271	330.300000
767.140198	359.000000
767.177124	345.500000
767.214050	338.200000
767.251038	341.700000
767.287964	336.300000
767.324890	335.700000
767.361816	337.400000
767.398743	345.900000
767.435730	338.500000
767.472595	344.500000
767.509583	350.300000
767.546509	339.800000
767.583374	345.800000
767.620361	339.300000
767.657288	345.800000
767.694214	348.100000
767.731140	344.900000
767.768066	349.200000
767.804993	352.100000
767.841919	344.200000
767.878845	351.700000
767.915710	360.800000
767.952698	353.500000
767.989563	354.600000
768.026489	355.600000
768.063416	353.400000
768.100281	352.600000
768.137207	371.500000
768.174133	366.500000
768.211060	366.100000
768.247986	364.600000
768.284912	365.800000
768.321777	370.300000
768.358704	366.000000
768.395630	372.200000
768.432495	363.200000
768.469421	371.500000
768.506348	376.700000
768.543152	385.900000
768.580078	380.900000
768.616943	384.300000
768.653870	383.500000
768.690796	383.300000
768.727661	378.800000
768.764587	385.700000
768.801453	377.500000
768.838318	389.900000
768.875244	389.600000
768.912109	394.600000
768.948975	387.800000
768.985901	391.300000
769.022766	388.400000
769.059631	397.000000
769.096558	391.900000
769.133362	393.200000
769.170288	393.200000
769.207214	395.100000
769.244019	400.900000
769.280945	399.800000
769.317810	409.000000
769.354675	403.400000
769.391541	411.200000
769.428406	409.700000
769.465271	417.400000
769.502136	407.800000
769.539062	410.200000
769.575867	412.000000
769.612732	411.600000
769.649597	421.700000
769.686462	425.600000
769.723328	415.600000
769.760193	415.000000
769.797058	422.600000
769.833923	429.400000
769.870728	426.000000
769.907593	430.400000
769.944519	427.900000
769.981323	431.700000
770.018188	434.700000
770.055054	433.100000
770.091858	432.100000
770.128723	443.600000
770.165588	449.000000
770.202393	433.400000
770.239258	444.600000
770.276062	441.000000
770.312927	441.600000
770.349792	452.100000
770.386597	447.800000
770.423462	456.700000
770.460327	466.000000
770.497131	448.100000
770.533997	442.200000
770.570862	459.400000
770.607605	460.400000
770.644470	452.100000
770.681335	453.000000
770.718140	456.500000
770.754944	445.200000
770.791809	447.500000
770.828613	452.300000
770.865479	453.000000
770.902222	464.000000
770.939087	458.100000
770.975952	444.700000
771.012695	454.000000
771.049561	467.100000
771.086365	457.800000
771.123169	452.200000
771.159973	458.500000
771.196838	456.500000
771.233582	462.200000
771.270447	460.800000
771.307251	465.800000
771.344055	461.300000
771.380859	464.900000
771.417664	456.800000
771.454468	470.100000
771.491272	467.800000
771.528076	468.700000
771.564880	465.700000
771.601685	481.900000
771.638428	467.700000
771.675293	475.100000
771.712097	464.900000
771.748840	483.500000
771.785645	474.300000
771.822449	481.700000
771.859253	483.400000
771.896057	480.500000
771.932861	494.000000
771.969604	483.700000
772.006409	479.300000
772.043213	494.600000
772.079956	489.800000
772.116760	479.800000
772.153503	487.100000
772.190308	499.200000
772.227112	490.300000
772.263855	487.500000
772.300659	493.900000
772.337463	499.500000
772.374207	489.900000
772.411011	490.100000
772.447754	496.600000
772.484497	514.900000
772.521301	510.500000
772.558105	506.500000
772.594849	509.100000
772.631592	515.500000
772.668396	514.500000
772.705139	519.000000
772.741882	521.900000
772.778625	533.800000
772.815430	535.700000
772.852173	525.300000
772.888916	538.900000
772.925720	540.900000
772.962463	547.500000
772.999207	544.900000
773.035950	549.600000
773.072754	549.300000
773.109436	544.100000
773.146240	547.400000
773.182922	546.100000
773.219727	559.200000
773.256470	556.300000
773.293152	541.200000
773.329956	551.500000
773.366699	555.100000
773.403381	547.200000
773.440186	558.300000
773.476929	564.600000
773.513611	557.800000
773.550354	558.600000
773.587158	557.700000
773.623840	553.400000
773.660583	571.600000
773.697327	583.500000
773.734009	570.100000
773.770813	573.400000
773.807495	570.000000
773.844238	575.700000
773.880981	591.500000
773.917664	587.700000
773.954407	594.500000
773.991150	580.100000
774.027832	588.700000
774.064575	581.600000
774.101318	593.500000
774.138000	602.000000
774.174744	595.500000
774.211487	599.300000
774.248108	590.000000
774.284851	587.500000
774.321594	602.400000
774.358276	608.400000
774.395020	619.100000
774.431702	612.200000
774.468384	607.000000
774.505127	604.100000
774.541809	618.800000
774.578491	632.200000
774.615234	632.900000
774.651917	623.400000
774.688599	630.500000
774.725342	638.000000
774.762024	637.600000
774.798706	640.200000
774.835449	640.700000
774.872070	649.800000
774.908813	645.200000
774.945496	639.800000
774.982178	644.400000
775.018860	650.700000
775.055542	653.600000
775.092224	657.500000
775.128967	663.100000
775.165588	657.200000
775.202271	649.500000
775.239014	666.800000
775.275635	665.800000
775.312317	663.500000
775.349060	668.200000
775.385681	667.500000
775.422363	658.600000
775.459045	670.000000
775.495667	673.200000
775.532410	679.300000
775.569092	680.500000
775.605713	677.400000
775.642395	674.500000
775.679016	678.400000
775.715698	687.900000
775.752380	691.800000
775.789001	684.200000
775.825684	685.300000
775.862366	685.200000
775.898987	699.800000
775.935669	686.500000
775.972351	711.500000
776.008972	705.100000
776.045654	703.500000
776.082336	692.500000
776.118958	697.700000
776.155640	701.700000
776.192322	718.900000
776.228882	718.800000
776.265564	717.200000
776.302185	708.400000
776.338867	717.900000
776.375488	699.300000
776.412109	711.600000
776.448792	717.800000
776.485413	722.700000
776.522034	712.300000
776.558716	713.600000
776.595337	707.100000
776.631958	720.000000
776.668579	721.200000
776.705261	727.600000
776.741882	718.400000
776.778503	716.900000
776.815186	708.100000
776.851746	721.300000
776.888367	722.500000
776.924988	728.700000
776.961609	723.900000
776.998291	720.100000
777.034851	711.600000
777.071472	724.800000
777.108154	719.800000
777.144714	737.200000
777.181335	737.400000
777.218018	725.900000
777.254578	732.000000
777.291199	735.900000
777.327759	747.100000
777.364380	749.000000
777.401062	758.000000
777.437622	765.400000
777.474243	748.600000
777.510864	756.700000
777.547424	754.500000
777.584045	760.000000
777.620667	767.200000
777.657227	774.400000
777.693848	772.100000
777.730469	785.400000
777.767029	775.300000
777.803650	781.700000
777.840271	769.100000
777.876831	773.900000
777.913452	783.200000
777.950012	764.300000
777.986633	764.800000
778.023193	764.800000
778.059753	763.400000
778.096375	766.400000
778.132996	780.500000
778.169556	771.100000
778.206116	769.900000
778.242737	771.800000
778.279297	782.700000
778.315857	771.800000
778.352478	783.800000
778.389038	791.500000
778.425598	792.300000
778.462219	800.400000
778.498718	806.200000
778.535339	814.900000
778.571838	813.200000
778.608459	821.000000
778.645020	815.000000
778.681580	827.900000
778.718140	830.700000
778.754761	828.900000
778.791260	835.100000
778.827881	844.900000
778.864441	842.700000
778.900940	848.600000
778.937561	849.400000
778.974121	847.700000
779.010620	830.300000
779.047241	836.300000
779.083801	851.000000
779.120300	854.700000
779.156860	856.300000
779.193359	855.700000
779.229980	853.500000
779.266541	861.200000
779.303040	867.500000
779.339600	857.800000
779.376160	853.200000
779.412659	859.200000
779.449219	851.900000
779.485779	869.400000
779.522278	863.400000
779.558838	870.600000
779.595398	871.100000
779.631897	873.700000
779.668457	867.300000
779.705017	880.100000
779.741516	870.800000
779.778076	866.000000
779.814575	875.400000
779.851074	886.000000
779.887634	877.300000
779.924133	884.800000
779.960693	874.300000
779.997253	893.300000
780.033691	895.200000
780.070251	899.100000
780.106812	906.600000
780.143250	904.000000
780.179810	893.500000
780.216370	901.000000
780.252808	918.600000
780.289368	933.900000
780.325867	930.000000
780.362366	926.300000
780.398865	936.000000
780.435364	932.900000
780.471863	954.600000
780.508423	947.500000
780.544861	958.000000
780.581421	961.400000
780.617920	949.800000
780.654419	946.600000
780.690918	955.200000
780.727417	963.600000
780.763916	961.800000
780.800415	965.100000
780.836914	948.500000
780.873352	959.100000
780.909912	952.300000
780.946411	960.700000
780.982849	968.500000
781.019348	989.600000
781.055786	980.400000
781.092346	974.100000
781.128845	983.200000
781.165283	985.300000
781.201782	996.000000
781.238281	1004.100000
781.274719	1009.300000
781.311218	994.400000
781.347717	1000.400000
781.384155	990.700000
781.420654	996.400000
781.457092	1005.600000
781.493591	1003.500000
781.530090	995.800000
781.566528	1007.400000
781.602966	1009.600000
781.639465	1000.900000
781.675903	998.800000
781.712402	1014.900000
781.748901	1015.500000
781.785278	1010.500000
781.821777	1016.600000
781.858276	1010.800000
781.894714	1022.900000
781.931152	1018.300000
781.967651	1019.500000
782.004089	1015.300000
782.040527	1030.500000
782.076965	1022.900000
782.113403	1023.400000
782.149902	1031.900000
782.186340	1020.500000
782.222778	1040.800000
782.259277	1021.600000
782.295654	1017.900000
782.332092	1029.600000
782.368591	1026.300000
782.404968	1019.900000
782.441467	1023.000000
782.477905	1022.100000
782.514282	1019.900000
782.550781	1044.800000
782.587219	1035.000000
782.623596	1038.200000
782.660095	1043.000000
782.696472	1051.800000
782.732910	1051.100000
782.769348	1056.000000
782.805786	1077.200000
782.842224	1069.000000
782.878662	1055.000000
782.915039	1055.600000
782.951477	1060.100000
782.987915	1061.700000
783.024292	1064.300000
783.060730	1066.100000
783.097168	1049.100000
783.133545	1038.500000
783.169983	1035.600000
783.206421	1030.700000
783.242798	1030.200000
783.279236	1017.900000
783.315613	1013.900000
783.352051	1010.500000
783.388489	996.200000
783.424866	987.300000
783.461304	985.200000
783.497681	976.600000
783.534058	948.000000
783.570496	915.500000
783.606934	867.500000
783.643250	828.400000
783.679687	794.400000
783.716125	745.200000
783.752441	729.300000
783.788879	727.900000
783.825317	725.300000
783.861633	736.800000
783.898071	755.200000
783.934448	795.600000
783.970825	842.300000
784.007263	875.800000
784.043579	911.100000
784.080017	955.300000
784.116394	987.400000
784.152710	1018.700000
784.189148	1050.500000
784.225525	1070.100000
784.261902	1067.700000
784.298279	1075.600000
784.334656	1085.300000
784.371033	1080.700000
784.407410	1089.000000
784.443787	1081.200000
784.480164	1059.600000
784.516541	1032.800000
784.552856	1043.600000
784.589233	1038.800000
784.625610	1034.900000
784.661987	1068.500000
784.698364	1056.300000
784.734741	1047.300000
784.771057	1054.100000
784.807434	1058.000000
784.843811	1078.600000
784.880127	1075.900000
784.916504	1100.400000
784.952881	1104.000000
784.989197	1109.600000
785.025574	1102.900000
785.061951	1111.200000
785.098267	1143.100000
785.134644	1138.500000
785.170959	1138.600000
785.207275	1141.900000
785.243652	1138.400000
785.279968	1117.600000
785.316345	1124.800000
785.352722	1138.700000
785.388977	1138.200000
785.425354	1118.400000
785.461731	1097.300000
785.498047	1093.400000
785.534363	1087.600000
785.570679	1091.700000
785.606995	1089.800000
785.643372	1098.500000
785.679687	1084.000000
785.716003	1067.000000
785.752380	1065.200000
785.788635	1075.400000
785.825012	1096.700000
785.861328	1118.500000
785.897644	1089.100000
785.933960	1097.600000
785.970337	1110.800000
786.006592	1129.900000
786.042908	1146.900000
786.079285	1165.900000
786.115540	1173.200000
786.151855	1171.400000
786.188171	1167.200000
786.224487	1166.800000
786.260803	1167.300000
786.297119	1178.900000
786.333435	1182.700000
786.369751	1175.400000
786.406006	1177.600000
786.442322	1158.200000
786.478638	1150.700000
786.514954	1167.300000
786.551270	1171.500000
786.587585	1185.200000
786.623840	1170.800000
786.660156	1157.600000
786.696472	1137.200000
786.732727	1134.600000
786.769043	1143.600000
786.805298	1135.400000
786.841614	1137.700000
786.877930	1130.600000
786.914124	1121.800000
786.950439	1142.300000
786.986755	1149.100000
787.023010	1157.700000
787.059326	1168.100000
787.095642	1172.800000
787.131836	1190.000000
787.168152	1171.400000
787.204468	1176.600000
787.240723	1197.900000
787.276978	1217.700000
787.313293	1228.700000
787.349548	1224.900000
787.385803	1225.500000
787.422058	1222.500000
787.458313	1217.700000
787.494629	1219.900000
787.530823	1217.500000
787.567139	1208.900000
787.603455	1192.700000
787.639648	1176.300000
787.675903	1186.100000
787.712219	1192.300000
787.748413	1195.700000
787.784729	1189.500000
787.820984	1170.000000
787.857178	1167.200000
787.893494	1159.000000
787.929749	1145.300000
787.965942	1159.500000
788.002258	1179.600000
788.038452	1192.400000
788.074707	1169.800000
788.110962	1172.800000
788.147217	1167.300000
788.183472	1179.800000
788.219727	1184.900000
788.255920	1209.600000
788.292175	1213.900000
788.328430	1206.600000
788.364624	1185.400000
788.400879	1183.200000
788.437134	1182.400000
788.473328	1188.300000
788.509583	1181.300000
788.545837	1177.500000
788.582031	1173.100000
788.618286	1160.800000
788.654480	1155.300000
788.690735	1167.500000
788.726990	1186.300000
788.763184	1180.300000
788.799377	1199.800000
788.835632	1178.700000
788.871826	1200.900000
788.908081	1210.400000
788.944336	1206.500000
788.980469	1223.800000
789.016724	1211.200000
789.052979	1208.700000
789.089111	1188.800000
789.125366	1191.200000
789.161621	1178.000000
789.197754	1189.500000
789.234009	1186.300000
789.270142	1166.400000
789.306396	1157.600000
789.342590	1139.200000
789.378784	1120.400000
789.414978	1120.900000
789.451233	1141.700000
789.487366	1142.100000
789.523621	1148.600000
789.559814	1131.800000
789.595947	1125.400000
789.632202	1137.300000
789.668335	1151.800000
789.704529	1170.700000
789.740784	1191.600000
789.776917	1187.800000
789.813110	1167.900000
789.849304	1183.600000
789.885498	1190.500000
789.921692	1211.000000
789.957886	1223.000000
789.994019	1217.800000
790.030212	1201.200000
790.066406	1205.700000
790.102539	1198.900000
790.138733	1207.700000
790.174927	1208.800000
790.211060	1224.300000
790.247253	1211.700000
790.283386	1187.300000
790.319580	1183.900000
790.355774	1160.700000
790.391907	1169.500000
790.428101	1192.400000
790.464294	1192.700000
790.500427	1193.200000
790.536621	1179.800000
790.572754	1162.800000
790.608887	1167.700000
790.645081	1182.900000
790.681274	1193.100000
790.717346	1189.000000
790.753540	1157.600000
790.789734	1083.400000
790.825867	1027.200000
790.862000	1031.100000
790.898132	1076.600000
790.934265	1136.700000
790.970459	1197.700000
791.006592	1214.900000
791.042725	1216.900000
791.078918	1216.000000
791.114990	1217.600000
791.151184	1232.400000
791.187317	1260.300000
791.223389	1246.800000
791.259583	1233.200000
791.295715	1238.100000
791.331848	1242.100000
791.367981	1256.900000
791.404114	1264.700000
791.440247	1252.700000
791.476379	1253.700000
791.512451	1233.900000
791.548584	1230.700000
791.584778	1229.200000
791.620850	1259.100000
791.656982	1262.300000
791.693115	1252.200000
791.729187	1251.800000
791.765381	1237.100000
791.801514	1231.400000
791.837585	1238.600000
791.873718	1247.100000
791.909851	1253.000000
791.945923	1265.900000
791.982056	1234.300000
792.018188	1230.200000
792.054260	1231.200000
792.090393	1237.600000
792.126465	1235.200000
792.162598	1241.000000
792.198669	1223.600000
792.234741	1218.200000
792.270874	1202.700000
792.307007	1193.800000
792.343079	1206.200000
792.379150	1219.900000
792.415283	1201.200000
792.451355	1205.800000
792.487488	1183.100000
792.523560	1180.100000
792.559631	1182.200000
792.595764	1180.500000
792.631836	1186.200000
792.667908	1186.500000
792.703979	1170.700000
792.740051	1176.700000
792.776184	1181.700000
792.812256	1185.600000
792.848328	1200.500000
792.884399	1200.100000
792.920471	1200.100000
792.956543	1193.500000
792.992615	1190.300000
793.028748	1183.600000
793.064758	1196.500000
793.100830	1211.700000
793.136963	1221.800000
793.172974	1206.900000
793.209045	1205.500000
793.245178	1218.300000
793.281189	1203.700000
793.317261	1212.600000
793.353271	1211.900000
793.389404	1217.200000
793.425476	1214.800000
793.461487	1191.700000
793.497559	1185.100000
793.533630	1192.400000
793.569641	1198.300000
793.605713	1202.700000
793.641785	1198.200000
793.677795	1204.400000
793.713867	1196.500000
793.749878	1203.700000
793.785950	1225.100000
793.822021	1230.300000
793.858032	1207.500000
793.894104	1218.400000
793.930176	1206.600000
793.966187	1208.200000
794.002258	1192.900000
794.038269	1197.500000
794.074280	1199.700000
794.110352	1218.800000
794.146423	1187.100000
794.182373	1181.400000
794.218445	1178.300000
794.254517	1164.200000
794.290466	1152.800000
794.326538	1163.200000
794.362549	1160.300000
794.398560	1167.400000
794.434631	1166.100000
794.470581	1139.900000
794.506653	1131.900000
794.542664	1136.200000
794.578674	1134.800000
794.614685	1133.600000
794.650757	1127.900000
794.686707	1118.500000
794.722778	1114.700000
794.758789	1119.800000
794.794739	1126.800000
794.830811	1156.600000
794.866821	1169.200000
794.902771	1166.700000
794.938843	1153.900000
794.974792	1149.900000
795.010803	1142.900000
795.046814	1143.400000
795.082825	1130.100000
795.118835	1150.700000
795.154846	1122.900000
795.190796	1131.300000
795.226807	1106.000000
795.262817	1117.800000
795.298767	1111.200000
795.334778	1117.500000
795.370850	1104.200000
795.406799	1105.900000
795.442810	1084.100000
795.478821	1079.800000
795.514709	1075.900000
795.550720	1104.100000
795.586670	1088.500000
795.622681	1092.300000
795.658691	1089.600000
795.694641	1082.400000
795.730652	1071.400000
795.766663	1075.500000
795.802551	1075.300000
795.838562	1096.900000
795.874573	1073.700000
795.910522	1075.000000
795.946472	1061.500000
795.982483	1074.800000
796.018433	1078.700000
796.054382	1082.200000
796.090393	1070.200000
796.126282	1059.700000
796.162292	1049.300000
796.198242	1041.700000
796.234192	1047.800000
796.270203	1048.400000
796.306091	1056.300000
796.342041	1067.700000
796.378052	1051.800000
796.413940	1046.500000
796.449951	1049.900000
796.485901	1047.400000
796.521790	1055.000000
796.557800	1063.500000
796.593689	1057.700000
796.629639	1043.700000
796.665649	1037.300000
796.701599	1037.800000
796.737488	1033.000000
796.773437	1041.900000
796.809387	1042.500000
796.845337	1041.800000
796.881287	1031.900000
796.917175	1007.200000
796.953125	1015.300000
796.989075	1030.900000
797.024963	1039.200000
797.060913	1031.900000
797.096863	1026.400000
797.132751	1017.900000
797.168701	1004.600000
797.204590	1012.800000
797.240540	1017.100000
797.276489	1012.400000
797.312439	1021.300000
797.348328	1015.100000
797.384277	1008.600000
797.420166	995.100000
797.456055	1004.400000
797.492004	996.000000
797.527893	1011.400000
797.563843	1008.000000
797.599731	990.200000
797.635620	980.900000
797.671570	989.200000
797.707520	986.700000
797.743347	988.100000
797.779297	995.000000
797.815125	989.500000
797.851074	980.600000
797.887024	974.300000
797.922913	967.200000
797.958801	984.400000
797.994690	979.600000
798.030579	979.900000
798.066467	980.300000
798.102356	969.000000
798.138245	962.000000
798.174133	957.100000
798.210083	964.500000
798.245911	977.300000
798.281799	978.900000
798.317749	965.800000
798.353577	954.400000
798.389465	954.200000
798.425293	955.500000
798.461243	949.800000
798.497131	959.600000
798.532959	955.600000
798.568848	957.500000
798.604736	946.500000
798.640564	934.100000
798.676453	935.200000
798.712402	942.300000
798.748230	945.400000
798.784119	945.000000
798.820007	941.800000
798.855835	933.400000
798.891724	926.300000
798.927551	929.800000
798.963379	935.100000
798.999268	933.500000
799.035095	929.200000
799.070984	919.700000
799.106873	905.500000
799.142700	923.200000
799.178528	914.300000
799.214417	912.700000
799.250244	928.500000
799.286133	919.400000
799.321960	909.900000
799.357788	907.700000
799.393677	906.100000
799.429504	907.300000
799.465332	906.100000
799.501221	919.500000
799.537048	917.300000
799.572876	904.500000
799.608704	904.700000
799.644531	910.700000
799.680359	910.700000
799.716248	916.700000
799.752014	923.700000
799.787903	907.200000
799.823730	905.500000
799.859558	896.800000
799.895386	897.500000
799.931213	902.100000
799.967041	890.300000
800.002869	882.800000
800.038696	897.900000
800.074463	874.300000
800.110352	879.300000
800.146179	873.400000
800.181946	880.300000
800.217773	878.200000
800.253540	878.800000
800.289429	876.600000
800.325256	864.700000
800.361023	858.100000
800.396851	860.200000
800.432678	857.700000
800.468445	859.000000
800.504272	852.400000
800.540100	834.400000
800.575867	836.000000
800.611694	840.800000
800.647461	831.400000
800.683289	838.500000
800.719116	838.500000
800.754883	831.000000
800.790649	812.100000
800.826477	805.300000
800.862244	828.700000
800.898071	813.900000
800.933838	807.800000
800.969604	802.000000
801.005432	803.800000
801.041199	802.500000
801.076965	794.900000
801.112793	788.500000
801.148560	775.700000
801.184326	781.600000
801.220154	783.600000
801.255859	777.000000
801.291687	771.300000
801.327454	762.600000
801.363281	766.500000
801.398987	765.500000
801.434814	765.000000
801.470520	777.700000
801.506287	759.100000
801.542114	752.200000
801.577820	752.800000
801.613647	757.600000
801.649414	753.200000
801.685120	745.700000
801.720886	753.800000
801.756714	739.900000
801.792419	735.400000
801.828186	727.700000
801.863892	739.100000
801.899719	721.900000
801.935486	723.700000
801.971252	734.500000
802.006958	728.900000
802.042725	718.200000
802.078430	716.600000
802.114197	712.200000
802.149963	728.800000
802.185669	714.900000
802.221436	714.800000
802.257202	711.100000
802.292908	710.100000
802.328674	717.300000
802.364441	717.900000
802.400146	706.600000
802.435913	705.000000
802.471558	699.500000
802.507324	695.900000
802.543091	689.600000
802.578796	704.600000
802.614502	704.600000
802.650269	705.700000
802.685974	684.800000
802.721741	687.400000
802.757446	694.300000
802.793152	691.500000
802.828918	700.000000
802.864624	691.700000
802.900330	691.200000
802.936035	692.000000
802.971802	683.900000
803.007446	685.100000
803.043213	675.300000
803.078857	683.700000
803.114624	666.000000
803.150330	673.900000
803.185974	664.500000
803.221741	658.800000
803.257446	673.700000
803.293152	672.600000
803.328857	660.600000
803.364563	653.500000
803.400208	651.100000
803.435974	659.600000
803.471680	650.200000
803.507324	650.800000
803.543030	656.300000
803.578735	657.700000
803.614441	643.100000
803.650146	650.500000
803.685791	637.400000
803.721497	638.800000
803.757202	629.200000
803.792847	640.100000
803.828552	630.800000
803.864258	630.400000
803.899902	629.000000
803.935608	606.600000
803.971313	619.200000
804.006958	617.600000
804.042664	614.400000
804.078308	620.800000
804.113953	612.600000
804.149658	615.000000
804.185364	605.700000
804.221008	613.400000
804.256714	608.300000
804.292297	605.300000
804.328003	600.500000
804.363708	590.400000
804.399292	596.300000
804.434998	592.600000
804.470703	584.900000
804.506287	598.300000
804.541992	595.900000
804.577637	594.900000
804.613281	585.000000
804.648926	581.400000
804.684570	586.800000
804.720215	584.400000
804.755920	582.600000
804.791565	573.300000
804.827209	581.200000
804.862854	572.800000
804.898437	564.000000
804.934143	571.100000
804.969788	572.300000
805.005371	573.200000
805.041077	575.000000
805.076721	573.100000
805.112305	561.900000
805.147949	562.700000
805.183655	558.000000
805.219238	565.700000
805.254883	562.300000
805.290466	568.000000
805.326111	559.200000
805.361755	548.700000
805.397400	552.900000
805.432983	555.500000
805.468628	552.200000
805.504211	559.700000
805.539856	556.900000
805.575500	561.300000
805.611084	549.500000
805.646729	538.900000
805.682373	540.300000
805.717957	554.200000
805.753601	555.800000
805.789246	536.500000
805.824768	551.000000
805.860413	550.900000
805.895996	538.700000
805.931641	538.800000
805.967224	545.400000
806.002869	533.500000
806.038452	545.600000
806.074036	542.300000
806.109619	529.300000
806.145264	530.600000
806.180847	528.400000
806.216431	529.200000
806.252014	532.700000
806.287659	529.400000
806.323181	536.700000
806.358826	528.200000
806.394409	511.500000
806.429993	514.000000
806.465576	529.700000
806.501160	510.900000
806.536743	504.800000
806.572327	515.000000
806.607910	512.800000
806.643494	510.800000
806.679077	506.800000
806.714661	508.700000
806.750244	509.000000
806.785828	500.700000
806.821350	504.100000
806.856934	505.000000
806.892517	499.700000
806.928101	494.600000
806.963684	495.600000
806.999268	504.300000
807.034790	485.900000
807.070374	492.200000
807.105896	486.100000
807.141479	481.400000
807.177063	490.300000
807.212585	478.400000
807.248169	480.800000
807.283752	485.400000
807.319275	476.100000
807.354858	479.000000
807.390381	474.800000
807.425903	476.000000
807.461487	471.400000
807.497070	461.700000
807.532593	467.400000
807.568115	465.000000
807.603699	461.400000
807.639221	455.500000
807.674744	457.500000
807.710266	461.500000
807.745850	465.200000
807.781372	455.600000
807.816895	454.000000
807.852417	456.700000
807.888000	454.200000
807.923523	449.600000
807.959045	454.900000
807.994629	443.100000
808.030090	443.900000
808.065613	449.100000
808.101135	450.700000
808.136658	445.200000
808.172241	444.600000
808.207764	440.500000
808.243225	435.600000
808.278809	432.400000
808.314270	441.800000
808.349792	430.600000
808.385315	429.300000
808.420837	433.800000
808.456360	440.400000
808.491882	437.000000
808.527344	430.600000
808.562866	441.200000
808.598389	430.700000
808.633850	425.200000
808.669434	422.000000
808.704895	430.800000
808.740417	435.100000
808.775940	427.900000
808.811462	420.100000
808.846924	414.600000
808.882385	408.200000
808.917847	408.600000
808.953369	411.200000
808.988892	405.700000
809.024353	413.600000
809.059875	410.600000
809.095398	406.300000
809.130798	400.300000
809.166321	398.600000
809.201843	399.800000
809.237305	402.900000
809.272766	408.000000
809.308228	392.400000
809.343750	394.500000
809.379211	394.000000
809.414734	396.700000
809.450134	402.800000
809.485657	384.400000
809.521118	393.600000
809.556580	393.300000
809.592102	386.800000
809.627502	387.800000
809.663025	384.300000
809.698486	380.100000
809.733887	374.800000
809.769409	378.600000
809.804871	368.400000
809.840271	372.100000
809.875793	375.500000
809.911194	378.300000
809.946655	371.800000
809.982178	364.000000
810.017639	372.800000
810.053040	369.900000
810.088501	367.700000
810.123901	366.500000
810.159424	361.800000
810.194885	355.500000
810.230286	359.200000
810.265747	357.200000
810.301208	354.100000
810.336609	358.200000
810.372070	351.300000
810.407532	354.100000
810.442932	354.000000
810.478394	357.700000
810.513794	354.400000
810.549255	350.400000
810.584717	348.300000
810.620117	341.200000
810.655518	351.200000
810.690979	349.000000
810.726379	348.600000
810.761841	335.400000
810.797302	338.300000
810.832642	336.000000
810.868103	347.000000
810.903564	336.500000
810.938904	344.800000
810.974365	330.200000
811.009827	336.300000
811.045166	331.700000
811.080627	324.100000
811.115967	329.500000
811.151428	339.500000
811.186829	328.700000
811.222229	331.700000
811.257629	323.600000
811.293091	330.300000
811.328430	335.600000
811.363892	332.000000
811.399292	330.800000
811.434631	324.100000
811.470093	331.400000
811.505493	321.800000
811.540833	323.700000
811.576294	328.400000
811.611694	323.800000
811.647034	318.200000
811.682434	321.600000
811.717773	321.600000
811.753235	326.800000
811.788635	318.900000
811.823975	319.100000
811.859375	326.800000
811.894775	314.600000
811.930115	316.200000
811.965515	315.500000
812.000916	320.400000
812.036255	314.500000
812.071655	319.200000
812.106995	311.500000
812.142395	310.800000
812.177795	317.900000
812.213196	316.700000
812.248474	316.900000
812.283875	304.300000
812.319214	310.900000
812.354614	309.000000
812.390015	308.600000
812.425293	307.200000
812.460693	309.400000
812.496094	303.200000
812.531433	298.900000
812.566772	299.800000
812.602173	302.700000
812.637451	302.200000
812.672852	296.400000
812.708191	303.500000
812.743530	297.700000
812.778931	289.200000
812.814270	293.100000
812.849609	302.200000
812.884949	295.000000
812.920227	287.700000
812.955627	306.000000
812.990967	295.100000
813.026306	291.500000
813.061646	281.300000
813.096985	279.000000
813.132324	277.000000
813.167664	282.600000
813.203003	287.800000
813.238281	274.200000
813.273682	275.700000
813.308960	272.900000
813.344299	274.900000
813.379639	284.500000
813.414978	276.300000
813.450256	274.400000
813.485596	280.300000
813.520874	271.400000
813.556213	277.100000
813.591614	278.200000
813.626831	270.400000
813.662170	274.800000
813.697510	285.100000
813.732788	265.400000
813.768127	273.800000
813.803467	273.500000
813.838745	267.400000
813.874084	272.100000
813.909363	271.400000
813.944641	271.600000
813.979980	262.800000
814.015320	266.000000
814.050598	263.900000
814.085876	268.600000
814.121155	265.500000
814.156494	263.500000
814.191772	264.600000
814.227051	260.500000
814.262390	262.800000
814.297668	261.700000
814.332947	264.800000
814.368225	256.200000
814.403564	262.200000
814.438782	257.000000
814.474121	259.600000
814.509338	254.800000
814.544617	265.000000
814.579956	252.900000
814.615173	264.800000
814.650513	261.800000
814.685791	254.200000
814.721008	256.900000
814.756348	257.800000
814.791626	251.600000
814.826843	252.700000
814.862122	255.300000
814.897400	250.600000
814.932678	254.800000
814.967957	253.100000
815.003235	251.800000
815.038452	245.300000
815.073730	244.100000
815.108948	254.300000
815.144226	250.100000
815.179504	253.300000
815.214722	240.900000
815.250000	240.000000
815.285278	248.400000
815.320496	240.600000
815.355774	244.400000
815.391052	247.000000
815.426270	243.400000
815.461487	241.400000
815.496765	236.800000
815.531982	233.000000
815.567261	239.000000
815.602539	246.600000
815.637695	241.500000
815.672974	243.200000
815.708191	243.300000
815.743408	244.300000
815.778687	237.300000
815.813904	246.100000
815.849121	230.700000
815.884399	232.100000
815.919556	233.900000
815.954834	231.000000
815.990051	235.700000
816.025269	241.900000
816.060486	231.500000
816.095703	230.000000
816.130920	235.100000
816.166199	228.600000
816.201416	232.700000
816.236572	237.900000
816.271851	230.700000
816.307007	237.400000
816.342224	228.700000
816.377441	229.500000
816.412659	223.300000
816.447876	235.300000
816.483093	228.400000
816.518250	229.600000
816.553467	227.200000
816.588745	231.800000
816.623901	223.900000
816.659119	217.800000
816.694275	224.300000
816.729492	220.900000
816.764709	256.700000
816.799927	218.700000
816.835083	223.900000
816.870300	218.200000
816.905457	221.900000
816.940674	226.500000
816.975830	216.800000
817.010986	216.300000
817.046204	217.800000
817.081421	216.400000
817.116577	214.900000
817.151733	224.200000
817.186951	224.800000
817.222107	221.100000
817.257324	222.600000
817.292419	220.900000
817.327637	211.500000
817.362854	217.900000
817.398010	211.600000
817.433167	215.000000
817.468323	212.800000
817.503479	213.800000
817.538635	221.200000
817.573853	218.600000
817.608948	214.600000
817.644165	212.000000
817.679321	209.900000
817.714478	208.900000
817.749634	214.200000
817.784790	226.800000
817.819946	220.900000
817.855103	203.400000
817.890198	209.900000
817.925415	204.800000
817.960571	213.900000
817.995667	211.100000
818.030823	214.700000
818.066040	206.900000
818.101135	212.600000
818.136292	210.200000
818.171448	203.600000
818.206543	209.700000
818.241699	214.800000
818.276855	210.400000
818.311951	210.200000
818.347107	204.400000
818.382263	212.100000
818.417358	215.900000
818.452515	216.800000
818.487610	216.200000
818.522766	206.700000
818.557922	216.200000
818.593018	212.800000
818.628113	208.700000
818.663269	206.000000
818.698364	207.900000
818.733521	206.700000
818.768677	209.900000
818.803711	201.700000
818.838867	203.300000
818.874023	206.300000
818.909058	203.000000
818.944214	203.500000
818.979370	209.000000
819.014404	207.200000
819.049561	202.000000
819.084595	208.300000
819.119751	197.800000
819.154846	208.100000
819.189941	201.900000
819.225037	198.200000
819.260193	192.700000
819.295227	197.700000
819.330322	192.000000
819.365479	195.200000
819.400513	226.200000
819.435608	191.600000
819.470764	189.900000
819.505798	195.000000
819.540894	195.000000
819.575989	195.800000
819.611084	204.200000
819.646179	205.900000
819.681213	199.600000
819.716309	198.000000
819.751404	197.100000
819.786438	203.100000
819.821533	195.000000
819.856628	200.400000
819.891663	203.700000
819.926758	208.800000
819.961853	204.800000
819.996887	194.000000
820.031982	203.900000
820.067017	197.500000
820.102112	227.000000
820.137207	195.800000
820.172302	214.200000
820.207275	193.700000
820.242371	196.200000
820.277405	194.800000
820.312500	198.200000
820.347534	198.900000
820.382568	203.000000
820.417664	194.300000
820.452759	195.500000
820.487732	192.900000
820.522827	195.900000
820.557861	190.600000
820.592896	195.800000
820.627930	194.500000
820.662964	192.700000
820.698059	197.000000
820.733093	195.200000
820.768127	198.100000
820.803162	195.300000
820.838196	192.400000
820.873230	195.500000
820.908264	194.500000
820.943298	192.700000
820.978333	200.000000
821.013367	194.600000
821.048401	198.600000
821.083435	201.000000
821.118469	186.200000
821.153503	199.400000
821.188477	197.200000
821.223511	187.800000
821.258484	194.100000
821.293579	196.900000
821.328613	187.000000
821.363647	194.200000
821.398621	189.300000
821.433655	190.300000
821.468628	207.900000
821.503662	193.600000
821.538696	196.400000
821.573669	189.300000
821.608704	198.600000
821.643677	192.000000
821.678650	198.600000
821.713684	203.300000
821.748718	191.900000
821.783691	192.700000
821.818726	196.300000
821.853638	196.000000
821.888672	194.800000
821.923706	194.000000
821.958618	192.100000
821.993652	191.500000
822.028687	198.700000
822.063599	201.100000
822.098633	196.500000
822.133667	189.100000
822.168579	193.300000
822.203613	193.900000
822.238586	191.500000
822.273560	196.100000
822.308533	191.600000
822.343567	190.300000
822.378479	192.900000
822.413452	191.300000
822.448425	188.500000
822.483398	197.700000
822.518372	198.800000
822.553345	189.000000
822.588318	201.400000
822.623291	190.400000
822.658203	191.400000
822.693237	193.700000
822.728210	188.900000
822.763123	194.600000
822.798096	188.500000
822.833069	192.000000
822.867981	193.500000
822.902954	195.600000
822.937927	196.800000
822.972900	205.500000
823.007874	186.600000
823.042725	196.600000
823.077698	206.500000
823.112671	188.300000
823.147583	191.900000
823.182556	196.700000
823.217529	198.900000
823.252441	192.700000
823.287415	206.100000
823.322388	195.700000
823.357239	193.800000
823.392212	200.800000
823.427185	198.600000
823.462097	189.800000
823.497009	198.100000
823.531982	191.300000
823.566895	193.200000
823.601807	190.400000
823.636719	192.700000
823.671631	198.200000
823.706604	190.300000
823.741455	195.900000
823.776428	186.100000
823.811340	198.600000
823.846252	199.400000
823.881165	201.100000
823.916138	194.500000
823.950989	204.400000
823.985901	188.500000
824.020813	193.300000
824.055725	190.200000
824.090637	189.800000
824.125610	194.200000
824.160461	194.600000
824.195374	195.800000
824.230225	198.400000
824.265198	184.800000
824.300110	189.900000
824.334961	203.900000
824.369873	183.300000
824.404785	194.300000
824.439636	200.100000
824.474548	184.000000
824.509460	183.800000
824.544312	196.600000
824.579224	196.200000
824.614075	195.800000
824.648987	192.100000
824.683899	191.100000
824.718811	191.000000
824.753662	201.000000
824.788574	198.200000
824.823364	195.200000
824.858276	190.600000
824.893188	198.700000
824.928040	201.000000
824.962952	196.900000
824.997803	197.600000
825.032654	194.500000
825.067566	197.300000
825.102417	191.500000
825.137268	193.000000
825.172119	194.900000
825.206970	191.100000
825.241882	192.100000
825.276733	189.600000
825.311646	190.000000
825.346436	187.000000
825.381348	189.400000
825.416138	192.100000
825.450989	189.900000
825.485901	182.800000
825.520691	186.100000
825.555542	185.900000
825.590454	195.300000
825.625244	184.400000
825.660095	199.600000
825.695007	195.700000
825.729797	192.200000
825.764648	188.500000
825.799438	193.000000
825.834290	192.400000
825.869202	186.000000
825.903992	192.100000
825.938843	188.700000
825.973694	185.900000
826.008484	204.500000
826.043335	187.600000
826.078186	184.500000
826.112976	198.100000
826.147827	196.300000
826.182678	200.800000
826.217468	184.700000
826.252319	197.100000
826.287109	189.200000
826.321899	201.200000
826.356750	189.600000
826.391541	187.500000
826.426392	198.700000
826.461182	190.900000
826.495972	188.600000
826.530823	184.000000
826.565613	193.800000
826.600403	188.700000
826.635254	195.200000
826.670044	185.000000
826.704834	184.700000
826.739685	189.900000
826.774475	193.700000
826.809265	192.900000
826.844055	189.100000
826.878906	199.400000
826.913635	192.600000
826.948425	194.200000
826.983215	192.500000
827.018005	197.200000
827.052856	190.000000
827.087585	196.000000
827.122375	183.300000
827.157227	191.600000
827.191956	202.600000
827.226746	188.400000
827.261536	194.600000
827.296265	186.000000
827.331116	187.400000
827.365906	194.900000
827.400635	187.300000
827.435425	183.100000
827.470215	197.900000
827.504944	190.500000
827.539734	195.500000
827.574463	190.900000
827.609253	198.800000
827.644043	192.900000
827.678772	197.400000
827.713562	188.700000
827.748352	189.300000
827.783081	188.800000
827.817871	192.600000
827.852600	187.300000
827.887329	192.600000
827.922119	182.200000
827.956848	194.600000
827.991638	206.600000
828.026367	192.300000
828.061157	192.200000
828.095886	191.900000
828.130615	207.400000
828.165344	182.200000
828.200073	192.800000
828.234863	189.400000
828.269592	191.900000
828.304321	198.600000
828.339111	192.600000
828.373779	188.500000
828.408569	197.100000
828.443298	196.400000
828.477966	190.100000
828.512756	194.400000
828.547424	186.600000
828.582214	192.200000
828.616943	189.300000
828.651672	191.000000
828.686340	194.200000
828.721130	189.700000
828.755798	189.100000
828.790527	193.500000
828.825256	193.200000
828.859924	192.000000
828.894714	197.900000
828.929443	201.500000
828.964111	186.700000
828.998840	194.500000
829.033569	188.000000
829.068237	189.900000
829.102966	187.500000
829.137634	192.400000
829.172363	192.600000
829.207092	193.100000
829.241821	186.700000
829.276489	184.200000
829.311157	191.300000
829.345825	190.000000
829.380554	195.600000
829.415283	187.100000
829.449951	185.500000
829.484619	200.200000
829.519348	197.600000
829.554016	191.900000
829.588745	190.700000
829.623413	186.000000
829.658081	203.400000
829.692749	185.000000
829.727417	196.300000
829.762146	193.400000
829.796814	186.800000
829.831482	189.900000
829.866150	194.100000
829.900879	189.500000
829.935486	194.900000
829.970154	189.500000
830.004883	202.400000
830.039490	193.700000
830.074219	189.700000
830.108887	191.600000
830.143494	191.500000
830.178223	187.000000
830.212891	189.600000
830.247498	190.900000
830.282166	200.000000
830.316772	196.000000
830.351501	189.000000
830.386169	189.300000
830.420776	190.000000
830.455444	191.200000
830.490112	189.500000
830.524719	183.700000
830.559387	194.400000
830.594055	194.700000
830.628662	192.800000
830.663330	189.900000
830.697998	200.900000
830.732605	189.100000
830.767273	194.900000
830.801941	189.700000
830.836487	200.800000
830.871155	191.500000
830.905762	194.200000
830.940430	183.600000
830.975098	189.000000
831.009644	190.400000
831.044312	199.400000
831.078979	193.700000
831.113525	183.100000
831.148193	192.200000
831.182861	191.200000
831.217407	193.200000
831.252075	209.500000
831.286621	187.600000
831.321289	188.100000
831.355896	190.300000
831.390564	199.300000
831.425110	192.200000
831.459778	199.300000
831.494324	204.600000
831.528931	196.500000
831.563599	194.000000
831.598145	185.500000
831.632751	191.700000
831.667419	190.700000
831.701965	195.100000
831.736572	194.400000
831.771179	186.200000
831.805786	189.700000
831.840393	199.200000
831.874939	183.600000
831.909546	197.800000
831.944153	183.000000
831.978760	190.900000
832.013306	186.600000
832.047913	200.100000
832.082458	200.900000
832.117065	187.900000
832.151672	200.200000
832.186218	194.200000
832.220825	194.300000
832.255432	183.400000
832.289978	186.300000
832.324585	195.600000
832.359192	194.300000
832.393677	189.000000
832.428284	191.900000
832.462830	190.300000
832.497437	189.400000
832.531982	194.800000
832.566589	189.000000
832.601135	192.200000
832.635681	182.500000
832.670227	191.600000
832.704773	198.000000
832.739380	193.400000
832.773926	191.200000
832.808472	187.100000
832.843079	190.400000
832.877563	194.900000
832.912170	187.900000
832.946716	184.100000
832.981201	197.600000
833.015808	194.600000
833.050293	191.500000
833.084839	188.700000
833.119446	189.700000
833.153992	196.100000
833.188477	191.700000
833.223022	188.000000
833.257568	194.400000
833.292114	197.800000
833.326660	204.100000
833.361145	188.300000
833.395691	184.500000
833.430237	191.300000
833.464783	195.700000
833.499329	188.100000
833.533875	186.500000
833.568359	193.300000
833.602905	196.600000
833.637390	195.600000
833.671875	188.700000
833.706421	189.000000
833.740906	188.900000
833.775452	182.500000
833.809998	189.300000
833.844482	197.600000
833.879028	190.700000
833.913513	188.800000
833.947998	194.800000
833.982544	186.400000
834.017090	188.300000
834.051514	179.000000
834.086060	194.400000
834.120544	190.900000
834.155029	193.600000
834.189575	189.600000
834.223999	194.100000
834.258545	191.500000
834.293030	192.000000
834.327515	191.300000
834.362000	187.500000
834.396545	194.900000
834.430969	190.600000
834.465454	194.400000
834.500000	182.300000
834.534424	194.200000
834.568970	181.200000
834.603455	182.000000
834.637878	188.200000
834.672363	191.000000
834.706909	191.000000
834.741333	191.000000
834.775818	184.500000
834.810242	186.600000
834.844727	193.200000
834.879211	190.500000
834.913635	192.100000
834.948181	194.100000
834.982666	193.000000
835.017090	190.900000
835.051575	194.600000
835.086060	189.600000
835.120483	195.800000
835.154907	196.000000
835.189331	191.300000
835.223816	194.500000
835.258301	184.800000
835.292786	187.400000
835.327209	195.900000
835.361694	188.200000
835.396057	187.000000
835.430542	196.000000
835.465027	191.700000
835.499390	186.500000
835.533875	210.300000
835.568359	188.500000
835.602722	183.100000
835.637207	192.500000
835.671692	185.200000
835.706055	208.400000
835.740540	191.300000
835.774902	194.400000
835.809387	190.500000
835.843811	185.400000
835.878235	199.200000
835.912659	185.300000
835.947083	186.700000
835.981506	191.000000
836.015930	182.900000
836.050354	197.500000
836.084778	201.300000
836.119202	196.800000
836.153625	203.300000
836.187988	188.600000
836.222473	187.100000
836.256897	193.300000
836.291260	190.900000
836.325684	194.400000
836.360046	188.400000
836.394470	190.800000
836.428894	197.600000
836.463318	188.300000
836.497681	197.300000
836.532104	198.400000
836.566467	193.200000
836.600891	191.200000
836.635315	198.500000
836.669678	194.500000
836.704102	197.000000
836.738525	193.500000
836.772888	186.000000
836.807251	187.300000
836.841675	194.100000
836.876038	185.500000
836.910461	187.500000
836.944763	194.300000
836.979187	188.600000
837.013611	196.200000
837.047974	186.000000
837.082336	202.600000
837.116699	194.900000
837.151062	190.500000
837.185486	184.600000
837.219849	188.500000
837.254211	195.900000
837.288574	188.900000
837.322937	186.600000
837.357300	177.000000
837.391663	203.800000
837.426086	195.700000
837.460388	191.400000
837.494751	194.100000
837.529114	189.600000
837.563477	194.900000
837.597839	192.500000
837.632141	190.400000
837.666565	187.100000
837.700928	192.600000
837.735229	196.100000
837.769592	193.200000
837.803955	196.500000
837.838257	190.300000
837.872620	189.100000
837.906982	198.700000
837.941284	192.100000
837.975647	191.000000
838.010010	200.200000
838.044312	190.400000
838.078674	189.400000
838.112976	193.700000
838.147339	196.500000
838.181702	191.900000
838.216003	202.400000
838.250366	194.900000
838.284668	193.900000
838.318970	185.300000
838.353333	191.200000
838.387634	191.700000
838.421936	192.300000
838.456299	192.700000
838.490601	199.100000
838.524902	196.100000
838.559265	195.300000
838.593567	196.200000
838.627869	185.300000
838.662170	193.800000
838.696472	184.900000
838.730774	188.600000
838.765137	195.700000
838.799377	177.800000
838.833740	191.100000
838.868042	199.100000
838.902283	183.000000
838.936646	198.600000
838.970947	192.800000
839.005188	197.000000
839.039551	182.800000
839.073792	197.700000
839.108093	188.600000
839.142395	201.000000
839.176697	183.300000
839.210937	192.700000
839.245300	203.300000
839.279541	185.300000
839.313843	189.300000
839.348145	194.900000
839.382385	195.000000
839.416687	196.800000
839.450989	194.500000
839.485229	191.600000
839.519531	187.100000
839.553833	198.200000
839.588013	192.700000
839.622314	192.700000
839.656555	193.900000
839.690857	191.400000
839.725159	185.300000
839.759460	192.000000
839.793640	190.300000
839.827942	192.400000
839.862183	187.800000
839.896423	193.500000
839.930725	201.400000
839.964966	198.500000
839.999207	199.500000
840.033508	199.700000
840.067688	189.300000
840.101990	199.700000
840.136230	192.900000
840.170471	199.800000
840.204712	187.400000
840.238953	186.700000
840.273193	194.400000
840.307434	195.300000
840.341736	188.100000
840.375916	185.500000
840.410217	190.700000
840.444397	196.600000
840.478638	194.600000
840.512878	197.600000
840.547119	192.800000
840.581360	192.300000
840.615601	201.300000
840.649780	198.800000
840.684021	191.400000
840.718262	197.700000
840.752441	197.800000
840.786682	190.800000
840.820862	193.800000
840.855103	198.000000
840.889343	192.000000
840.923584	196.600000
840.957764	193.700000
840.992004	192.400000
841.026184	206.600000
841.060425	188.900000
841.094666	188.800000
841.128845	195.900000
841.163025	193.200000
841.197266	196.000000
841.231445	194.100000
841.265686	191.700000
841.299866	189.200000
841.334045	201.500000
841.368286	190.500000
841.402405	200.300000
841.436646	196.600000
841.470825	190.600000
841.505005	190.900000
841.539185	188.200000
841.573425	188.300000
841.607544	193.100000
841.641785	193.200000
841.675964	188.700000
841.710144	193.700000
841.744324	190.800000
841.778503	191.700000
841.812683	188.100000
841.846863	200.400000
841.881042	200.900000
841.915222	188.600000
841.949402	207.700000
841.983521	183.500000
842.017700	191.700000
842.051880	192.000000
842.086060	195.200000
842.120239	193.500000
842.154419	189.600000
842.188538	192.600000
842.222717	189.000000
842.256897	201.500000
842.291016	191.700000
842.325195	193.800000
842.359375	202.800000
842.393494	198.400000
842.427673	193.300000
842.461853	194.800000
842.495911	200.800000
842.530090	194.000000
842.564209	192.300000
842.598389	193.900000
842.632568	193.400000
842.666626	196.700000
842.700806	187.600000
842.734985	190.000000
842.769043	195.800000
842.803223	190.300000
842.837402	192.600000
842.871460	190.300000
842.905640	201.700000
842.939697	188.200000
842.973877	195.300000
843.007996	197.800000
843.042175	203.400000
843.076233	190.500000
843.110413	194.200000
843.144470	200.700000
843.178589	196.200000
843.212769	190.300000
843.246826	197.800000
843.280945	191.000000
843.315125	190.500000
843.349182	189.400000
843.383301	199.400000
843.417419	206.600000
843.451538	192.600000
843.485657	191.500000
843.519714	190.900000
843.553833	196.600000
843.587952	189.100000
843.622070	188.300000
843.656128	195.100000
843.690247	191.800000
843.724304	190.100000
843.758423	194.700000
843.792542	189.000000
843.826599	193.200000
843.860718	189.700000
843.894836	186.800000
843.928894	191.700000
843.963013	194.000000
843.997070	188.600000
844.031128	185.600000
844.065247	196.400000
844.099304	198.200000
844.133362	193.200000
844.167480	195.000000
844.201599	199.500000
844.235596	194.700000
844.269714	192.600000
844.303711	195.700000
844.337830	183.300000
844.371948	196.200000
844.405945	192.000000
844.440063	188.300000
844.474121	207.300000
844.508118	191.300000
844.542236	191.400000
844.576294	192.100000
844.610352	188.500000
844.644409	193.300000
844.678406	184.900000
844.712524	197.100000
844.746582	199.700000
844.780640	192.100000
844.814636	194.200000
844.848755	205.500000
844.882751	193.000000
844.916809	198.600000
844.950867	195.300000
844.984863	200.200000
845.018921	192.900000
845.052979	189.200000
845.086975	194.200000
845.121033	185.700000
845.155090	189.100000
845.189087	199.100000
845.223145	189.900000
845.257141	192.200000
845.291199	196.500000
845.325256	198.900000
845.359253	193.500000
845.393250	201.000000
845.427307	192.200000
845.461304	193.800000
845.495361	193.300000
845.529358	202.400000
845.563354	189.100000
845.597412	186.600000
845.631409	201.100000
845.665405	200.300000
845.699463	197.800000
845.733459	190.800000
845.767456	199.500000
845.801453	190.100000
845.835449	200.000000
845.869446	195.400000
845.903503	197.300000
845.937439	188.600000
845.971497	198.800000
846.005493	185.300000
846.039429	197.700000
846.073486	202.000000
846.107483	191.900000
846.141418	192.700000
846.175476	193.400000
846.209473	198.900000
846.243408	189.700000
846.277405	194.500000
846.311401	188.300000
846.345337	194.800000
846.379395	198.000000
846.413330	191.300000
846.447327	201.100000
846.481323	188.600000
846.515259	190.900000
846.549255	195.400000
846.583252	195.100000
846.617187	188.100000
846.651184	195.400000
846.685120	191.100000
846.719055	201.100000
846.753052	198.000000
846.786987	197.600000
846.820984	188.200000
846.854980	197.700000
846.888916	188.400000
846.922852	193.900000
846.956848	201.300000
846.990723	187.900000
847.024719	193.900000
847.058716	189.500000
847.092590	201.400000
847.126587	193.900000
847.160522	191.700000
847.194458	195.400000
847.228455	189.400000
847.262390	187.300000
847.296265	191.600000
847.330261	199.400000
847.364136	191.300000
847.398132	188.000000
847.432068	193.300000
847.466003	191.800000
847.499939	191.700000
847.533875	194.600000
847.567749	190.700000
847.601746	190.600000
847.635681	198.000000
847.669556	184.700000
847.703491	198.800000
847.737427	207.600000
847.771301	188.400000
847.805237	193.100000
847.839233	193.900000
847.873108	193.100000
847.907043	192.600000
847.940918	199.600000
847.974854	196.600000
848.008789	197.300000
848.042664	193.200000
848.076538	197.600000
848.110474	193.600000
848.144348	195.600000
848.178284	186.600000
848.212219	193.300000
848.246094	191.600000
848.279968	194.300000
848.313904	195.900000
848.347778	194.800000
848.381653	191.400000
848.415588	189.700000
848.449463	189.800000
848.483337	196.900000
848.517212	199.600000
848.551086	194.000000
848.585022	188.400000
848.618835	202.200000
848.652771	190.100000
848.686646	188.300000
848.720520	201.400000
848.754395	192.400000
848.788330	196.600000
848.822144	198.500000
848.856018	191.400000
848.889954	203.700000
848.923767	188.100000
848.957642	188.300000
848.991577	197.400000
849.025391	189.200000
849.059265	191.500000
849.093079	189.200000
849.126953	186.200000
849.160828	199.600000
849.194641	194.600000
849.228577	190.700000
849.262451	190.800000
849.296265	190.300000
849.330139	187.700000
849.364014	194.700000
849.397827	197.100000
849.431702	194.400000
849.465515	198.000000
849.499329	184.500000
849.533203	188.500000
849.567078	183.100000
849.600891	197.300000
849.634766	193.500000
849.668518	199.500000
849.702393	194.400000
849.736267	186.800000
849.770020	204.900000
849.803894	198.700000
849.837769	194.300000
849.871521	194.500000
849.905396	198.200000
849.939270	189.000000
849.973022	190.100000
850.006897	197.500000
850.040710	197.100000
850.074524	197.900000
850.108337	191.400000
850.142151	197.100000
850.175964	199.300000
850.209778	192.400000
850.243530	180.400000
850.277405	198.100000
850.311218	191.600000
850.344971	190.500000
850.378845	199.900000
850.412659	191.200000
850.446411	192.100000
850.480225	191.900000
850.514038	198.500000
850.547791	195.400000
850.581665	191.600000
850.615417	191.000000
850.649231	192.800000
850.683044	192.200000
850.716858	191.700000
850.750610	192.600000
850.784424	196.400000
850.818176	190.100000
850.851929	190.300000
850.885742	190.700000
850.919495	193.400000
850.953308	198.800000
850.987122	199.600000
851.020874	187.200000
851.054626	184.800000
851.088440	197.700000
851.122192	197.600000
851.156006	194.700000
851.189697	192.200000
851.223511	187.700000
851.257263	198.200000
851.291077	195.800000
851.324829	192.100000
851.358582	191.100000
851.392334	192.000000
851.426086	191.600000
851.459900	202.200000
851.493591	193.200000
851.527344	194.700000
851.561157	192.800000
851.594849	196.600000
851.628662	194.200000
851.662415	203.600000
851.696106	195.200000
851.729858	198.300000
851.763611	187.500000
851.797363	195.700000
851.831116	187.400000
851.864868	196.100000
851.898560	195.900000
851.932312	190.300000
851.966064	195.600000
851.999817	193.200000
852.033569	192.400000
852.067261	196.900000
852.101013	188.000000
852.134766	192.800000
852.168457	182.700000
852.202209	197.000000
852.235901	189.000000
852.269592	196.200000
852.303345	201.500000
852.337036	197.700000
852.370789	191.900000
852.404541	198.500000
852.438171	188.600000
852.471924	192.400000
852.505676	187.400000
852.539307	196.600000
852.573059	188.500000
852.606812	192.500000
852.640442	191.000000
852.674194	198.900000
852.707886	204.600000
852.741577	201.800000
852.775269	187.400000
852.809021	195.400000
852.842651	197.700000
852.876404	198.600000
852.910034	193.800000
852.943787	200.100000
852.977478	196.900000
853.011108	190.600000
853.044861	192.300000
853.078552	201.000000
853.112183	196.400000
853.145874	195.100000
853.179626	185.600000
853.213257	194.100000
853.246948	191.500000
853.280640	202.600000
853.314270	193.200000
853.347961	199.700000
853.381653	197.500000
853.415283	196.100000
853.448975	190.700000
853.482605	195.300000
853.516296	193.300000
853.549988	185.900000
853.583618	194.700000
853.617310	194.600000
853.651001	195.000000
853.684631	187.400000
853.718323	190.300000
853.751953	199.800000
853.785583	183.800000
853.819275	197.200000
853.852966	194.000000
853.886536	184.000000
853.920227	187.900000
853.953918	198.700000
853.987488	192.000000
854.021179	197.400000
854.054749	202.000000
854.088440	194.700000
854.122131	189.200000
854.155701	197.000000
854.189331	190.000000
854.223022	196.900000
854.256592	196.000000
854.290283	189.200000
854.323914	197.700000
854.357483	196.300000
854.391174	196.400000
854.424744	204.700000
854.458374	195.400000
854.492065	206.400000
854.525696	193.200000
854.559265	200.100000
854.592896	205.500000
854.626465	194.800000
854.660095	194.200000
854.693787	195.900000
854.727356	192.600000
854.760986	197.900000
854.794617	194.600000
854.828186	192.800000
854.861816	195.500000
854.895447	195.700000
854.929016	194.300000
854.962585	196.200000
854.996155	201.500000
855.029785	195.700000
855.063416	195.800000
855.097046	198.900000
855.130615	186.700000
855.164185	199.800000
855.197754	192.100000
855.231384	198.300000
855.264954	192.000000
855.298523	197.000000
855.332153	194.300000
855.365723	202.000000
855.399292	188.200000
855.432922	193.300000
855.466492	196.600000
855.500061	189.500000
855.533630	189.500000
855.567200	198.200000
855.600769	198.000000
855.634338	199.900000
855.667969	195.300000
855.701477	190.700000
855.735046	189.300000
855.768616	186.400000
855.802185	194.200000
855.835754	210.100000
855.869324	186.800000
855.902893	192.800000
855.936401	201.500000
855.969971	196.000000
856.003540	185.700000
856.037109	198.800000
856.070618	195.700000
856.104187	189.300000
856.137695	192.100000
856.171265	184.400000
856.204834	194.300000
856.238403	198.400000
856.271912	192.700000
856.305481	196.200000
856.338989	187.500000
856.372559	197.900000
856.406128	196.500000
856.439636	197.600000
856.473145	191.700000
856.506653	200.200000
856.540222	196.200000
856.573792	201.900000
856.607300	199.100000
856.640808	188.200000
856.674377	195.700000
856.707825	221.900000
856.741394	197.900000
856.774902	189.400000
856.808472	185.600000
856.841980	197.000000
856.875488	201.800000
856.908936	185.800000
856.942505	192.500000
856.976013	192.800000
857.009521	188.900000
857.043030	193.400000
857.076477	193.000000
857.110046	197.400000
857.143555	195.700000
857.177063	198.900000
857.210571	190.200000
857.244080	187.300000
857.277527	196.900000
857.311035	192.700000
857.344543	198.700000
857.378052	192.700000
857.411499	199.000000
857.445068	204.200000
857.478516	193.200000
857.512024	187.700000
857.545532	192.300000
857.578979	197.000000
857.612427	194.400000
857.645874	191.600000
857.679382	193.700000
857.712891	197.600000
857.746399	194.200000
857.779846	199.100000
857.813354	198.700000
857.846741	195.500000
857.880249	189.200000
857.913757	197.100000
857.947266	195.100000
857.980652	198.000000
858.014160	191.400000
858.047546	192.900000
858.081055	192.400000
858.114563	203.400000
858.147949	186.600000
858.181458	197.300000
858.214844	192.000000
858.248352	184.400000
858.281799	198.800000
858.315308	206.600000
858.348694	195.300000
858.382141	201.900000
858.415588	195.200000
858.449036	198.400000
858.482483	195.700000
858.515930	189.900000
858.549377	192.400000
858.582825	201.900000
858.616211	196.100000
858.649658	195.400000
858.683105	187.800000
858.716553	189.800000
858.750000	187.300000
858.783386	192.500000
858.816833	184.800000
858.850281	194.800000
858.883728	196.400000
858.917114	193.200000
858.950562	201.600000
858.983948	203.200000
859.017395	197.800000
859.050781	193.600000
859.084167	190.900000
859.117615	186.900000
859.151062	197.000000
859.184448	189.200000
859.217834	191.700000
859.251282	192.300000
859.284668	189.200000
859.318054	184.300000
859.351440	190.900000
859.384888	202.500000
859.418274	186.700000
859.451721	185.200000
859.485046	197.900000
859.518494	195.300000
859.551819	191.100000
859.585266	196.200000
859.618652	196.900000
859.652039	187.200000
859.685425	189.200000
859.718811	186.400000
859.752197	183.900000
859.785583	200.800000
859.819031	201.900000
859.852356	195.900000
859.885742	191.300000
859.919067	192.600000
859.952454	191.300000
859.985901	197.900000
860.019287	191.700000
860.052612	0.000000
860.085999	0.000000
860.119324	0.000000
860.152710	0.000000
860.186096	0.000000
860.219421	0.000000
860.252808	0.000000
860.286133	0.000000
860.319519	0.000000
860.352905	0.000000
860.386292	0.000000
860.419617	0.000000
860.452942	0.000000
860.486267	0.000000
860.519653	0.000000
860.553040	0.000000
860.586365	0.000000
860.619690	0.000000
860.653076	0.000000
860.686340	0.000000
860.719727	0.000000
860.753113	0.000000
860.786377	0.000000
860.819763	0.000000
860.853027	0.000000
860.886414	0.000000
860.919739	0.000000
860.953125	0.000000
860.986389	0.000000
861.019714	0.000000
861.053040	0.000000
861.086365	0.000000
861.119690	0.000000
861.153076	0.000000
861.186340	0.000000
861.219666	0.000000
861.252930	0.000000
861.286316	0.000000
861.319641	0.000000
861.352905	0.000000
861.386230	0.000000
861.419495	0.000000
861.452820	0.000000
861.486145	0.000000
861.519470	0.000000
861.552734	0.000000
861.586060	0.000000
861.619324	0.000000
861.652649	0.000000
861.685974	0.000000
861.719238	0.000000
861.752563	0.000000
861.785828	0.000000
861.819092	0.000000
861.852417	0.000000
861.885742	0.000000
861.918945	0.000000
861.952271	0.000000
861.985535	0.000000
862.018799	0.000000
862.052124	0.000000
862.085449	0.000000
862.118652	0.000000
862.151978	0.000000
862.185181	0.000000
862.218506	0.000000
862.251770	0.000000
862.285034	0.000000
862.318298	0.000000
862.351562	0.000000
862.384827	0.000000
862.418091	0.000000
862.451355	0.000000
862.484619	0.000000
862.517883	0.000000
862.551086	0.000000
862.584351	0.000000
862.617676	0.000000
862.650940	0.000000
862.684143	0.000000
862.717407	0.000000
862.750610	0.000000
862.783875	0.000000
862.817139	0.000000
862.850342	0.000000
862.883606	0.000000
862.916870	0.000000
862.950073	0.000000
862.983337	0.000000
863.016602	0.000000
863.049805	0.000000
863.083069	0.000000
863.116211	0.000000
863.149475	0.000000
863.182739	0.000000
863.216003	0.000000
863.249146	0.000000
863.282410	0.000000
863.315613	0.000000
863.348816	0.000000
863.382080	0.000000
863.415222	0.000000
863.448486	0.000000
863.481689	0.000000
863.514893	0.000000
863.548157	0.000000
863.581360	0.000000
863.614502	0.000000
863.647766	0.000000
863.680908	0.000000
863.714172	0.000000
863.747375	0.000000
863.780579	0.000000
863.813721	0.000000
863.846985	0.000000
863.880127	0.000000
863.913330	0.000000
863.946533	0.000000
863.979675	0.000000
864.012939	0.000000
