Model Number: SPM-001-M   
Serial Number: 10090201
Firmware Version: 004.17.6
Exposure Time: 500000.000000us
Data Taken on: 10-03-2021 12:32:46.954
Wavelength	Amplitude
733.770752	0.000000
733.808716	0.000000
733.846619	0.000000
733.884583	0.000000
733.922546	0.000000
733.960449	0.000000
733.998413	0.000000
734.036377	0.000000
734.074219	0.000000
734.112183	0.000000
734.150085	0.000000
734.188049	0.000000
734.226013	0.000000
734.263916	0.000000
734.301819	0.000000
734.339783	0.000000
734.377686	0.000000
734.415588	0.000000
734.453552	0.000000
734.491455	0.000000
734.529419	0.000000
734.567322	0.000000
734.605225	0.000000
734.643127	0.000000
734.681091	0.000000
734.718994	0.000000
734.756897	0.000000
734.794800	0.000000
734.832703	0.000000
734.870667	0.000000
734.908508	0.000000
734.946472	0.000000
734.984375	0.000000
735.022278	0.000000
735.060181	0.000000
735.098083	0.000000
735.135986	0.000000
735.173889	0.000000
735.211792	0.000000
735.249695	0.000000
735.287598	0.000000
735.325439	0.000000
735.363403	0.000000
735.401306	0.000000
735.439148	0.000000
735.477051	0.000000
735.515015	0.000000
735.552856	0.000000
735.590759	0.000000
735.628662	0.000000
735.666504	0.000000
735.704407	0.000000
735.742310	0.000000
735.780212	0.000000
735.818115	0.000000
735.856018	0.000000
735.893860	0.000000
735.931763	0.000000
735.969604	0.000000
736.007507	0.000000
736.045410	0.000000
736.083252	0.000000
736.121094	0.000000
736.158997	0.000000
736.196838	0.000000
736.234741	0.000000
736.272644	0.000000
736.310486	0.000000
736.348389	0.000000
736.386230	0.000000
736.424072	0.000000
736.461975	0.000000
736.499878	0.000000
736.537720	0.000000
736.575562	0.000000
736.613403	0.000000
736.651306	0.000000
736.689148	0.000000
736.726990	0.000000
736.764893	0.000000
736.802734	0.000000
736.840576	0.000000
736.878418	0.000000
736.916321	0.000000
736.954102	0.000000
736.992004	0.000000
737.029846	0.000000
737.067688	0.000000
737.105530	0.000000
737.143372	0.000000
737.181213	0.000000
737.219116	0.000000
737.256897	0.000000
737.294739	0.000000
737.332642	0.000000
737.370422	0.000000
737.408325	0.000000
737.446167	0.000000
737.483948	0.000000
737.521790	0.000000
737.559692	0.000000
737.597473	0.000000
737.635315	0.000000
737.673157	0.000000
737.710999	0.000000
737.748840	0.000000
737.786621	0.000000
737.824463	0.000000
737.862305	0.000000
737.900085	0.000000
737.937927	0.000000
737.975769	0.000000
738.013550	0.000000
738.051392	0.000000
738.089233	0.000000
738.127014	0.000000
738.164856	0.000000
738.202698	0.000000
738.240479	0.000000
738.278320	0.000000
738.316162	0.000000
738.353943	0.000000
738.391785	0.000000
738.429565	0.000000
738.467407	0.000000
738.505188	0.000000
738.542969	0.000000
738.580811	0.000000
738.618652	0.000000
738.656372	0.000000
738.694214	0.000000
738.732056	0.000000
738.769836	0.000000
738.807617	0.000000
738.845459	0.000000
738.883240	0.000000
738.921021	0.000000
738.958862	0.000000
738.996582	0.000000
739.034424	0.000000
739.072205	0.000000
739.109985	0.000000
739.147827	0.000000
739.185547	0.000000
739.223389	0.000000
739.261169	0.000000
739.298889	0.000000
739.336731	0.000000
739.374512	0.000000
739.412292	0.000000
739.450073	0.000000
739.487854	0.000000
739.525635	0.000000
739.563416	0.000000
739.601135	0.000000
739.638977	0.000000
739.676758	0.000000
739.714478	0.000000
739.752258	0.000000
739.790100	0.000000
739.827820	0.000000
739.865601	0.000000
739.903381	0.000000
739.941101	0.000000
739.978882	196.100000
740.016724	191.000000
740.054443	196.400000
740.092224	189.400000
740.130005	188.100000
740.167725	190.300000
740.205505	188.300000
740.243225	199.800000
740.281006	192.900000
740.318787	185.800000
740.356506	198.900000
740.394287	196.700000
740.432068	187.300000
740.469727	185.600000
740.507507	195.200000
740.545288	193.100000
740.583008	195.300000
740.620789	193.700000
740.658569	183.600000
740.696228	192.600000
740.734009	198.700000
740.771790	181.300000
740.809509	196.300000
740.847229	187.200000
740.884949	189.000000
740.922729	185.100000
740.960449	191.700000
740.998169	185.700000
741.035950	188.100000
741.073669	193.500000
741.111389	191.700000
741.149170	202.600000
741.186890	202.800000
741.224609	195.500000
741.262329	194.000000
741.300110	201.600000
741.337769	187.400000
741.375549	186.800000
741.413208	193.700000
741.450989	188.800000
741.488708	190.700000
741.526367	190.200000
741.564148	196.500000
741.601868	196.100000
741.639526	191.800000
741.677307	193.600000
741.715027	194.100000
741.752686	188.400000
741.790466	200.900000
741.828186	196.200000
741.865845	187.300000
741.903564	183.000000
741.941345	191.700000
741.979004	186.900000
742.016724	196.800000
742.054382	192.400000
742.092102	198.600000
742.129822	184.500000
742.167480	190.700000
742.205200	191.100000
742.242920	194.900000
742.280640	197.400000
742.318359	187.700000
742.356079	189.900000
742.393738	196.800000
742.431396	190.500000
742.469116	196.400000
742.506775	182.400000
742.544495	195.000000
742.582214	196.100000
742.619873	191.900000
742.657593	199.400000
742.695251	197.400000
742.732971	191.800000
742.770630	193.800000
742.808289	191.800000
742.846008	193.000000
742.883728	195.900000
742.921326	192.500000
742.959045	189.700000
742.996765	191.400000
743.034424	193.000000
743.072083	190.600000
743.109802	195.400000
743.147400	186.100000
743.185120	194.600000
743.222839	191.600000
743.260437	198.700000
743.298157	193.700000
743.335754	183.800000
743.373474	190.700000
743.411133	185.400000
743.448792	192.400000
743.486450	192.700000
743.524170	184.400000
743.561768	191.700000
743.599487	199.200000
743.637146	203.100000
743.674744	190.800000
743.712463	189.900000
743.750122	195.300000
743.787720	195.500000
743.825439	187.500000
743.863037	189.600000
743.900696	192.300000
743.938416	218.200000
743.976013	189.800000
744.013672	200.900000
744.051331	197.000000
744.088928	202.200000
744.126587	199.200000
744.164307	194.000000
744.201904	188.800000
744.239563	195.300000
744.277222	193.800000
744.314819	193.300000
744.352478	199.400000
744.390137	193.900000
744.427734	193.600000
744.465393	189.300000
744.502991	187.200000
744.540649	195.400000
744.578308	194.600000
744.615906	186.900000
744.653564	181.700000
744.691223	196.600000
744.728821	184.900000
744.766418	191.800000
744.804077	196.700000
744.841675	188.900000
744.879333	186.000000
744.916992	190.800000
744.954529	191.400000
744.992187	197.900000
745.029785	191.900000
745.067444	189.100000
745.105042	194.000000
745.142639	194.300000
745.180298	201.700000
745.217896	190.700000
745.255493	193.200000
745.293152	196.900000
745.330750	197.000000
745.368347	200.200000
745.405945	196.500000
745.443604	192.900000
745.481140	197.400000
745.518799	190.700000
745.556396	195.800000
745.593994	196.400000
745.631592	193.100000
745.669189	187.500000
745.706787	194.700000
745.744385	188.800000
745.781982	194.700000
745.819580	189.700000
745.857178	191.300000
745.894775	191.400000
745.932373	193.700000
745.969971	193.200000
746.007568	184.600000
746.045166	202.300000
746.082764	198.400000
746.120300	197.100000
746.157898	196.400000
746.195557	191.900000
746.233093	186.700000
746.270691	195.100000
746.308228	194.700000
746.345825	199.000000
746.383423	197.200000
746.420959	187.400000
746.458557	190.900000
746.496155	191.200000
746.533691	191.500000
746.571289	186.800000
746.608887	192.600000
746.646423	194.400000
746.684021	194.100000
746.721619	191.700000
746.759155	194.100000
746.796753	186.400000
746.834351	185.300000
746.871826	189.000000
746.909424	200.200000
746.946960	193.900000
746.984558	191.400000
747.022156	191.100000
747.059631	198.600000
747.097229	195.800000
747.134827	190.700000
747.172363	200.400000
747.209900	194.100000
747.247498	187.900000
747.285034	199.500000
747.322571	200.100000
747.360168	190.500000
747.397644	185.100000
747.435242	195.400000
747.472778	200.700000
747.510315	188.500000
747.547913	190.800000
747.585388	199.500000
747.622925	192.800000
747.660522	183.900000
747.697998	189.500000
747.735596	191.300000
747.773132	190.000000
747.810669	193.000000
747.848206	197.300000
747.885742	187.200000
747.923279	187.300000
747.960815	194.300000
747.998352	193.800000
748.035889	198.600000
748.073425	197.600000
748.110901	189.700000
748.148437	187.400000
748.185974	193.200000
748.223511	203.100000
748.261047	193.700000
748.298584	194.100000
748.336060	191.700000
748.373596	195.800000
748.411133	211.500000
748.448608	188.200000
748.486145	197.300000
748.523682	199.200000
748.561218	199.500000
748.598755	192.800000
748.636292	196.800000
748.673706	189.500000
748.711243	200.700000
748.748718	193.600000
748.786255	194.000000
748.823792	192.400000
748.861267	187.400000
748.898804	194.500000
748.936340	194.900000
748.973816	191.000000
749.011292	198.700000
749.048828	194.400000
749.086304	196.100000
749.123840	205.100000
749.161316	188.000000
749.198792	203.200000
749.236328	199.900000
749.273743	192.800000
749.311279	191.600000
749.348816	194.300000
749.386230	194.700000
749.423767	182.700000
749.461304	194.800000
749.498718	193.100000
749.536255	201.200000
749.573730	206.500000
749.611206	198.300000
749.648682	192.200000
749.686218	193.300000
749.723633	196.600000
749.761169	190.200000
749.798645	188.500000
749.836060	192.400000
749.873596	189.900000
749.911011	192.300000
749.948547	199.600000
749.986023	193.000000
750.023437	193.200000
750.060913	185.200000
750.098450	187.900000
750.135864	193.500000
750.173340	194.100000
750.210815	197.300000
750.248291	188.100000
750.285767	193.900000
750.323242	200.600000
750.360657	195.200000
750.398132	189.300000
750.435608	196.400000
750.473022	190.100000
750.510498	188.900000
750.547974	189.800000
750.585449	191.000000
750.622925	182.700000
750.660339	201.900000
750.697815	193.900000
750.735291	192.400000
750.772644	193.400000
750.810120	192.700000
750.847595	194.900000
750.885010	188.700000
750.922485	201.300000
750.959961	192.000000
750.997375	201.200000
751.034851	197.000000
751.072266	198.500000
751.109680	186.600000
751.147156	198.800000
751.184570	195.800000
751.221985	193.800000
751.259460	182.800000
751.296875	193.000000
751.334290	193.300000
751.371765	198.200000
751.409180	195.900000
751.446594	199.400000
751.484070	194.400000
751.521423	194.300000
751.558899	194.300000
751.596375	200.200000
751.633728	199.900000
751.671204	206.700000
751.708618	189.200000
751.746033	194.400000
751.783447	186.500000
751.820801	188.200000
751.858276	195.700000
751.895691	192.500000
751.933105	191.300000
751.970520	187.600000
752.007935	190.700000
752.045349	197.100000
752.082764	194.700000
752.120178	191.800000
752.157532	190.600000
752.195007	191.300000
752.232422	196.700000
752.269775	198.500000
752.307190	197.000000
752.344543	187.400000
752.382019	193.200000
752.419434	191.400000
752.456787	196.300000
752.494202	197.000000
752.531616	195.700000
752.568970	197.900000
752.606384	195.300000
752.643799	194.800000
752.681152	202.300000
752.718567	196.900000
752.755981	186.400000
752.793335	195.700000
752.830750	185.300000
752.868164	200.100000
752.905518	188.700000
752.942932	198.000000
752.980225	189.200000
753.017639	198.400000
753.055054	191.200000
753.092407	196.700000
753.129822	200.300000
753.167175	202.200000
753.204529	192.400000
753.241943	190.200000
753.279358	186.800000
753.316650	196.100000
753.354065	197.000000
753.391479	197.600000
753.428772	202.000000
753.466187	196.900000
753.503479	187.200000
753.540894	193.300000
753.578308	187.100000
753.615601	188.600000
753.653015	193.900000
753.690369	192.000000
753.727722	189.200000
753.765076	187.500000
753.802490	188.800000
753.839783	184.900000
753.877136	189.800000
753.914551	208.900000
753.951843	188.100000
753.989258	197.700000
754.026611	194.400000
754.063904	197.300000
754.101257	188.300000
754.138611	186.200000
754.175964	193.600000
754.213318	205.100000
754.250610	185.300000
754.288025	191.500000
754.325378	188.700000
754.362671	199.300000
754.400024	191.400000
754.437378	201.800000
754.474670	203.000000
754.512085	190.500000
754.549438	193.900000
754.586731	191.400000
754.624084	192.900000
754.661438	188.600000
754.698730	201.200000
754.736084	191.400000
754.773376	191.900000
754.810730	196.000000
754.848083	192.600000
754.885315	198.000000
754.922668	185.000000
754.960022	188.200000
754.997314	199.700000
755.034668	194.500000
755.072021	195.200000
755.109253	192.900000
755.146606	202.600000
755.183960	194.100000
755.221252	204.400000
755.258545	199.900000
755.295898	202.100000
755.333191	201.800000
755.370544	199.400000
755.407776	195.300000
755.445129	196.400000
755.482422	200.100000
755.519714	192.500000
755.557068	187.600000
755.594360	188.200000
755.631653	200.400000
755.668945	206.000000
755.706299	199.000000
755.743530	208.400000
755.780884	204.300000
755.818176	203.500000
755.855408	203.300000
755.892761	199.700000
755.930054	197.900000
755.967346	200.200000
756.004639	201.900000
756.041870	199.300000
756.079224	203.600000
756.116516	195.400000
756.153748	203.800000
756.191040	206.800000
756.228394	200.900000
756.265625	194.900000
756.302917	201.300000
756.340210	197.200000
756.377441	205.800000
756.414795	207.400000
756.452087	200.600000
756.489319	194.900000
756.526611	202.900000
756.563843	202.300000
756.601135	211.800000
756.638428	208.900000
756.675659	200.200000
756.712952	205.800000
756.750244	204.800000
756.787476	202.200000
756.824768	209.200000
756.862061	198.800000
756.899292	248.000000
756.936584	207.300000
756.973816	212.300000
757.011047	215.000000
757.048340	204.500000
757.085632	202.600000
757.122864	218.000000
757.160156	202.500000
757.197327	205.400000
757.234619	208.900000
757.271912	201.500000
757.309082	208.600000
757.346375	200.300000
757.383667	210.300000
757.420837	205.800000
757.458130	206.100000
757.495422	203.800000
757.532593	206.400000
757.569885	200.000000
757.607117	199.700000
757.644348	207.800000
757.681580	218.000000
757.718811	194.500000
757.756042	204.800000
757.793335	203.400000
757.830505	208.200000
757.867798	203.400000
757.905029	202.600000
757.942200	208.900000
757.979492	202.900000
758.016724	205.600000
758.053894	204.200000
758.091187	226.300000
758.128418	206.800000
758.165588	207.500000
758.202820	217.100000
758.240112	210.400000
758.277283	218.800000
758.314514	210.500000
758.351685	206.100000
758.388916	219.900000
758.426147	215.800000
758.463379	219.500000
758.500610	213.200000
758.537842	210.000000
758.575012	217.100000
758.612244	205.400000
758.649475	223.100000
758.686646	204.300000
758.723877	218.500000
758.761108	217.800000
758.798279	210.800000
758.835510	213.600000
758.872742	218.900000
758.909851	215.000000
758.947083	217.100000
758.984253	213.800000
759.021484	219.500000
759.058716	215.900000
759.095886	218.400000
759.133057	213.800000
759.170288	219.500000
759.207458	210.800000
759.244690	226.000000
759.281860	224.600000
759.319031	214.200000
759.356262	212.300000
759.393433	213.000000
759.430603	214.400000
759.467773	214.900000
759.505005	220.700000
759.542175	222.100000
759.579346	213.500000
759.616516	215.700000
759.653687	217.900000
759.690918	211.900000
759.728027	216.700000
759.765259	217.500000
759.802429	219.500000
759.839539	219.100000
759.876770	221.700000
759.913940	226.400000
759.951111	218.400000
759.988281	218.500000
760.025452	215.300000
760.062561	213.200000
760.099792	226.300000
760.136963	221.000000
760.174072	217.200000
760.211243	213.100000
760.248413	214.400000
760.285583	213.600000
760.322754	229.200000
760.359863	224.600000
760.397034	225.500000
760.434204	218.200000
760.471375	220.400000
760.508545	218.400000
760.545715	220.400000
760.582825	215.000000
760.619995	227.400000
760.657166	214.300000
760.694275	228.700000
760.731445	224.000000
760.768555	224.900000
760.805664	225.600000
760.842834	225.100000
760.879944	227.500000
760.917114	225.500000
760.954285	222.400000
760.991394	218.400000
761.028564	230.300000
761.065674	228.300000
761.102783	221.100000
761.139954	231.000000
761.177124	228.900000
761.214172	234.000000
761.251343	225.000000
761.288452	226.900000
761.325562	229.700000
761.362732	225.300000
761.399841	225.900000
761.436951	232.300000
761.474121	224.600000
761.511169	231.500000
761.548340	234.700000
761.585449	233.800000
761.622559	235.100000
761.659668	233.700000
761.696838	239.900000
761.733887	235.800000
761.771057	231.000000
761.808167	233.500000
761.845276	237.400000
761.882385	248.000000
761.919434	236.900000
761.956604	255.200000
761.993713	231.800000
762.030762	245.700000
762.067871	236.700000
762.105042	236.300000
762.142090	245.500000
762.179199	240.500000
762.216309	246.500000
762.253418	256.800000
762.290527	249.400000
762.327637	245.000000
762.364685	237.200000
762.401794	247.100000
762.438904	244.600000
762.475952	240.400000
762.513062	239.600000
762.550110	241.400000
762.587219	257.800000
762.624329	254.700000
762.661377	249.500000
762.698486	247.200000
762.735596	248.400000
762.772644	243.600000
762.809753	241.800000
762.846863	247.600000
762.883911	253.800000
762.921021	252.300000
762.958069	249.900000
762.995117	259.300000
763.032227	259.100000
763.069336	249.300000
763.106323	248.600000
763.143433	243.900000
763.180481	253.000000
763.217590	253.200000
763.254639	249.600000
763.291687	252.800000
763.328735	261.400000
763.365845	252.800000
763.402893	253.200000
763.439941	256.000000
763.477051	260.200000
763.514038	261.000000
763.551147	252.100000
763.588196	257.800000
763.625244	254.900000
763.662292	263.200000
763.699402	266.000000
763.736389	263.400000
763.773499	273.600000
763.810486	266.900000
763.847534	263.200000
763.884644	266.600000
763.921631	261.600000
763.958679	274.600000
763.995728	264.500000
764.032776	272.000000
764.069824	258.900000
764.106873	269.200000
764.143860	274.400000
764.180969	267.900000
764.218018	277.200000
764.255005	266.500000
764.292053	268.600000
764.329102	280.800000
764.366089	280.300000
764.403137	280.000000
764.440125	268.600000
764.477173	272.600000
764.514221	273.700000
764.551208	273.700000
764.588257	268.100000
764.625305	279.700000
764.662292	284.300000
764.699341	287.800000
764.736389	280.200000
764.773376	297.200000
764.810425	282.900000
764.847473	292.300000
764.884399	286.200000
764.921448	296.000000
764.958435	292.300000
764.995483	282.500000
765.032532	297.300000
765.069458	283.100000
765.106506	283.400000
765.143555	283.100000
765.180481	287.900000
765.217529	295.300000
765.254578	279.600000
765.291504	291.200000
765.328552	288.700000
765.365540	284.700000
765.402527	301.200000
765.439575	285.900000
765.476501	282.200000
765.513550	283.500000
765.550537	290.100000
765.587463	295.600000
765.624512	287.700000
765.661499	280.600000
765.698486	298.200000
765.735474	286.700000
765.772461	289.700000
765.809448	299.600000
765.846436	298.200000
765.883423	300.200000
765.920410	294.800000
765.957397	291.400000
765.994385	296.300000
766.031311	304.500000
766.068359	300.700000
766.105286	299.700000
766.142273	306.500000
766.179260	303.000000
766.216187	296.600000
766.253174	293.600000
766.290161	302.000000
766.327148	306.900000
766.364136	306.200000
766.401123	321.400000
766.438049	301.100000
766.475037	314.100000
766.512024	310.700000
766.548950	326.000000
766.585937	320.700000
766.622864	316.100000
766.659790	315.400000
766.696777	305.200000
766.733704	323.300000
766.770691	312.900000
766.807678	328.500000
766.844604	323.900000
766.881531	323.600000
766.918518	330.300000
766.955444	332.200000
766.992432	325.400000
767.029358	329.500000
767.066284	331.800000
767.103271	330.500000
767.140198	360.600000
767.177124	345.200000
767.214050	337.900000
767.251038	340.900000
767.287964	336.800000
767.324890	333.300000
767.361816	337.500000
767.398743	344.600000
767.435730	340.000000
767.472595	345.100000
767.509583	351.600000
767.546509	338.200000
767.583374	348.600000
767.620361	341.300000
767.657288	344.900000
767.694214	347.800000
767.731140	347.100000
767.768066	348.300000
767.804993	354.400000
767.841919	343.700000
767.878845	353.900000
767.915710	358.200000
767.952698	352.500000
767.989563	357.100000
768.026489	360.400000
768.063416	352.800000
768.100281	354.900000
768.137207	366.900000
768.174133	367.700000
768.211060	364.900000
768.247986	368.600000
768.284912	362.400000
768.321777	367.100000
768.358704	364.700000
768.395630	372.100000
768.432495	363.600000
768.469421	371.300000
768.506348	376.300000
768.543152	386.500000
768.580078	379.800000
768.616943	382.800000
768.653870	383.400000
768.690796	382.100000
768.727661	381.900000
768.764587	384.200000
768.801453	376.300000
768.838318	390.100000
768.875244	387.600000
768.912109	395.700000
768.948975	386.200000
768.985901	391.000000
769.022766	389.100000
769.059631	397.500000
769.096558	390.000000
769.133362	394.400000
769.170288	393.200000
769.207214	397.200000
769.244019	401.400000
769.280945	399.300000
769.317810	408.700000
769.354675	403.400000
769.391541	416.400000
769.428406	408.100000
769.465271	421.900000
769.502136	407.800000
769.539062	413.100000
769.575867	411.200000
769.612732	413.100000
769.649597	420.700000
769.686462	425.400000
769.723328	419.600000
769.760193	418.700000
769.797058	417.500000
769.833923	429.600000
769.870728	424.300000
769.907593	430.900000
769.944519	427.600000
769.981323	429.700000
770.018188	435.200000
770.055054	432.000000
770.091858	428.800000
770.128723	442.600000
770.165588	448.200000
770.202393	431.800000
770.239258	444.400000
770.276062	440.600000
770.312927	441.100000
770.349792	450.500000
770.386597	446.000000
770.423462	454.600000
770.460327	463.600000
770.497131	447.900000
770.533997	442.400000
770.570862	456.700000
770.607605	459.700000
770.644470	454.100000
770.681335	453.900000
770.718140	453.600000
770.754944	444.400000
770.791809	446.500000
770.828613	450.500000
770.865479	452.700000
770.902222	463.600000
770.939087	454.300000
770.975952	447.800000
771.012695	451.900000
771.049561	470.800000
771.086365	458.300000
771.123169	453.100000
771.159973	457.000000
771.196838	458.200000
771.233582	460.200000
771.270447	464.300000
771.307251	467.300000
771.344055	461.400000
771.380859	466.100000
771.417664	457.600000
771.454468	463.100000
771.491272	467.100000
771.528076	469.000000
771.564880	469.800000
771.601685	478.700000
771.638428	470.100000
771.675293	475.500000
771.712097	465.900000
771.748840	484.100000
771.785645	474.300000
771.822449	476.300000
771.859253	484.400000
771.896057	480.000000
771.932861	493.100000
771.969604	482.700000
772.006409	477.000000
772.043213	492.200000
772.079956	489.100000
772.116760	480.300000
772.153503	485.500000
772.190308	497.400000
772.227112	491.100000
772.263855	487.900000
772.300659	494.100000
772.337463	500.300000
772.374207	492.600000
772.411011	488.700000
772.447754	496.700000
772.484497	511.100000
772.521301	507.000000
772.558105	504.100000
772.594849	507.400000
772.631592	514.700000
772.668396	514.100000
772.705139	517.900000
772.741882	519.500000
772.778625	536.100000
772.815430	535.600000
772.852173	528.600000
772.888916	536.200000
772.925720	540.900000
772.962463	546.900000
772.999207	547.700000
773.035950	549.900000
773.072754	550.400000
773.109436	547.500000
773.146240	550.800000
773.182922	547.400000
773.219727	563.500000
773.256470	554.100000
773.293152	541.700000
773.329956	548.600000
773.366699	554.600000
773.403381	546.700000
773.440186	561.300000
773.476929	561.300000
773.513611	555.700000
773.550354	557.400000
773.587158	559.700000
773.623840	557.800000
773.660583	571.100000
773.697327	586.500000
773.734009	570.000000
773.770813	568.400000
773.807495	565.700000
773.844238	571.500000
773.880981	591.900000
773.917664	589.600000
773.954407	590.700000
773.991150	583.400000
774.027832	586.400000
774.064575	581.100000
774.101318	594.200000
774.138000	600.800000
774.174744	593.900000
774.211487	601.900000
774.248108	585.900000
774.284851	586.000000
774.321594	602.300000
774.358276	606.600000
774.395020	616.200000
774.431702	610.900000
774.468384	600.700000
774.505127	600.400000
774.541809	619.600000
774.578491	629.800000
774.615234	633.500000
774.651917	620.100000
774.688599	631.400000
774.725342	639.200000
774.762024	636.500000
774.798706	641.500000
774.835449	640.900000
774.872070	651.300000
774.908813	645.300000
774.945496	642.700000
774.982178	645.800000
775.018860	653.100000
775.055542	654.300000
775.092224	653.700000
775.128967	663.300000
775.165588	657.400000
775.202271	647.200000
775.239014	666.800000
775.275635	666.100000
775.312317	660.100000
775.349060	666.000000
775.385681	667.000000
775.422363	659.200000
775.459045	672.800000
775.495667	674.300000
775.532410	679.800000
775.569092	682.900000
775.605713	678.900000
775.642395	678.400000
775.679016	682.400000
775.715698	687.600000
775.752380	693.600000
775.789001	686.600000
775.825684	682.200000
775.862366	686.800000
775.898987	700.800000
775.935669	684.300000
775.972351	708.900000
776.008972	704.000000
776.045654	701.300000
776.082336	695.900000
776.118958	699.400000
776.155640	702.500000
776.192322	716.900000
776.228882	718.900000
776.265564	716.200000
776.302185	706.700000
776.338867	714.300000
776.375488	702.100000
776.412109	716.500000
776.448792	724.700000
776.485413	733.000000
776.522034	716.100000
776.558716	702.600000
776.595337	703.500000
776.631958	711.400000
776.668579	717.100000
776.705261	724.300000
776.741882	715.500000
776.778503	714.400000
776.815186	707.500000
776.851746	718.900000
776.888367	723.900000
776.924988	730.300000
776.961609	717.600000
776.998291	719.800000
777.034851	712.000000
777.071472	725.300000
777.108154	728.300000
777.144714	742.800000
777.181335	737.300000
777.218018	725.800000
777.254578	735.400000
777.291199	731.900000
777.327759	742.500000
777.364380	746.300000
777.401062	751.900000
777.437622	764.000000
777.474243	746.900000
777.510864	758.800000
777.547424	758.000000
777.584045	762.200000
777.620667	763.000000
777.657227	769.600000
777.693848	769.100000
777.730469	788.000000
777.767029	776.200000
777.803650	780.500000
777.840271	771.800000
777.876831	772.200000
777.913452	783.800000
777.950012	764.400000
777.986633	767.300000
778.023193	760.000000
778.059753	763.500000
778.096375	773.500000
778.132996	783.500000
778.169556	769.700000
778.206116	773.600000
778.242737	768.700000
778.279297	782.000000
778.315857	773.600000
778.352478	779.900000
778.389038	795.700000
778.425598	795.800000
778.462219	802.500000
778.498718	802.100000
778.535339	810.700000
778.571838	812.400000
778.608459	824.100000
778.645020	815.300000
778.681580	827.000000
778.718140	832.300000
778.754761	825.800000
778.791260	830.700000
778.827881	843.000000
778.864441	842.800000
778.900940	843.700000
778.937561	839.500000
778.974121	843.700000
779.010620	827.800000
779.047241	835.300000
779.083801	845.600000
779.120300	845.600000
779.156860	854.100000
779.193359	851.100000
779.229980	852.200000
779.266541	864.800000
779.303040	867.800000
779.339600	858.700000
779.376160	848.900000
779.412659	861.500000
779.449219	854.800000
779.485779	867.000000
779.522278	862.500000
779.558838	869.100000
779.595398	872.900000
779.631897	875.900000
779.668457	863.500000
779.705017	875.200000
779.741516	874.300000
779.778076	868.800000
779.814575	880.200000
779.851074	892.500000
779.887634	883.900000
779.924133	883.000000
779.960693	876.400000
779.997253	884.400000
780.033691	883.000000
780.070251	886.900000
780.106812	902.500000
780.143250	905.300000
780.179810	898.800000
780.216370	901.300000
780.252808	919.900000
780.289368	935.400000
780.325867	933.700000
780.362366	932.700000
780.398865	941.300000
780.435364	932.500000
780.471863	951.600000
780.508423	945.500000
780.544861	953.500000
780.581421	961.100000
780.617920	949.800000
780.654419	942.000000
780.690918	957.600000
780.727417	964.500000
780.763916	963.200000
780.800415	968.500000
780.836914	954.600000
780.873352	958.400000
780.909912	951.800000
780.946411	958.800000
780.982849	969.800000
781.019348	984.400000
781.055786	981.000000
781.092346	973.000000
781.128845	981.100000
781.165283	982.800000
781.201782	995.700000
781.238281	1003.200000
781.274719	1005.200000
781.311218	1004.200000
781.347717	1010.200000
781.384155	997.500000
781.420654	994.600000
781.457092	1006.900000
781.493591	1004.900000
781.530090	997.100000
781.566528	1002.600000
781.602966	1003.800000
781.639465	1000.400000
781.675903	1000.000000
781.712402	1017.400000
781.748901	1017.200000
781.785278	1007.700000
781.821777	1013.600000
781.858276	1015.700000
781.894714	1031.200000
781.931152	1019.700000
781.967651	1025.800000
782.004089	1014.800000
782.040527	1020.600000
782.076965	1025.500000
782.113403	1028.300000
782.149902	1024.600000
782.186340	1023.500000
782.222778	1035.600000
782.259277	1020.400000
782.295654	1016.100000
782.332092	1027.100000
782.368591	1021.000000
782.404968	1015.100000
782.441467	1022.200000
782.477905	1018.200000
782.514282	1013.400000
782.550781	1035.600000
782.587219	1032.300000
782.623596	1037.100000
782.660095	1038.100000
782.696472	1044.300000
782.732910	1045.200000
782.769348	1060.400000
782.805786	1068.500000
782.842224	1056.200000
782.878662	1050.900000
782.915039	1058.600000
782.951477	1061.500000
782.987915	1053.300000
783.024292	1060.500000
783.060730	1063.700000
783.097168	1043.400000
783.133545	1038.600000
783.169983	1028.100000
783.206421	1026.100000
783.242798	1024.800000
783.279236	1011.100000
783.315613	1004.600000
783.352051	997.900000
783.388489	975.300000
783.424866	951.700000
783.461304	943.800000
783.497681	923.900000
783.534058	891.800000
783.570496	851.000000
783.606934	812.600000
783.643250	790.400000
783.679687	769.000000
783.716125	743.500000
783.752441	736.200000
783.788879	738.100000
783.825317	746.600000
783.861633	755.900000
783.898071	768.600000
783.934448	794.000000
783.970825	821.600000
784.007263	840.000000
784.043579	868.400000
784.080017	899.000000
784.116394	914.300000
784.152710	947.100000
784.189148	986.100000
784.225525	1008.300000
784.261902	1016.800000
784.298279	1031.200000
784.334656	1054.000000
784.371033	1051.800000
784.407410	1077.700000
784.443787	1066.300000
784.480164	1052.900000
784.516541	1043.000000
784.552856	1045.000000
784.589233	1036.200000
784.625610	1034.700000
784.661987	1071.100000
784.698364	1059.400000
784.734741	1043.900000
784.771057	1042.100000
784.807434	1044.800000
784.843811	1071.900000
784.880127	1071.800000
784.916504	1104.000000
784.952881	1110.000000
784.989197	1101.800000
785.025574	1104.600000
785.061951	1111.400000
785.098267	1140.500000
785.134644	1135.500000
785.170959	1131.100000
785.207275	1136.500000
785.243652	1135.800000
785.279968	1130.100000
785.316345	1135.900000
785.352722	1139.200000
785.388977	1145.500000
785.425354	1122.000000
785.461731	1096.700000
785.498047	1089.900000
785.534363	1088.600000
785.570679	1090.300000
785.606995	1090.500000
785.643372	1090.300000
785.679687	1075.700000
785.716003	1062.300000
785.752380	1057.400000
785.788635	1068.300000
785.825012	1095.700000
785.861328	1108.300000
785.897644	1090.900000
785.933960	1113.700000
785.970337	1110.200000
786.006592	1129.500000
786.042908	1149.800000
786.079285	1158.700000
786.115540	1166.800000
786.151855	1165.400000
786.188171	1162.300000
786.224487	1159.000000
786.260803	1160.800000
786.297119	1180.000000
786.333435	1183.500000
786.369751	1178.900000
786.406006	1177.500000
786.442322	1160.300000
786.478638	1149.300000
786.514954	1165.600000
786.551270	1162.200000
786.587585	1182.400000
786.623840	1170.100000
786.660156	1157.200000
786.696472	1144.200000
786.732727	1134.500000
786.769043	1140.700000
786.805298	1128.500000
786.841614	1130.400000
786.877930	1141.500000
786.914124	1127.800000
786.950439	1138.100000
786.986755	1143.400000
787.023010	1159.800000
787.059326	1173.900000
787.095642	1167.300000
787.131836	1185.600000
787.168152	1167.000000
787.204468	1175.500000
787.240723	1195.600000
787.276978	1220.500000
787.313293	1228.700000
787.349548	1223.600000
787.385803	1227.700000
787.422058	1218.800000
787.458313	1221.400000
787.494629	1216.100000
787.530823	1211.800000
787.567139	1201.600000
787.603455	1196.200000
787.639648	1183.700000
787.675903	1182.400000
787.712219	1183.600000
787.748413	1173.500000
787.784729	1193.100000
787.820984	1181.300000
787.857178	1168.200000
787.893494	1158.600000
787.929749	1158.300000
787.965942	1155.500000
788.002258	1173.200000
788.038452	1184.200000
788.074707	1168.000000
788.110962	1172.100000
788.147217	1164.000000
788.183472	1179.700000
788.219727	1185.700000
788.255920	1206.900000
788.292175	1211.800000
788.328430	1211.000000
788.364624	1192.500000
788.400879	1176.600000
788.437134	1186.500000
788.473328	1186.300000
788.509583	1182.300000
788.545837	1170.200000
788.582031	1166.900000
788.618286	1154.900000
788.654480	1147.000000
788.690735	1157.500000
788.726990	1184.200000
788.763184	1188.800000
788.799377	1195.000000
788.835632	1173.200000
788.871826	1204.200000
788.908081	1203.600000
788.944336	1199.700000
788.980469	1219.400000
789.016724	1208.400000
789.052979	1204.600000
789.089111	1183.400000
789.125366	1186.200000
789.161621	1166.000000
789.197754	1177.300000
789.234009	1175.500000
789.270142	1168.300000
789.306396	1149.400000
789.342590	1136.700000
789.378784	1119.000000
789.414978	1119.400000
789.451233	1129.500000
789.487366	1132.200000
789.523621	1143.500000
789.559814	1134.100000
789.595947	1116.700000
789.632202	1121.900000
789.668335	1137.300000
789.704529	1159.200000
789.740784	1191.000000
789.776917	1186.700000
789.813110	1171.300000
789.849304	1182.300000
789.885498	1187.300000
789.921692	1207.000000
789.957886	1215.300000
789.994019	1210.800000
790.030212	1202.500000
790.066406	1203.200000
790.102539	1194.800000
790.138733	1207.800000
790.174927	1211.300000
790.211060	1228.900000
790.247253	1209.600000
790.283386	1192.600000
790.319580	1178.500000
790.355774	1165.800000
790.391907	1171.000000
790.428101	1189.700000
790.464294	1192.400000
790.500427	1192.500000
790.536621	1177.800000
790.572754	1163.900000
790.608887	1166.300000
790.645081	1173.200000
790.681274	1188.000000
790.717346	1193.300000
790.753540	1159.500000
790.789734	1088.400000
790.825867	1033.700000
790.862000	1039.900000
790.898132	1097.700000
790.934265	1162.000000
790.970459	1220.300000
791.006592	1237.800000
791.042725	1238.000000
791.078918	1235.600000
791.114990	1241.100000
791.151184	1258.200000
791.187317	1285.600000
791.223389	1277.800000
791.259583	1260.600000
791.295715	1255.700000
791.331848	1261.300000
791.367981	1286.000000
791.404114	1292.100000
791.440247	1282.300000
791.476379	1286.200000
791.512451	1263.800000
791.548584	1269.600000
791.584778	1267.800000
791.620850	1287.100000
791.656982	1292.800000
791.693115	1285.800000
791.729187	1280.800000
791.765381	1272.200000
791.801514	1270.400000
791.837585	1270.500000
791.873718	1276.000000
791.909851	1294.200000
791.945923	1299.800000
791.982056	1256.300000
792.018188	1254.600000
792.054260	1261.300000
792.090393	1268.500000
792.126465	1260.600000
792.162598	1268.400000
792.198669	1251.900000
792.234741	1245.900000
792.270874	1233.300000
792.307007	1225.700000
792.343079	1237.500000
792.379150	1249.200000
792.415283	1238.200000
792.451355	1231.800000
792.487488	1206.700000
792.523560	1207.800000
792.559631	1207.300000
792.595764	1203.700000
792.631836	1213.700000
792.667908	1221.000000
792.703979	1201.300000
792.740051	1205.800000
792.776184	1208.800000
792.812256	1208.300000
792.848328	1216.200000
792.884399	1227.000000
792.920471	1228.300000
792.956543	1208.400000
792.992615	1208.600000
793.028748	1204.200000
793.064758	1218.700000
793.100830	1242.000000
793.136963	1252.200000
793.172974	1235.400000
793.209045	1233.500000
793.245178	1241.000000
793.281189	1232.100000
793.317261	1235.400000
793.353271	1240.300000
793.389404	1247.000000
793.425476	1244.000000
793.461487	1227.500000
793.497559	1221.100000
793.533630	1232.500000
793.569641	1227.800000
793.605713	1234.500000
793.641785	1233.500000
793.677795	1246.700000
793.713867	1222.200000
793.749878	1223.200000
793.785950	1241.100000
793.822021	1252.200000
793.858032	1234.500000
793.894104	1253.100000
793.930176	1236.700000
793.966187	1248.500000
794.002258	1227.900000
794.038269	1232.900000
794.074280	1223.800000
794.110352	1246.500000
794.146423	1221.600000
794.182373	1215.500000
794.218445	1203.100000
794.254517	1197.200000
794.290466	1184.100000
794.326538	1185.900000
794.362549	1194.800000
794.398560	1196.700000
794.434631	1199.400000
794.470581	1160.700000
794.506653	1154.300000
794.542664	1163.600000
794.578674	1155.400000
794.614685	1157.900000
794.650757	1153.500000
794.686707	1152.900000
794.722778	1137.300000
794.758789	1143.200000
794.794739	1149.100000
794.830811	1171.300000
794.866821	1195.400000
794.902771	1188.600000
794.938843	1172.800000
794.974792	1176.700000
795.010803	1173.300000
795.046814	1174.700000
795.082825	1161.000000
795.118835	1179.900000
795.154846	1155.600000
795.190796	1159.700000
795.226807	1131.000000
795.262817	1130.200000
795.298767	1142.400000
795.334778	1140.800000
795.370850	1126.400000
795.406799	1132.800000
795.442810	1107.100000
795.478821	1105.400000
795.514709	1110.100000
795.550720	1123.600000
795.586670	1109.200000
795.622681	1112.200000
795.658691	1109.900000
795.694641	1104.300000
795.730652	1091.000000
795.766663	1098.400000
795.802551	1105.500000
795.838562	1125.400000
795.874573	1104.600000
795.910522	1097.600000
795.946472	1089.300000
795.982483	1098.200000
796.018433	1098.400000
796.054382	1100.900000
796.090393	1097.800000
796.126282	1084.300000
796.162292	1071.400000
796.198242	1065.100000
796.234192	1069.000000
796.270203	1071.400000
796.306091	1080.000000
796.342041	1092.700000
796.378052	1077.100000
796.413940	1069.000000
796.449951	1076.800000
796.485901	1079.100000
796.521790	1075.900000
796.557800	1088.100000
796.593689	1082.500000
796.629639	1067.200000
796.665649	1064.900000
796.701599	1062.800000
796.737488	1059.400000
796.773437	1067.500000
796.809387	1064.000000
796.845337	1062.900000
796.881287	1047.700000
796.917175	1032.600000
796.953125	1038.900000
796.989075	1048.800000
797.024963	1059.100000
797.060913	1051.500000
797.096863	1055.500000
797.132751	1041.300000
797.168701	1019.500000
797.204590	1024.600000
797.240540	1024.900000
797.276489	1039.200000
797.312439	1046.000000
797.348328	1039.200000
797.384277	1019.700000
797.420166	1007.800000
797.456055	1013.800000
797.492004	1012.000000
797.527893	1022.900000
797.563843	1028.900000
797.599731	1014.500000
797.635620	997.500000
797.671570	1007.800000
797.707520	1009.300000
797.743347	1007.700000
797.779297	1021.900000
797.815125	1011.100000
797.851074	997.500000
797.887024	989.600000
797.922913	979.400000
797.958801	993.100000
797.994690	990.100000
798.030579	1000.500000
798.066467	1004.100000
798.102356	982.100000
798.138245	979.900000
798.174133	977.400000
798.210083	983.700000
798.245911	989.800000
798.281799	1000.400000
798.317749	991.500000
798.353577	976.500000
798.389465	971.300000
798.425293	968.000000
798.461243	964.000000
798.497131	977.900000
798.532959	975.100000
798.568848	981.100000
798.604736	960.500000
798.640564	944.000000
798.676453	949.800000
798.712402	958.900000
798.748230	965.500000
798.784119	955.000000
798.820007	961.300000
798.855835	958.300000
798.891724	951.400000
798.927551	945.000000
798.963379	954.900000
798.999268	955.700000
799.035095	956.800000
799.070984	940.200000
799.106873	929.700000
799.142700	939.100000
799.178528	929.300000
799.214417	925.800000
799.250244	946.700000
799.286133	931.900000
799.321960	929.500000
799.357788	925.200000
799.393677	924.400000
799.429504	926.400000
799.465332	923.800000
799.501221	936.200000
799.537048	931.400000
799.572876	917.800000
799.608704	916.400000
799.644531	925.600000
799.680359	922.900000
799.716248	930.600000
799.752014	938.500000
799.787903	925.200000
799.823730	919.400000
799.859558	908.600000
799.895386	915.900000
799.931213	917.300000
799.967041	907.700000
800.002869	901.100000
800.038696	913.100000
800.074463	891.500000
800.110352	898.600000
800.146179	890.200000
800.181946	903.500000
800.217773	902.600000
800.253540	892.600000
800.289429	887.400000
800.325256	883.700000
800.361023	875.600000
800.396851	884.000000
800.432678	878.000000
800.468445	877.400000
800.504272	871.000000
800.540100	853.200000
800.575867	850.800000
800.611694	854.400000
800.647461	852.200000
800.683289	851.800000
800.719116	855.900000
800.754883	845.900000
800.790649	831.100000
800.826477	820.900000
800.862244	845.400000
800.898071	820.900000
800.933838	822.500000
800.969604	820.200000
801.005432	821.500000
801.041199	820.400000
801.076965	815.600000
801.112793	801.900000
801.148560	794.900000
801.184326	793.100000
801.220154	797.100000
801.255859	786.500000
801.291687	787.000000
801.327454	779.800000
801.363281	778.200000
801.398987	775.100000
801.434814	776.700000
801.470520	785.700000
801.506287	767.000000
801.542114	760.700000
801.577820	767.000000
801.613647	767.600000
801.649414	761.300000
801.685120	763.200000
801.720886	767.100000
801.756714	756.600000
801.792419	743.000000
801.828186	740.900000
801.863892	750.900000
801.899719	740.900000
801.935486	737.500000
801.971252	747.300000
802.006958	741.100000
802.042725	734.200000
802.078430	731.500000
802.114197	721.000000
802.149963	741.500000
802.185669	727.500000
802.221436	723.100000
802.257202	727.100000
802.292908	720.400000
802.328674	727.500000
802.364441	726.700000
802.400146	721.100000
802.435913	712.800000
802.471558	713.500000
802.507324	711.800000
802.543091	703.400000
802.578796	718.100000
802.614502	715.100000
802.650269	719.400000
802.685974	703.200000
802.721741	703.100000
802.757446	703.300000
802.793152	701.600000
802.828918	711.000000
802.864624	706.000000
802.900330	705.300000
802.936035	700.400000
802.971802	694.600000
803.007446	693.400000
803.043213	682.100000
803.078857	693.900000
803.114624	674.700000
803.150330	681.100000
803.185974	673.100000
803.221741	673.000000
803.257446	678.000000
803.293152	679.800000
803.328857	670.500000
803.364563	666.400000
803.400208	660.900000
803.435974	669.100000
803.471680	660.000000
803.507324	652.900000
803.543030	661.500000
803.578735	661.500000
803.614441	653.400000
803.650146	662.900000
803.685791	648.400000
803.721497	649.300000
803.757202	640.700000
803.792847	651.900000
803.828552	644.200000
803.864258	644.000000
803.899902	639.600000
803.935608	621.600000
803.971313	627.300000
804.006958	628.300000
804.042664	623.100000
804.078308	627.100000
804.113953	621.800000
804.149658	626.400000
804.185364	615.900000
804.221008	622.900000
804.256714	614.100000
804.292297	614.600000
804.328003	611.500000
804.363708	602.300000
804.399292	601.500000
804.434998	603.100000
804.470703	596.500000
804.506287	611.700000
804.541992	604.200000
804.577637	603.500000
804.613281	589.700000
804.648926	586.500000
804.684570	587.300000
804.720215	586.800000
804.755920	593.300000
804.791565	584.300000
804.827209	589.500000
804.862854	585.000000
804.898437	575.600000
804.934143	581.200000
804.969788	582.100000
805.005371	579.200000
805.041077	581.100000
805.076721	579.700000
805.112305	565.100000
805.147949	569.700000
805.183655	565.300000
805.219238	571.700000
805.254883	570.700000
805.290466	576.900000
805.326111	566.200000
805.361755	557.100000
805.397400	557.800000
805.432983	563.900000
805.468628	563.600000
805.504211	568.000000
805.539856	564.600000
805.575500	570.000000
805.611084	561.100000
805.646729	544.700000
805.682373	551.100000
805.717957	560.700000
805.753601	561.200000
805.789246	542.700000
805.824768	558.800000
805.860413	556.500000
805.895996	544.600000
805.931641	542.800000
805.967224	555.500000
806.002869	549.200000
806.038452	556.100000
806.074036	547.700000
806.109619	538.000000
806.145264	532.700000
806.180847	531.500000
806.216431	529.700000
806.252014	533.200000
806.287659	532.800000
806.323181	543.900000
806.358826	535.800000
806.394409	517.300000
806.429993	519.700000
806.465576	531.100000
806.501160	518.100000
806.536743	510.400000
806.572327	521.100000
806.607910	517.900000
806.643494	514.500000
806.679077	511.000000
806.714661	515.400000
806.750244	512.000000
806.785828	503.600000
806.821350	507.200000
806.856934	512.500000
806.892517	507.500000
806.928101	498.900000
806.963684	504.200000
806.999268	511.100000
807.034790	491.700000
807.070374	495.600000
807.105896	491.000000
807.141479	487.300000
807.177063	497.300000
807.212585	488.400000
807.248169	485.300000
807.283752	491.200000
807.319275	485.500000
807.354858	484.300000
807.390381	483.400000
807.425903	480.700000
807.461487	478.000000
807.497070	471.600000
807.532593	471.800000
807.568115	467.400000
807.603699	466.200000
807.639221	461.000000
807.674744	466.500000
807.710266	468.600000
807.745850	472.400000
807.781372	459.800000
807.816895	457.300000
807.852417	465.500000
807.888000	460.400000
807.923523	455.900000
807.959045	461.700000
807.994629	450.400000
808.030090	448.300000
808.065613	455.000000
808.101135	453.400000
808.136658	451.800000
808.172241	449.600000
808.207764	447.500000
808.243225	441.500000
808.278809	438.000000
808.314270	447.100000
808.349792	434.400000
808.385315	433.500000
808.420837	438.100000
808.456360	442.600000
808.491882	440.200000
808.527344	435.800000
808.562866	444.300000
808.598389	436.800000
808.633850	431.300000
808.669434	424.400000
808.704895	435.400000
808.740417	437.500000
808.775940	431.200000
808.811462	422.700000
808.846924	415.300000
808.882385	415.000000
808.917847	413.800000
808.953369	415.600000
808.988892	407.500000
809.024353	417.500000
809.059875	416.600000
809.095398	413.900000
809.130798	405.400000
809.166321	406.300000
809.201843	404.100000
809.237305	406.800000
809.272766	414.900000
809.308228	396.800000
809.343750	396.400000
809.379211	399.200000
809.414734	400.400000
809.450134	410.500000
809.485657	390.600000
809.521118	396.800000
809.556580	395.100000
809.592102	392.700000
809.627502	388.500000
809.663025	389.100000
809.698486	385.500000
809.733887	381.000000
809.769409	383.300000
809.804871	371.600000
809.840271	377.100000
809.875793	379.600000
809.911194	382.600000
809.946655	375.400000
809.982178	368.800000
810.017639	374.400000
810.053040	372.700000
810.088501	369.000000
810.123901	367.500000
810.159424	364.600000
810.194885	359.200000
810.230286	365.800000
810.265747	359.800000
810.301208	357.300000
810.336609	359.600000
810.372070	354.900000
810.407532	355.700000
810.442932	358.900000
810.478394	360.800000
810.513794	358.400000
810.549255	353.200000
810.584717	353.500000
810.620117	347.000000
810.655518	354.100000
810.690979	353.700000
810.726379	350.600000
810.761841	340.600000
810.797302	343.500000
810.832642	341.500000
810.868103	351.900000
810.903564	339.000000
810.938904	345.300000
810.974365	334.200000
811.009827	339.400000
811.045166	336.600000
811.080627	327.200000
811.115967	335.100000
811.151428	340.000000
811.186829	331.500000
811.222229	332.400000
811.257629	326.300000
811.293091	332.500000
811.328430	338.900000
811.363892	332.500000
811.399292	335.000000
811.434631	328.700000
811.470093	335.000000
811.505493	322.600000
811.540833	327.800000
811.576294	328.900000
811.611694	325.600000
811.647034	321.800000
811.682434	324.600000
811.717773	326.000000
811.753235	329.900000
811.788635	321.200000
811.823975	323.600000
811.859375	333.200000
811.894775	316.600000
811.930115	319.800000
811.965515	317.600000
812.000916	321.700000
812.036255	316.800000
812.071655	321.000000
812.106995	313.500000
812.142395	314.700000
812.177795	320.800000
812.213196	317.200000
812.248474	317.200000
812.283875	308.500000
812.319214	311.800000
812.354614	312.300000
812.390015	309.900000
812.425293	310.700000
812.460693	310.800000
812.496094	307.100000
812.531433	299.500000
812.566772	302.400000
812.602173	304.800000
812.637451	305.600000
812.672852	300.900000
812.708191	305.600000
812.743530	299.000000
812.778931	291.300000
812.814270	297.300000
812.849609	304.200000
812.884949	296.500000
812.920227	291.800000
812.955627	308.000000
812.990967	297.000000
813.026306	291.600000
813.061646	282.900000
813.096985	280.300000
813.132324	276.800000
813.167664	283.300000
813.203003	288.900000
813.238281	273.100000
813.273682	277.400000
813.308960	273.600000
813.344299	276.000000
813.379639	283.100000
813.414978	275.700000
813.450256	275.400000
813.485596	283.000000
813.520874	272.000000
813.556213	275.200000
813.591614	279.500000
813.626831	271.900000
813.662170	276.600000
813.697510	287.000000
813.732788	270.900000
813.768127	274.400000
813.803467	274.400000
813.838745	271.400000
813.874084	275.300000
813.909363	273.600000
813.944641	275.000000
813.979980	264.500000
814.015320	268.400000
814.050598	265.200000
814.085876	269.100000
814.121155	267.300000
814.156494	265.900000
814.191772	266.200000
814.227051	261.900000
814.262390	265.700000
814.297668	265.100000
814.332947	265.600000
814.368225	260.200000
814.403564	261.900000
814.438782	260.700000
814.474121	262.200000
814.509338	257.700000
814.544617	266.600000
814.579956	255.500000
814.615173	267.100000
814.650513	262.100000
814.685791	254.800000
814.721008	257.600000
814.756348	257.600000
814.791626	253.500000
814.826843	253.600000
814.862122	255.600000
814.897400	251.900000
814.932678	256.100000
814.967957	252.400000
815.003235	251.600000
815.038452	247.100000
815.073730	245.400000
815.108948	255.700000
815.144226	252.900000
815.179504	256.700000
815.214722	242.000000
815.250000	242.000000
815.285278	247.700000
815.320496	242.400000
815.355774	246.200000
815.391052	248.800000
815.426270	243.900000
815.461487	243.500000
815.496765	237.000000
815.531982	234.400000
815.567261	240.500000
815.602539	248.000000
815.637695	242.400000
815.672974	246.300000
815.708191	244.000000
815.743408	245.200000
815.778687	236.300000
815.813904	250.000000
815.849121	229.100000
815.884399	233.000000
815.919556	232.600000
815.954834	233.300000
815.990051	237.000000
816.025269	241.900000
816.060486	231.700000
816.095703	232.100000
816.130920	234.900000
816.166199	229.600000
816.201416	234.500000
816.236572	241.500000
816.271851	229.900000
816.307007	238.000000
816.342224	227.700000
816.377441	232.100000
816.412659	221.300000
816.447876	234.500000
816.483093	228.200000
816.518250	229.700000
816.553467	227.100000
816.588745	233.400000
816.623901	224.200000
816.659119	219.600000
816.694275	222.200000
816.729492	220.900000
816.764709	256.300000
816.799927	218.700000
816.835083	223.700000
816.870300	219.400000
816.905457	222.100000
816.940674	227.500000
816.975830	221.000000
817.010986	215.900000
817.046204	219.100000
817.081421	215.100000
817.116577	215.300000
817.151733	224.400000
817.186951	226.200000
817.222107	221.600000
817.257324	222.800000
817.292419	219.800000
817.327637	211.000000
817.362854	217.500000
817.398010	212.700000
817.433167	214.500000
817.468323	213.800000
817.503479	214.500000
817.538635	223.500000
817.573853	218.900000
817.608948	216.500000
817.644165	211.700000
817.679321	211.600000
817.714478	211.800000
817.749634	215.300000
817.784790	226.900000
817.819946	221.900000
817.855103	203.700000
817.890198	213.700000
817.925415	204.600000
817.960571	214.000000
817.995667	211.600000
818.030823	214.600000
818.066040	206.700000
818.101135	211.700000
818.136292	209.600000
818.171448	205.500000
818.206543	208.300000
818.241699	214.300000
818.276855	208.900000
818.311951	209.700000
818.347107	205.600000
818.382263	211.500000
818.417358	216.500000
818.452515	216.600000
818.487610	216.500000
818.522766	204.900000
818.557922	217.100000
818.593018	212.200000
818.628113	209.300000
818.663269	206.100000
818.698364	208.700000
818.733521	205.600000
818.768677	211.200000
818.803711	201.700000
818.838867	204.300000
818.874023	206.400000
818.909058	202.900000
818.944214	200.900000
818.979370	210.200000
819.014404	206.000000
819.049561	203.600000
819.084595	207.500000
819.119751	199.900000
819.154846	208.900000
819.189941	204.000000
819.225037	198.600000
819.260193	195.100000
819.295227	198.000000
819.330322	193.900000
819.365479	193.200000
819.400513	227.200000
819.435608	192.200000
819.470764	191.300000
819.505798	194.800000
819.540894	197.900000
819.575989	195.600000
819.611084	205.200000
819.646179	204.200000
819.681213	201.200000
819.716309	197.600000
819.751404	197.500000
819.786438	201.500000
819.821533	194.400000
819.856628	198.900000
819.891663	200.800000
819.926758	209.500000
819.961853	205.500000
819.996887	195.600000
820.031982	202.000000
820.067017	196.000000
820.102112	226.300000
820.137207	194.400000
820.172302	213.700000
820.207275	194.500000
820.242371	195.300000
820.277405	194.500000
820.312500	197.600000
820.347534	199.500000
820.382568	203.000000
820.417664	195.700000
820.452759	195.900000
820.487732	195.000000
820.522827	195.900000
820.557861	193.000000
820.592896	194.800000
820.627930	195.500000
820.662964	192.700000
820.698059	198.100000
820.733093	194.400000
820.768127	199.900000
820.803162	196.000000
820.838196	194.500000
820.873230	197.800000
820.908264	196.500000
820.943298	193.300000
820.978333	200.900000
821.013367	196.200000
821.048401	200.700000
821.083435	201.600000
821.118469	189.200000
821.153503	201.100000
821.188477	198.800000
821.223511	190.300000
821.258484	195.700000
821.293579	195.200000
821.328613	187.700000
821.363647	193.700000
821.398621	189.600000
821.433655	190.800000
821.468628	208.300000
821.503662	192.700000
821.538696	198.200000
821.573669	188.000000
821.608704	197.500000
821.643677	190.700000
821.678650	197.900000
821.713684	202.400000
821.748718	192.800000
821.783691	193.200000
821.818726	195.200000
821.853638	195.400000
821.888672	194.500000
821.923706	193.300000
821.958618	191.300000
821.993652	191.600000
822.028687	200.100000
822.063599	200.000000
822.098633	196.400000
822.133667	189.500000
822.168579	193.200000
822.203613	194.700000
822.238586	190.200000
822.273560	195.900000
822.308533	190.700000
822.343567	191.600000
822.378479	191.700000
822.413452	192.500000
822.448425	189.600000
822.483398	199.400000
822.518372	199.300000
822.553345	190.600000
822.588318	201.900000
822.623291	191.900000
822.658203	191.700000
822.693237	193.100000
822.728210	188.800000
822.763123	194.800000
822.798096	188.100000
822.833069	195.100000
822.867981	192.400000
822.902954	196.400000
822.937927	197.200000
822.972900	204.800000
823.007874	185.100000
823.042725	197.200000
823.077698	204.800000
823.112671	189.900000
823.147583	192.400000
823.182556	195.500000
823.217529	198.000000
823.252441	191.100000
823.287415	206.700000
823.322388	196.400000
823.357239	194.300000
823.392212	200.800000
823.427185	195.700000
823.462097	190.000000
823.497009	197.300000
823.531982	191.300000
823.566895	193.800000
823.601807	188.800000
823.636719	191.400000
823.671631	196.600000
823.706604	192.100000
823.741455	196.000000
823.776428	187.000000
823.811340	198.200000
823.846252	200.000000
823.881165	200.900000
823.916138	196.800000
823.950989	202.400000
823.985901	190.300000
824.020813	195.400000
824.055725	191.100000
824.090637	190.200000
824.125610	196.000000
824.160461	193.800000
824.195374	195.100000
824.230225	197.400000
824.265198	185.400000
824.300110	191.300000
824.334961	204.300000
824.369873	183.700000
824.404785	196.800000
824.439636	200.900000
824.474548	186.000000
824.509460	182.500000
824.544312	199.100000
824.579224	196.300000
824.614075	196.300000
824.648987	192.900000
824.683899	193.600000
824.718811	189.500000
824.753662	201.900000
824.788574	198.000000
824.823364	193.700000
824.858276	189.900000
824.893188	199.300000
824.928040	198.800000
824.962952	196.400000
824.997803	196.300000
825.032654	194.600000
825.067566	195.600000
825.102417	191.100000
825.137268	193.200000
825.172119	194.300000
825.206970	190.200000
825.241882	191.300000
825.276733	188.700000
825.311646	191.300000
825.346436	187.200000
825.381348	187.300000
825.416138	192.600000
825.450989	188.400000
825.485901	184.400000
825.520691	185.700000
825.555542	185.900000
825.590454	193.100000
825.625244	185.300000
825.660095	200.300000
825.695007	196.900000
825.729797	191.800000
825.764648	189.900000
825.799438	191.700000
825.834290	193.200000
825.869202	185.900000
825.903992	193.900000
825.938843	189.500000
825.973694	187.700000
826.008484	203.300000
826.043335	188.300000
826.078186	183.300000
826.112976	200.200000
826.147827	196.200000
826.182678	202.300000
826.217468	184.200000
826.252319	198.600000
826.287109	186.800000
826.321899	199.000000
826.356750	190.400000
826.391541	187.500000
826.426392	197.500000
826.461182	192.500000
826.495972	185.300000
826.530823	183.400000
826.565613	192.100000
826.600403	187.200000
826.635254	194.000000
826.670044	184.500000
826.704834	183.700000
826.739685	187.700000
826.774475	193.300000
826.809265	191.600000
826.844055	189.700000
826.878906	198.400000
826.913635	193.400000
826.948425	195.800000
826.983215	193.400000
827.018005	197.600000
827.052856	189.200000
827.087585	196.700000
827.122375	184.800000
827.157227	192.500000
827.191956	203.700000
827.226746	187.200000
827.261536	195.700000
827.296265	185.200000
827.331116	189.500000
827.365906	196.700000
827.400635	188.400000
827.435425	183.200000
827.470215	199.100000
827.504944	190.900000
827.539734	196.700000
827.574463	190.500000
827.609253	199.300000
827.644043	192.600000
827.678772	198.600000
827.713562	189.700000
827.748352	190.500000
827.783081	188.900000
827.817871	191.700000
827.852600	186.800000
827.887329	193.700000
827.922119	181.800000
827.956848	195.400000
827.991638	203.300000
828.026367	194.100000
828.061157	192.200000
828.095886	192.000000
828.130615	206.300000
828.165344	182.400000
828.200073	192.800000
828.234863	189.400000
828.269592	192.000000
828.304321	196.700000
828.339111	192.600000
828.373779	188.600000
828.408569	197.900000
828.443298	197.000000
828.477966	188.000000
828.512756	193.600000
828.547424	187.500000
828.582214	189.300000
828.616943	188.800000
828.651672	190.100000
828.686340	195.700000
828.721130	188.500000
828.755798	191.400000
828.790527	192.800000
828.825256	192.200000
828.859924	192.600000
828.894714	197.800000
828.929443	200.700000
828.964111	187.600000
828.998840	195.500000
829.033569	189.400000
829.068237	190.300000
829.102966	189.200000
829.137634	192.600000
829.172363	192.500000
829.207092	193.200000
829.241821	188.200000
829.276489	183.000000
829.311157	192.100000
829.345825	190.200000
829.380554	195.900000
829.415283	187.300000
829.449951	184.300000
829.484619	200.600000
829.519348	200.200000
829.554016	192.300000
829.588745	191.600000
829.623413	185.200000
829.658081	204.000000
829.692749	185.600000
829.727417	196.800000
829.762146	193.000000
829.796814	187.600000
829.831482	191.000000
829.866150	192.500000
829.900879	188.800000
829.935486	194.700000
829.970154	189.600000
830.004883	204.000000
830.039490	192.300000
830.074219	188.400000
830.108887	191.500000
830.143494	191.200000
830.178223	185.900000
830.212891	190.800000
830.247498	192.300000
830.282166	201.600000
830.316772	197.300000
830.351501	188.000000
830.386169	190.700000
830.420776	188.600000
830.455444	192.400000
830.490112	189.700000
830.524719	182.900000
830.559387	194.100000
830.594055	194.100000
830.628662	192.000000
830.663330	190.700000
830.697998	200.200000
830.732605	190.700000
830.767273	194.200000
830.801941	191.300000
830.836487	201.100000
830.871155	193.200000
830.905762	193.600000
830.940430	184.100000
830.975098	189.200000
831.009644	192.200000
831.044312	199.200000
831.078979	193.500000
831.113525	183.900000
831.148193	191.400000
831.182861	189.800000
831.217407	194.600000
831.252075	208.600000
831.286621	190.000000
831.321289	187.300000
831.355896	191.600000
831.390564	197.600000
831.425110	192.600000
831.459778	198.400000
831.494324	206.400000
831.528931	195.100000
831.563599	197.000000
831.598145	185.700000
831.632751	192.500000
831.667419	190.000000
831.701965	195.100000
831.736572	195.300000
831.771179	185.900000
831.805786	189.100000
831.840393	198.500000
831.874939	183.100000
831.909546	195.400000
831.944153	182.000000
831.978760	190.600000
832.013306	188.400000
832.047913	200.100000
832.082458	199.300000
832.117065	188.400000
832.151672	200.200000
832.186218	193.100000
832.220825	196.200000
832.255432	183.400000
832.289978	187.000000
832.324585	195.100000
832.359192	193.400000
832.393677	189.400000
832.428284	192.800000
832.462830	190.800000
832.497437	190.900000
832.531982	195.600000
832.566589	190.600000
832.601135	193.100000
832.635681	184.900000
832.670227	191.800000
832.704773	199.200000
832.739380	192.500000
832.773926	191.700000
832.808472	188.200000
832.843079	192.500000
832.877563	195.600000
832.912170	191.100000
832.946716	183.900000
832.981201	198.800000
833.015808	194.800000
833.050293	191.600000
833.084839	187.600000
833.119446	189.600000
833.153992	194.600000
833.188477	191.400000
833.223022	187.800000
833.257568	192.900000
833.292114	198.100000
833.326660	203.800000
833.361145	188.600000
833.395691	184.300000
833.430237	190.000000
833.464783	194.600000
833.499329	187.100000
833.533875	186.200000
833.568359	194.400000
833.602905	198.600000
833.637390	196.400000
833.671875	188.500000
833.706421	190.100000
833.740906	188.200000
833.775452	181.700000
833.809998	190.100000
833.844482	199.800000
833.879028	190.800000
833.913513	189.100000
833.947998	194.100000
833.982544	189.300000
834.017090	188.500000
834.051514	179.500000
834.086060	193.600000
834.120544	190.800000
834.155029	194.200000
834.189575	189.400000
834.223999	193.400000
834.258545	192.800000
834.293030	191.600000
834.327515	193.100000
834.362000	188.100000
834.396545	195.100000
834.430969	190.600000
834.465454	196.000000
834.500000	183.900000
834.534424	195.500000
834.568970	181.500000
834.603455	184.200000
834.637878	188.600000
834.672363	192.800000
834.706909	192.200000
834.741333	192.600000
834.775818	182.900000
834.810242	188.900000
834.844727	192.400000
834.879211	189.200000
834.913635	192.200000
834.948181	194.200000
834.982666	192.000000
835.017090	190.100000
835.051575	194.100000
835.086060	189.000000
835.120483	195.100000
835.154907	196.000000
835.189331	191.900000
835.223816	194.300000
835.258301	187.100000
835.292786	186.700000
835.327209	196.800000
835.361694	187.900000
835.396057	189.400000
835.430542	193.900000
835.465027	192.700000
835.499390	186.600000
835.533875	210.700000
835.568359	189.400000
835.602722	184.200000
835.637207	193.500000
835.671692	185.600000
835.706055	207.600000
835.740540	193.800000
835.774902	195.200000
835.809387	191.200000
835.843811	184.800000
835.878235	199.300000
835.912659	185.900000
835.947083	188.100000
835.981506	191.700000
836.015930	183.000000
836.050354	196.200000
836.084778	200.200000
836.119202	197.000000
836.153625	204.300000
836.187988	186.700000
836.222473	188.800000
836.256897	193.600000
836.291260	191.200000
836.325684	193.300000
836.360046	188.800000
836.394470	190.200000
836.428894	199.300000
836.463318	188.400000
836.497681	196.600000
836.532104	199.000000
836.566467	193.600000
836.600891	189.000000
836.635315	196.300000
836.669678	194.700000
836.704102	195.700000
836.738525	191.800000
836.772888	182.900000
836.807251	187.500000
836.841675	195.000000
836.876038	187.300000
836.910461	187.700000
836.944763	195.600000
836.979187	188.400000
837.013611	197.300000
837.047974	185.300000
837.082336	203.900000
837.116699	194.700000
837.151062	190.700000
837.185486	185.500000
837.219849	189.300000
837.254211	196.700000
837.288574	190.200000
837.322937	186.600000
837.357300	178.300000
837.391663	204.900000
837.426086	196.600000
837.460388	193.300000
837.494751	197.300000
837.529114	189.700000
837.563477	196.900000
837.597839	194.100000
837.632141	191.800000
837.666565	187.700000
837.700928	194.700000
837.735229	195.000000
837.769592	194.300000
837.803955	196.000000
837.838257	190.200000
837.872620	186.800000
837.906982	200.300000
837.941284	190.100000
837.975647	193.600000
838.010010	197.100000
838.044312	190.600000
838.078674	189.700000
838.112976	192.000000
838.147339	194.900000
838.181702	191.600000
838.216003	200.300000
838.250366	192.800000
838.284668	194.800000
838.318970	184.300000
838.353333	190.600000
838.387634	190.000000
838.421936	192.200000
838.456299	192.500000
838.490601	198.800000
838.524902	195.500000
838.559265	196.300000
838.593567	194.400000
838.627869	185.500000
838.662170	194.100000
838.696472	185.800000
838.730774	187.600000
838.765137	197.700000
838.799377	178.400000
838.833740	192.700000
838.868042	198.300000
838.902283	183.400000
838.936646	197.700000
838.970947	192.900000
839.005188	197.500000
839.039551	185.400000
839.073792	199.800000
839.108093	189.100000
839.142395	200.100000
839.176697	184.900000
839.210937	192.400000
839.245300	202.900000
839.279541	185.100000
839.313843	189.600000
839.348145	194.700000
839.382385	197.000000
839.416687	196.200000
839.450989	195.600000
839.485229	190.800000
839.519531	187.500000
839.553833	197.300000
839.588013	192.000000
839.622314	192.400000
839.656555	195.300000
839.690857	191.700000
839.725159	186.300000
839.759460	189.000000
839.793640	190.200000
839.827942	189.400000
839.862183	187.500000
839.896423	193.600000
839.930725	200.300000
839.964966	199.000000
839.999207	200.100000
840.033508	198.700000
840.067688	188.800000
840.101990	200.400000
840.136230	190.300000
840.170471	200.200000
840.204712	188.400000
840.238953	186.200000
840.273193	193.200000
840.307434	195.800000
840.341736	188.100000
840.375916	184.400000
840.410217	190.000000
840.444397	194.600000
840.478638	195.100000
840.512878	197.300000
840.547119	191.800000
840.581360	194.300000
840.615601	201.300000
840.649780	200.100000
840.684021	191.400000
840.718262	199.500000
840.752441	196.700000
840.786682	192.200000
840.820862	194.700000
840.855103	199.000000
840.889343	192.100000
840.923584	197.500000
840.957764	193.900000
840.992004	193.900000
841.026184	205.900000
841.060425	189.900000
841.094666	188.500000
841.128845	197.100000
841.163025	192.900000
841.197266	195.400000
841.231445	193.100000
841.265686	193.000000
841.299866	188.900000
841.334045	200.200000
841.368286	191.100000
841.402405	200.600000
841.436646	197.600000
841.470825	190.300000
841.505005	191.000000
841.539185	188.400000
841.573425	189.100000
841.607544	192.600000
841.641785	192.100000
841.675964	188.400000
841.710144	193.400000
841.744324	189.800000
841.778503	192.000000
841.812683	189.400000
841.846863	201.900000
841.881042	198.900000
841.915222	189.400000
841.949402	208.100000
841.983521	184.000000
842.017700	191.400000
842.051880	194.200000
842.086060	195.400000
842.120239	193.600000
842.154419	190.500000
842.188538	193.600000
842.222717	188.400000
842.256897	202.000000
842.291016	191.500000
842.325195	195.100000
842.359375	203.400000
842.393494	200.200000
842.427673	192.100000
842.461853	195.200000
842.495911	200.600000
842.530090	195.300000
842.564209	191.900000
842.598389	195.400000
842.632568	193.500000
842.666626	197.100000
842.700806	188.900000
842.734985	190.800000
842.769043	195.500000
842.803223	192.400000
842.837402	190.400000
842.871460	190.700000
842.905640	201.400000
842.939697	189.800000
842.973877	194.900000
843.007996	200.100000
843.042175	200.500000
843.076233	190.400000
843.110413	193.400000
843.144470	202.300000
843.178589	196.900000
843.212769	189.700000
843.246826	196.700000
843.280945	190.700000
843.315125	190.300000
843.349182	188.600000
843.383301	200.000000
843.417419	204.700000
843.451538	192.100000
843.485657	191.500000
843.519714	190.500000
843.553833	194.600000
843.587952	190.700000
843.622070	189.200000
843.656128	195.800000
843.690247	191.200000
843.724304	190.800000
843.758423	193.800000
843.792542	191.300000
843.826599	192.700000
843.860718	190.800000
843.894836	186.300000
843.928894	192.900000
843.963013	195.900000
843.997070	189.400000
844.031128	186.100000
844.065247	196.500000
844.099304	197.600000
844.133362	194.000000
844.167480	196.100000
844.201599	200.100000
844.235596	194.400000
844.269714	194.600000
844.303711	195.100000
844.337830	185.300000
844.371948	195.700000
844.405945	192.000000
844.440063	187.400000
844.474121	207.100000
844.508118	190.400000
844.542236	192.100000
844.576294	189.700000
844.610352	188.400000
844.644409	191.200000
844.678406	184.700000
844.712524	197.500000
844.746582	198.600000
844.780640	190.900000
844.814636	193.800000
844.848755	204.100000
844.882751	191.500000
844.916809	197.800000
844.950867	194.300000
844.984863	201.700000
845.018921	192.000000
845.052979	189.600000
845.086975	194.600000
845.121033	185.600000
845.155090	188.800000
845.189087	199.900000
845.223145	191.000000
845.257141	193.500000
845.291199	197.300000
845.325256	200.600000
845.359253	193.400000
845.393250	204.000000
845.427307	192.100000
845.461304	195.200000
845.495361	193.300000
845.529358	204.200000
845.563354	191.300000
845.597412	188.900000
845.631409	200.500000
845.665405	200.500000
845.699463	197.300000
845.733459	190.900000
845.767456	200.200000
845.801453	192.200000
845.835449	198.800000
845.869446	196.700000
845.903503	197.700000
845.937439	189.100000
845.971497	200.000000
846.005493	187.900000
846.039429	196.100000
846.073486	204.400000
846.107483	191.300000
846.141418	193.200000
846.175476	192.000000
846.209473	200.000000
846.243408	189.100000
846.277405	193.700000
846.311401	188.000000
846.345337	193.200000
846.379395	198.100000
846.413330	190.000000
846.447327	201.200000
846.481323	187.200000
846.515259	189.400000
846.549255	193.400000
846.583252	195.600000
846.617187	187.600000
846.651184	196.000000
846.685120	190.600000
846.719055	201.400000
846.753052	197.400000
846.786987	197.600000
846.820984	186.500000
846.854980	199.300000
846.888916	190.000000
846.922852	195.000000
846.956848	203.000000
846.990723	188.200000
847.024719	194.600000
847.058716	192.000000
847.092590	200.200000
847.126587	194.600000
847.160522	190.800000
847.194458	197.200000
847.228455	189.600000
847.262390	188.400000
847.296265	190.400000
847.330261	200.200000
847.364136	191.500000
847.398132	190.200000
847.432068	192.500000
847.466003	193.000000
847.499939	191.700000
847.533875	196.800000
847.567749	190.100000
847.601746	191.500000
847.635681	196.700000
847.669556	184.100000
847.703491	199.300000
847.737427	209.200000
847.771301	188.300000
847.805237	194.700000
847.839233	193.500000
847.873108	192.900000
847.907043	191.100000
847.940918	200.700000
847.974854	193.800000
848.008789	197.100000
848.042664	193.900000
848.076538	197.200000
848.110474	192.200000
848.144348	194.700000
848.178284	187.400000
848.212219	193.600000
848.246094	190.400000
848.279968	194.200000
848.313904	196.800000
848.347778	193.600000
848.381653	191.900000
848.415588	189.700000
848.449463	190.700000
848.483337	195.700000
848.517212	198.100000
848.551086	193.300000
848.585022	189.700000
848.618835	202.300000
848.652771	190.200000
848.686646	187.900000
848.720520	202.000000
848.754395	192.700000
848.788330	198.100000
848.822144	197.200000
848.856018	192.300000
848.889954	202.300000
848.923767	189.500000
848.957642	190.100000
848.991577	198.600000
849.025391	190.600000
849.059265	193.300000
849.093079	191.200000
849.126953	187.700000
849.160828	198.100000
849.194641	195.000000
849.228577	190.800000
849.262451	192.500000
849.296265	191.800000
849.330139	188.800000
849.364014	194.600000
849.397827	195.500000
849.431702	193.500000
849.465515	198.200000
849.499329	184.300000
849.533203	188.100000
849.567078	182.700000
849.600891	195.700000
849.634766	192.100000
849.668518	199.000000
849.702393	194.200000
849.736267	186.700000
849.770020	205.400000
849.803894	197.100000
849.837769	194.400000
849.871521	194.800000
849.905396	199.400000
849.939270	189.500000
849.973022	190.700000
850.006897	197.900000
850.040710	195.400000
850.074524	196.900000
850.108337	192.000000
850.142151	197.900000
850.175964	200.100000
850.209778	193.000000
850.243530	181.400000
850.277405	199.200000
850.311218	192.900000
850.344971	189.900000
850.378845	201.300000
850.412659	189.700000
850.446411	194.100000
850.480225	193.000000
850.514038	199.200000
850.547791	196.300000
850.581665	192.200000
850.615417	189.700000
850.649231	193.500000
850.683044	192.200000
850.716858	192.700000
850.750610	193.500000
850.784424	198.000000
850.818176	191.100000
850.851929	191.400000
850.885742	190.400000
850.919495	192.800000
850.953308	200.200000
850.987122	201.700000
851.020874	188.300000
851.054626	186.300000
851.088440	195.800000
851.122192	196.800000
851.156006	192.800000
851.189697	192.400000
851.223511	188.500000
851.257263	196.600000
851.291077	195.200000
851.324829	192.800000
851.358582	190.700000
851.392334	190.600000
851.426086	191.800000
851.459900	201.100000
851.493591	192.700000
851.527344	194.500000
851.561157	192.800000
851.594849	195.700000
851.628662	197.600000
851.662415	201.200000
851.696106	195.400000
851.729858	198.200000
851.763611	187.300000
851.797363	195.200000
851.831116	188.400000
851.864868	195.800000
851.898560	197.500000
851.932312	190.900000
851.966064	195.600000
851.999817	193.900000
852.033569	192.500000
852.067261	196.800000
852.101013	190.700000
852.134766	192.900000
852.168457	182.700000
852.202209	197.200000
852.235901	188.100000
852.269592	196.400000
852.303345	202.800000
852.337036	198.000000
852.370789	194.200000
852.404541	196.100000
852.438171	189.300000
852.471924	191.100000
852.505676	187.200000
852.539307	195.000000
852.573059	189.400000
852.606812	189.600000
852.640442	191.400000
852.674194	197.600000
852.707886	204.900000
852.741577	200.400000
852.775269	186.600000
852.809021	194.100000
852.842651	196.500000
852.876404	197.400000
852.910034	194.200000
852.943787	198.700000
852.977478	195.200000
853.011108	189.500000
853.044861	192.700000
853.078552	200.400000
853.112183	196.100000
853.145874	195.000000
853.179626	184.000000
853.213257	194.800000
853.246948	191.200000
853.280640	201.000000
853.314270	191.500000
853.347961	200.400000
853.381653	195.700000
853.415283	197.100000
853.448975	189.200000
853.482605	193.600000
853.516296	192.600000
853.549988	187.900000
853.583618	195.300000
853.617310	195.800000
853.651001	196.000000
853.684631	188.400000
853.718323	190.000000
853.751953	202.400000
853.785583	184.500000
853.819275	198.200000
853.852966	194.300000
853.886536	184.200000
853.920227	188.400000
853.953918	198.700000
853.987488	191.400000
854.021179	197.100000
854.054749	200.800000
854.088440	194.800000
854.122131	188.900000
854.155701	197.200000
854.189331	190.300000
854.223022	197.100000
854.256592	195.600000
854.290283	190.100000
854.323914	196.700000
854.357483	194.800000
854.391174	195.700000
854.424744	203.800000
854.458374	195.200000
854.492065	204.500000
854.525696	191.200000
854.559265	200.700000
854.592896	205.300000
854.626465	193.800000
854.660095	193.700000
854.693787	195.500000
854.727356	191.500000
854.760986	197.300000
854.794617	194.400000
854.828186	192.300000
854.861816	197.400000
854.895447	194.400000
854.929016	195.200000
854.962585	196.700000
854.996155	201.600000
855.029785	195.900000
855.063416	196.200000
855.097046	197.900000
855.130615	188.300000
855.164185	199.600000
855.197754	194.200000
855.231384	197.200000
855.264954	192.300000
855.298523	197.100000
855.332153	193.300000
855.365723	201.800000
855.399292	189.600000
855.432922	192.100000
855.466492	195.000000
855.500061	188.900000
855.533630	190.600000
855.567200	197.200000
855.600769	199.200000
855.634338	198.200000
855.667969	195.700000
855.701477	190.200000
855.735046	191.100000
855.768616	186.100000
855.802185	197.000000
855.835754	208.300000
855.869324	185.000000
855.902893	192.600000
855.936401	199.400000
855.969971	195.400000
856.003540	186.800000
856.037109	196.200000
856.070618	194.600000
856.104187	188.300000
856.137695	191.000000
856.171265	183.500000
856.204834	194.900000
856.238403	199.700000
856.271912	192.500000
856.305481	195.700000
856.338989	186.600000
856.372559	196.700000
856.406128	195.000000
856.439636	198.500000
856.473145	191.600000
856.506653	200.200000
856.540222	193.700000
856.573792	201.800000
856.607300	198.000000
856.640808	188.700000
856.674377	194.900000
856.707825	221.500000
856.741394	198.900000
856.774902	191.300000
856.808472	186.000000
856.841980	196.000000
856.875488	201.900000
856.908936	186.400000
856.942505	191.700000
856.976013	193.500000
857.009521	188.800000
857.043030	195.700000
857.076477	193.800000
857.110046	199.600000
857.143555	194.100000
857.177063	197.800000
857.210571	190.400000
857.244080	187.800000
857.277527	195.800000
857.311035	193.800000
857.344543	197.300000
857.378052	192.500000
857.411499	198.000000
857.445068	204.000000
857.478516	194.300000
857.512024	189.700000
857.545532	192.300000
857.578979	197.200000
857.612427	192.600000
857.645874	191.700000
857.679382	195.400000
857.712891	197.800000
857.746399	193.600000
857.779846	200.200000
857.813354	199.300000
857.846741	193.900000
857.880249	189.000000
857.913757	195.500000
857.947266	194.500000
857.980652	198.800000
858.014160	190.100000
858.047546	192.500000
858.081055	193.300000
858.114563	202.700000
858.147949	188.300000
858.181458	198.200000
858.214844	192.500000
858.248352	186.100000
858.281799	200.400000
858.315308	205.800000
858.348694	197.500000
858.382141	202.800000
858.415588	197.200000
858.449036	199.500000
858.482483	196.400000
858.515930	190.400000
858.549377	193.500000
858.582825	200.300000
858.616211	196.700000
858.649658	196.600000
858.683105	188.300000
858.716553	189.900000
858.750000	187.600000
858.783386	191.300000
858.816833	186.300000
858.850281	194.500000
858.883728	195.300000
858.917114	191.800000
858.950562	202.400000
858.983948	201.600000
859.017395	198.700000
859.050781	192.300000
859.084167	189.500000
859.117615	187.300000
859.151062	198.800000
859.184448	190.300000
859.217834	192.000000
859.251282	191.600000
859.284668	189.500000
859.318054	184.000000
859.351440	190.800000
859.384888	202.200000
859.418274	184.500000
859.451721	184.700000
859.485046	197.500000
859.518494	195.000000
859.551819	190.800000
859.585266	197.200000
859.618652	197.200000
859.652039	186.900000
859.685425	190.400000
859.718811	186.400000
859.752197	181.600000
859.785583	200.500000
859.819031	202.300000
859.852356	197.100000
859.885742	190.300000
859.919067	193.600000
859.952454	192.400000
859.985901	199.300000
860.019287	192.400000
860.052612	0.000000
860.085999	0.000000
860.119324	0.000000
860.152710	0.000000
860.186096	0.000000
860.219421	0.000000
860.252808	0.000000
860.286133	0.000000
860.319519	0.000000
860.352905	0.000000
860.386292	0.000000
860.419617	0.000000
860.452942	0.000000
860.486267	0.000000
860.519653	0.000000
860.553040	0.000000
860.586365	0.000000
860.619690	0.000000
860.653076	0.000000
860.686340	0.000000
860.719727	0.000000
860.753113	0.000000
860.786377	0.000000
860.819763	0.000000
860.853027	0.000000
860.886414	0.000000
860.919739	0.000000
860.953125	0.000000
860.986389	0.000000
861.019714	0.000000
861.053040	0.000000
861.086365	0.000000
861.119690	0.000000
861.153076	0.000000
861.186340	0.000000
861.219666	0.000000
861.252930	0.000000
861.286316	0.000000
861.319641	0.000000
861.352905	0.000000
861.386230	0.000000
861.419495	0.000000
861.452820	0.000000
861.486145	0.000000
861.519470	0.000000
861.552734	0.000000
861.586060	0.000000
861.619324	0.000000
861.652649	0.000000
861.685974	0.000000
861.719238	0.000000
861.752563	0.000000
861.785828	0.000000
861.819092	0.000000
861.852417	0.000000
861.885742	0.000000
861.918945	0.000000
861.952271	0.000000
861.985535	0.000000
862.018799	0.000000
862.052124	0.000000
862.085449	0.000000
862.118652	0.000000
862.151978	0.000000
862.185181	0.000000
862.218506	0.000000
862.251770	0.000000
862.285034	0.000000
862.318298	0.000000
862.351562	0.000000
862.384827	0.000000
862.418091	0.000000
862.451355	0.000000
862.484619	0.000000
862.517883	0.000000
862.551086	0.000000
862.584351	0.000000
862.617676	0.000000
862.650940	0.000000
862.684143	0.000000
862.717407	0.000000
862.750610	0.000000
862.783875	0.000000
862.817139	0.000000
862.850342	0.000000
862.883606	0.000000
862.916870	0.000000
862.950073	0.000000
862.983337	0.000000
863.016602	0.000000
863.049805	0.000000
863.083069	0.000000
863.116211	0.000000
863.149475	0.000000
863.182739	0.000000
863.216003	0.000000
863.249146	0.000000
863.282410	0.000000
863.315613	0.000000
863.348816	0.000000
863.382080	0.000000
863.415222	0.000000
863.448486	0.000000
863.481689	0.000000
863.514893	0.000000
863.548157	0.000000
863.581360	0.000000
863.614502	0.000000
863.647766	0.000000
863.680908	0.000000
863.714172	0.000000
863.747375	0.000000
863.780579	0.000000
863.813721	0.000000
863.846985	0.000000
863.880127	0.000000
863.913330	0.000000
863.946533	0.000000
863.979675	0.000000
864.012939	0.000000
