Model Number: SPM-001-M   
Serial Number: 10090201
Firmware Version: 004.17.6
Exposure Time: 500000.000000us
Data Taken on: 10-03-2021 12:33:25.454
Wavelength	Amplitude
733.770752	0.000000
733.808716	0.000000
733.846619	0.000000
733.884583	0.000000
733.922546	0.000000
733.960449	0.000000
733.998413	0.000000
734.036377	0.000000
734.074219	0.000000
734.112183	0.000000
734.150085	0.000000
734.188049	0.000000
734.226013	0.000000
734.263916	0.000000
734.301819	0.000000
734.339783	0.000000
734.377686	0.000000
734.415588	0.000000
734.453552	0.000000
734.491455	0.000000
734.529419	0.000000
734.567322	0.000000
734.605225	0.000000
734.643127	0.000000
734.681091	0.000000
734.718994	0.000000
734.756897	0.000000
734.794800	0.000000
734.832703	0.000000
734.870667	0.000000
734.908508	0.000000
734.946472	0.000000
734.984375	0.000000
735.022278	0.000000
735.060181	0.000000
735.098083	0.000000
735.135986	0.000000
735.173889	0.000000
735.211792	0.000000
735.249695	0.000000
735.287598	0.000000
735.325439	0.000000
735.363403	0.000000
735.401306	0.000000
735.439148	0.000000
735.477051	0.000000
735.515015	0.000000
735.552856	0.000000
735.590759	0.000000
735.628662	0.000000
735.666504	0.000000
735.704407	0.000000
735.742310	0.000000
735.780212	0.000000
735.818115	0.000000
735.856018	0.000000
735.893860	0.000000
735.931763	0.000000
735.969604	0.000000
736.007507	0.000000
736.045410	0.000000
736.083252	0.000000
736.121094	0.000000
736.158997	0.000000
736.196838	0.000000
736.234741	0.000000
736.272644	0.000000
736.310486	0.000000
736.348389	0.000000
736.386230	0.000000
736.424072	0.000000
736.461975	0.000000
736.499878	0.000000
736.537720	0.000000
736.575562	0.000000
736.613403	0.000000
736.651306	0.000000
736.689148	0.000000
736.726990	0.000000
736.764893	0.000000
736.802734	0.000000
736.840576	0.000000
736.878418	0.000000
736.916321	0.000000
736.954102	0.000000
736.992004	0.000000
737.029846	0.000000
737.067688	0.000000
737.105530	0.000000
737.143372	0.000000
737.181213	0.000000
737.219116	0.000000
737.256897	0.000000
737.294739	0.000000
737.332642	0.000000
737.370422	0.000000
737.408325	0.000000
737.446167	0.000000
737.483948	0.000000
737.521790	0.000000
737.559692	0.000000
737.597473	0.000000
737.635315	0.000000
737.673157	0.000000
737.710999	0.000000
737.748840	0.000000
737.786621	0.000000
737.824463	0.000000
737.862305	0.000000
737.900085	0.000000
737.937927	0.000000
737.975769	0.000000
738.013550	0.000000
738.051392	0.000000
738.089233	0.000000
738.127014	0.000000
738.164856	0.000000
738.202698	0.000000
738.240479	0.000000
738.278320	0.000000
738.316162	0.000000
738.353943	0.000000
738.391785	0.000000
738.429565	0.000000
738.467407	0.000000
738.505188	0.000000
738.542969	0.000000
738.580811	0.000000
738.618652	0.000000
738.656372	0.000000
738.694214	0.000000
738.732056	0.000000
738.769836	0.000000
738.807617	0.000000
738.845459	0.000000
738.883240	0.000000
738.921021	0.000000
738.958862	0.000000
738.996582	0.000000
739.034424	0.000000
739.072205	0.000000
739.109985	0.000000
739.147827	0.000000
739.185547	0.000000
739.223389	0.000000
739.261169	0.000000
739.298889	0.000000
739.336731	0.000000
739.374512	0.000000
739.412292	0.000000
739.450073	0.000000
739.487854	0.000000
739.525635	0.000000
739.563416	0.000000
739.601135	0.000000
739.638977	0.000000
739.676758	0.000000
739.714478	0.000000
739.752258	0.000000
739.790100	0.000000
739.827820	0.000000
739.865601	0.000000
739.903381	0.000000
739.941101	0.000000
739.978882	195.600000
740.016724	192.000000
740.054443	195.800000
740.092224	189.800000
740.130005	189.700000
740.167725	190.200000
740.205505	188.700000
740.243225	198.700000
740.281006	193.600000
740.318787	186.200000
740.356506	198.100000
740.394287	197.400000
740.432068	187.500000
740.469727	186.700000
740.507507	196.500000
740.545288	192.900000
740.583008	196.000000
740.620789	193.500000
740.658569	184.900000
740.696228	192.500000
740.734009	197.200000
740.771790	180.300000
740.809509	197.000000
740.847229	187.600000
740.884949	190.100000
740.922729	185.800000
740.960449	190.700000
740.998169	187.400000
741.035950	188.400000
741.073669	192.400000
741.111389	191.600000
741.149170	202.500000
741.186890	204.100000
741.224609	197.300000
741.262329	193.400000
741.300110	202.200000
741.337769	186.500000
741.375549	185.800000
741.413208	193.500000
741.450989	188.000000
741.488708	189.800000
741.526367	190.800000
741.564148	196.800000
741.601868	197.300000
741.639526	192.100000
741.677307	193.500000
741.715027	194.800000
741.752686	188.500000
741.790466	199.600000
741.828186	195.300000
741.865845	188.300000
741.903564	183.600000
741.941345	192.500000
741.979004	189.000000
742.016724	194.800000
742.054382	193.600000
742.092102	198.600000
742.129822	186.100000
742.167480	189.700000
742.205200	191.200000
742.242920	193.300000
742.280640	198.600000
742.318359	189.200000
742.356079	189.000000
742.393738	194.900000
742.431396	190.500000
742.469116	196.000000
742.506775	183.700000
742.544495	194.800000
742.582214	196.700000
742.619873	191.600000
742.657593	198.700000
742.695251	196.300000
742.732971	191.400000
742.770630	194.900000
742.808289	192.700000
742.846008	192.100000
742.883728	193.900000
742.921326	193.300000
742.959045	189.500000
742.996765	191.700000
743.034424	192.000000
743.072083	188.900000
743.109802	193.300000
743.147400	187.300000
743.185120	193.800000
743.222839	193.300000
743.260437	197.600000
743.298157	194.900000
743.335754	183.100000
743.373474	191.100000
743.411133	184.400000
743.448792	192.800000
743.486450	192.200000
743.524170	185.400000
743.561768	191.900000
743.599487	199.000000
743.637146	204.200000
743.674744	189.800000
743.712463	190.300000
743.750122	193.500000
743.787720	195.400000
743.825439	188.500000
743.863037	190.800000
743.900696	192.500000
743.938416	218.000000
743.976013	192.300000
744.013672	199.900000
744.051331	198.000000
744.088928	201.900000
744.126587	199.100000
744.164307	194.300000
744.201904	190.800000
744.239563	196.800000
744.277222	195.300000
744.314819	191.700000
744.352478	200.500000
744.390137	193.500000
744.427734	194.200000
744.465393	190.300000
744.502991	188.200000
744.540649	195.500000
744.578308	192.400000
744.615906	186.400000
744.653564	181.800000
744.691223	197.200000
744.728821	185.000000
744.766418	191.800000
744.804077	194.200000
744.841675	189.400000
744.879333	187.000000
744.916992	192.000000
744.954529	189.700000
744.992187	200.200000
745.029785	191.700000
745.067444	189.600000
745.105042	193.700000
745.142639	196.300000
745.180298	201.500000
745.217896	191.100000
745.255493	191.400000
745.293152	197.000000
745.330750	196.800000
745.368347	201.300000
745.405945	196.400000
745.443604	193.100000
745.481140	196.700000
745.518799	191.000000
745.556396	195.600000
745.593994	197.800000
745.631592	191.900000
745.669189	185.700000
745.706787	194.500000
745.744385	188.400000
745.781982	195.200000
745.819580	190.300000
745.857178	191.500000
745.894775	192.700000
745.932373	194.700000
745.969971	193.300000
746.007568	184.700000
746.045166	202.900000
746.082764	198.300000
746.120300	195.400000
746.157898	196.300000
746.195557	192.700000
746.233093	187.800000
746.270691	196.100000
746.308228	194.900000
746.345825	198.600000
746.383423	196.200000
746.420959	188.100000
746.458557	189.500000
746.496155	190.900000
746.533691	190.700000
746.571289	188.300000
746.608887	192.900000
746.646423	192.600000
746.684021	194.700000
746.721619	189.700000
746.759155	195.000000
746.796753	185.300000
746.834351	187.000000
746.871826	190.200000
746.909424	198.600000
746.946960	195.000000
746.984558	190.400000
747.022156	189.600000
747.059631	199.600000
747.097229	195.500000
747.134827	191.300000
747.172363	200.800000
747.209900	195.200000
747.247498	186.500000
747.285034	199.300000
747.322571	199.500000
747.360168	190.400000
747.397644	185.100000
747.435242	196.500000
747.472778	200.400000
747.510315	189.700000
747.547913	190.400000
747.585388	199.700000
747.622925	191.900000
747.660522	182.800000
747.697998	189.400000
747.735596	192.500000
747.773132	188.700000
747.810669	191.900000
747.848206	196.600000
747.885742	187.600000
747.923279	187.200000
747.960815	195.000000
747.998352	192.600000
748.035889	198.500000
748.073425	197.700000
748.110901	190.300000
748.148437	187.800000
748.185974	194.300000
748.223511	202.700000
748.261047	194.000000
748.298584	194.100000
748.336060	192.900000
748.373596	196.000000
748.411133	212.000000
748.448608	188.400000
748.486145	196.600000
748.523682	199.000000
748.561218	198.400000
748.598755	193.600000
748.636292	195.700000
748.673706	187.800000
748.711243	199.600000
748.748718	194.500000
748.786255	193.000000
748.823792	193.700000
748.861267	187.200000
748.898804	194.500000
748.936340	196.000000
748.973816	192.200000
749.011292	199.000000
749.048828	194.200000
749.086304	195.900000
749.123840	204.100000
749.161316	187.800000
749.198792	202.400000
749.236328	199.700000
749.273743	193.500000
749.311279	191.000000
749.348816	195.000000
749.386230	194.100000
749.423767	181.800000
749.461304	196.500000
749.498718	193.500000
749.536255	198.500000
749.573730	206.200000
749.611206	198.400000
749.648682	192.600000
749.686218	192.600000
749.723633	197.700000
749.761169	191.200000
749.798645	189.100000
749.836060	191.500000
749.873596	189.500000
749.911011	192.800000
749.948547	198.900000
749.986023	193.600000
750.023437	191.200000
750.060913	186.500000
750.098450	186.100000
750.135864	192.800000
750.173340	193.300000
750.210815	197.500000
750.248291	188.000000
750.285767	193.100000
750.323242	200.600000
750.360657	196.100000
750.398132	187.700000
750.435608	198.700000
750.473022	188.900000
750.510498	188.100000
750.547974	189.500000
750.585449	191.200000
750.622925	182.400000
750.660339	202.600000
750.697815	192.100000
750.735291	192.600000
750.772644	194.400000
750.810120	193.100000
750.847595	195.300000
750.885010	189.500000
750.922485	201.600000
750.959961	191.900000
750.997375	201.000000
751.034851	197.200000
751.072266	197.900000
751.109680	185.100000
751.147156	197.700000
751.184570	195.800000
751.221985	194.300000
751.259460	184.300000
751.296875	193.200000
751.334290	193.800000
751.371765	197.500000
751.409180	197.600000
751.446594	199.300000
751.484070	195.500000
751.521423	194.000000
751.558899	193.800000
751.596375	200.100000
751.633728	200.800000
751.671204	205.700000
751.708618	188.700000
751.746033	193.000000
751.783447	188.900000
751.820801	188.500000
751.858276	194.600000
751.895691	193.200000
751.933105	191.500000
751.970520	186.900000
752.007935	190.900000
752.045349	197.200000
752.082764	190.800000
752.120178	191.700000
752.157532	189.100000
752.195007	189.900000
752.232422	196.100000
752.269775	197.700000
752.307190	196.000000
752.344543	188.500000
752.382019	191.600000
752.419434	191.300000
752.456787	195.400000
752.494202	197.500000
752.531616	194.900000
752.568970	197.900000
752.606384	195.100000
752.643799	195.700000
752.681152	202.000000
752.718567	196.600000
752.755981	185.400000
752.793335	195.800000
752.830750	184.400000
752.868164	200.100000
752.905518	188.700000
752.942932	196.900000
752.980225	189.000000
753.017639	198.100000
753.055054	192.200000
753.092407	195.500000
753.129822	198.600000
753.167175	203.700000
753.204529	192.900000
753.241943	190.100000
753.279358	186.500000
753.316650	197.500000
753.354065	195.700000
753.391479	198.900000
753.428772	203.200000
753.466187	196.300000
753.503479	188.300000
753.540894	192.300000
753.578308	187.100000
753.615601	186.700000
753.653015	192.900000
753.690369	191.100000
753.727722	189.200000
753.765076	185.700000
753.802490	187.900000
753.839783	184.000000
753.877136	190.600000
753.914551	209.300000
753.951843	187.700000
753.989258	196.200000
754.026611	194.100000
754.063904	196.200000
754.101257	189.400000
754.138611	185.800000
754.175964	193.800000
754.213318	205.200000
754.250610	186.200000
754.288025	189.500000
754.325378	188.100000
754.362671	199.400000
754.400024	192.900000
754.437378	203.400000
754.474670	202.900000
754.512085	190.400000
754.549438	194.100000
754.586731	190.600000
754.624084	192.400000
754.661438	188.500000
754.698730	201.800000
754.736084	191.900000
754.773376	191.300000
754.810730	195.600000
754.848083	191.200000
754.885315	197.000000
754.922668	185.000000
754.960022	188.200000
754.997314	199.400000
755.034668	194.100000
755.072021	195.300000
755.109253	192.400000
755.146606	202.700000
755.183960	192.400000
755.221252	203.600000
755.258545	199.600000
755.295898	200.000000
755.333191	202.200000
755.370544	199.700000
755.407776	196.400000
755.445129	196.100000
755.482422	200.700000
755.519714	190.600000
755.557068	186.400000
755.594360	186.600000
755.631653	200.100000
755.668945	204.900000
755.706299	198.300000
755.743530	207.400000
755.780884	203.800000
755.818176	203.600000
755.855408	202.300000
755.892761	197.800000
755.930054	198.700000
755.967346	198.900000
756.004639	200.700000
756.041870	198.200000
756.079224	203.300000
756.116516	193.600000
756.153748	202.500000
756.191040	206.200000
756.228394	201.700000
756.265625	194.000000
756.302917	198.300000
756.340210	194.200000
756.377441	204.000000
756.414795	205.800000
756.452087	199.300000
756.489319	192.700000
756.526611	202.500000
756.563843	200.900000
756.601135	212.700000
756.638428	207.900000
756.675659	199.500000
756.712952	204.700000
756.750244	204.300000
756.787476	201.500000
756.824768	207.600000
756.862061	198.900000
756.899292	246.600000
756.936584	204.500000
756.973816	213.000000
757.011047	214.400000
757.048340	201.000000
757.085632	202.200000
757.122864	218.400000
757.160156	201.300000
757.197327	204.800000
757.234619	207.900000
757.271912	201.000000
757.309082	207.600000
757.346375	201.600000
757.383667	209.500000
757.420837	205.100000
757.458130	203.400000
757.495422	203.100000
757.532593	207.700000
757.569885	197.300000
757.607117	200.200000
757.644348	205.300000
757.681580	218.900000
757.718811	193.300000
757.756042	204.600000
757.793335	202.900000
757.830505	210.000000
757.867798	201.700000
757.905029	202.800000
757.942200	208.900000
757.979492	202.100000
758.016724	205.100000
758.053894	204.200000
758.091187	224.600000
758.128418	207.800000
758.165588	205.400000
758.202820	219.200000
758.240112	209.900000
758.277283	217.400000
758.314514	210.800000
758.351685	205.900000
758.388916	218.300000
758.426147	216.300000
758.463379	218.300000
758.500610	210.900000
758.537842	209.900000
758.575012	215.800000
758.612244	204.000000
758.649475	223.500000
758.686646	204.700000
758.723877	217.300000
758.761108	217.800000
758.798279	210.900000
758.835510	213.600000
758.872742	218.600000
758.909851	214.000000
758.947083	214.800000
758.984253	214.300000
759.021484	216.700000
759.058716	215.900000
759.095886	216.700000
759.133057	211.800000
759.170288	216.300000
759.207458	209.200000
759.244690	224.700000
759.281860	224.300000
759.319031	213.300000
759.356262	212.100000
759.393433	212.200000
759.430603	212.200000
759.467773	213.500000
759.505005	220.500000
759.542175	220.800000
759.579346	212.200000
759.616516	213.800000
759.653687	218.900000
759.690918	211.400000
759.728027	216.900000
759.765259	215.600000
759.802429	221.100000
759.839539	219.000000
759.876770	222.800000
759.913940	225.500000
759.951111	219.500000
759.988281	217.500000
760.025452	214.800000
760.062561	213.700000
760.099792	227.000000
760.136963	220.700000
760.174072	218.100000
760.211243	212.600000
760.248413	214.100000
760.285583	213.600000
760.322754	228.500000
760.359863	225.100000
760.397034	224.700000
760.434204	218.100000
760.471375	220.900000
760.508545	218.000000
760.545715	218.200000
760.582825	214.600000
760.619995	224.800000
760.657166	212.700000
760.694275	227.900000
760.731445	222.800000
760.768555	222.800000
760.805664	223.500000
760.842834	223.600000
760.879944	225.200000
760.917114	223.700000
760.954285	222.400000
760.991394	216.400000
761.028564	228.200000
761.065674	227.100000
761.102783	220.400000
761.139954	230.800000
761.177124	228.800000
761.214172	231.600000
761.251343	224.100000
761.288452	226.000000
761.325562	229.400000
761.362732	223.200000
761.399841	227.800000
761.436951	229.500000
761.474121	225.300000
761.511169	230.100000
761.548340	234.600000
761.585449	235.000000
761.622559	234.300000
761.659668	233.200000
761.696838	239.200000
761.733887	235.400000
761.771057	231.100000
761.808167	233.100000
761.845276	239.100000
761.882385	247.300000
761.919434	236.200000
761.956604	256.300000
761.993713	233.600000
762.030762	242.900000
762.067871	236.300000
762.105042	235.700000
762.142090	244.400000
762.179199	239.200000
762.216309	243.900000
762.253418	256.500000
762.290527	249.400000
762.327637	245.900000
762.364685	234.200000
762.401794	246.500000
762.438904	242.300000
762.475952	237.800000
762.513062	236.600000
762.550110	239.000000
762.587219	255.700000
762.624329	254.400000
762.661377	248.100000
762.698486	246.200000
762.735596	246.200000
762.772644	240.300000
762.809753	237.400000
762.846863	247.000000
762.883911	250.200000
762.921021	250.700000
762.958069	248.900000
762.995117	256.200000
763.032227	257.400000
763.069336	248.700000
763.106323	242.600000
763.143433	243.300000
763.180481	251.200000
763.217590	252.700000
763.254639	249.600000
763.291687	250.200000
763.328735	260.500000
763.365845	254.000000
763.402893	251.500000
763.439941	255.900000
763.477051	259.600000
763.514038	260.200000
763.551147	250.400000
763.588196	254.800000
763.625244	254.400000
763.662292	264.100000
763.699402	266.700000
763.736389	261.500000
763.773499	271.700000
763.810486	264.800000
763.847534	261.100000
763.884644	265.300000
763.921631	258.800000
763.958679	272.400000
763.995728	261.600000
764.032776	271.200000
764.069824	257.700000
764.106873	268.100000
764.143860	273.200000
764.180969	265.700000
764.218018	272.700000
764.255005	266.900000
764.292053	268.300000
764.329102	279.400000
764.366089	278.800000
764.403137	276.100000
764.440125	267.100000
764.477173	271.500000
764.514221	272.900000
764.551208	270.200000
764.588257	267.800000
764.625305	278.100000
764.662292	283.300000
764.699341	286.800000
764.736389	279.900000
764.773376	294.700000
764.810425	282.600000
764.847473	289.600000
764.884399	283.100000
764.921448	292.400000
764.958435	290.900000
764.995483	279.900000
765.032532	296.100000
765.069458	282.500000
765.106506	283.800000
765.143555	281.900000
765.180481	287.000000
765.217529	294.700000
765.254578	280.100000
765.291504	291.200000
765.328552	286.900000
765.365540	282.700000
765.402527	298.000000
765.439575	283.300000
765.476501	280.600000
765.513550	282.100000
765.550537	287.100000
765.587463	294.800000
765.624512	286.800000
765.661499	279.100000
765.698486	295.300000
765.735474	286.400000
765.772461	289.200000
765.809448	296.400000
765.846436	296.500000
765.883423	299.600000
765.920410	293.700000
765.957397	288.900000
765.994385	295.400000
766.031311	304.400000
766.068359	297.900000
766.105286	298.200000
766.142273	305.800000
766.179260	300.400000
766.216187	293.300000
766.253174	289.600000
766.290161	299.400000
766.327148	303.800000
766.364136	304.400000
766.401123	319.400000
766.438049	298.900000
766.475037	312.300000
766.512024	308.100000
766.548950	322.500000
766.585937	317.400000
766.622864	313.500000
766.659790	314.000000
766.696777	303.700000
766.733704	319.200000
766.770691	310.200000
766.807678	326.600000
766.844604	320.600000
766.881531	320.000000
766.918518	327.800000
766.955444	330.100000
766.992432	323.100000
767.029358	325.400000
767.066284	331.500000
767.103271	327.100000
767.140198	356.900000
767.177124	344.400000
767.214050	335.100000
767.251038	337.800000
767.287964	334.800000
767.324890	331.500000
767.361816	337.800000
767.398743	344.300000
767.435730	338.000000
767.472595	342.000000
767.509583	347.200000
767.546509	337.400000
767.583374	343.200000
767.620361	337.100000
767.657288	344.200000
767.694214	345.000000
767.731140	343.500000
767.768066	344.400000
767.804993	351.200000
767.841919	344.100000
767.878845	349.100000
767.915710	359.400000
767.952698	351.300000
767.989563	353.700000
768.026489	356.700000
768.063416	351.300000
768.100281	351.800000
768.137207	366.300000
768.174133	363.400000
768.211060	364.800000
768.247986	362.300000
768.284912	362.100000
768.321777	363.700000
768.358704	362.100000
768.395630	367.000000
768.432495	360.600000
768.469421	369.500000
768.506348	375.400000
768.543152	382.100000
768.580078	377.400000
768.616943	380.200000
768.653870	380.000000
768.690796	379.500000
768.727661	377.500000
768.764587	380.600000
768.801453	377.100000
768.838318	389.400000
768.875244	385.400000
768.912109	393.900000
768.948975	385.400000
768.985901	384.900000
769.022766	387.700000
769.059631	392.700000
769.096558	388.400000
769.133362	390.100000
769.170288	392.000000
769.207214	392.700000
769.244019	396.800000
769.280945	397.900000
769.317810	405.000000
769.354675	399.400000
769.391541	409.200000
769.428406	407.100000
769.465271	416.800000
769.502136	404.100000
769.539062	410.600000
769.575867	410.100000
769.612732	409.900000
769.649597	417.800000
769.686462	421.500000
769.723328	413.900000
769.760193	413.500000
769.797058	417.300000
769.833923	425.600000
769.870728	422.000000
769.907593	426.600000
769.944519	426.700000
769.981323	427.700000
770.018188	431.000000
770.055054	425.600000
770.091858	425.600000
770.128723	440.400000
770.165588	447.300000
770.202393	430.300000
770.239258	442.600000
770.276062	438.600000
770.312927	435.500000
770.349792	447.000000
770.386597	443.800000
770.423462	450.000000
770.460327	460.100000
770.497131	441.900000
770.533997	435.700000
770.570862	453.200000
770.607605	455.100000
770.644470	449.400000
770.681335	447.600000
770.718140	452.100000
770.754944	445.300000
770.791809	445.200000
770.828613	447.000000
770.865479	446.300000
770.902222	460.400000
770.939087	450.200000
770.975952	441.400000
771.012695	447.600000
771.049561	465.200000
771.086365	453.200000
771.123169	448.200000
771.159973	454.100000
771.196838	455.400000
771.233582	458.600000
771.270447	459.800000
771.307251	461.500000
771.344055	459.000000
771.380859	461.800000
771.417664	455.400000
771.454468	464.800000
771.491272	464.400000
771.528076	463.600000
771.564880	466.500000
771.601685	475.200000
771.638428	466.900000
771.675293	471.400000
771.712097	460.600000
771.748840	481.100000
771.785645	472.700000
771.822449	476.500000
771.859253	477.900000
771.896057	476.200000
771.932861	490.100000
771.969604	480.100000
772.006409	474.200000
772.043213	489.200000
772.079956	487.400000
772.116760	477.800000
772.153503	483.200000
772.190308	493.400000
772.227112	486.200000
772.263855	482.700000
772.300659	487.900000
772.337463	497.400000
772.374207	487.600000
772.411011	483.700000
772.447754	489.900000
772.484497	511.500000
772.521301	505.500000
772.558105	502.600000
772.594849	505.700000
772.631592	510.800000
772.668396	507.500000
772.705139	515.900000
772.741882	514.000000
772.778625	529.600000
772.815430	530.900000
772.852173	525.400000
772.888916	534.000000
772.925720	535.100000
772.962463	544.900000
772.999207	537.600000
773.035950	544.000000
773.072754	548.500000
773.109436	541.100000
773.146240	543.800000
773.182922	543.300000
773.219727	555.600000
773.256470	550.500000
773.293152	538.100000
773.329956	543.900000
773.366699	552.500000
773.403381	540.100000
773.440186	554.400000
773.476929	557.100000
773.513611	551.500000
773.550354	550.300000
773.587158	553.500000
773.623840	548.000000
773.660583	561.600000
773.697327	581.200000
773.734009	566.000000
773.770813	563.500000
773.807495	564.700000
773.844238	569.500000
773.880981	588.500000
773.917664	586.200000
773.954407	588.700000
773.991150	580.000000
774.027832	585.300000
774.064575	577.200000
774.101318	589.000000
774.138000	598.600000
774.174744	591.700000
774.211487	596.100000
774.248108	582.600000
774.284851	587.100000
774.321594	597.100000
774.358276	604.000000
774.395020	613.700000
774.431702	608.200000
774.468384	602.200000
774.505127	598.100000
774.541809	612.500000
774.578491	628.000000
774.615234	625.700000
774.651917	620.800000
774.688599	624.700000
774.725342	628.900000
774.762024	629.100000
774.798706	637.900000
774.835449	637.600000
774.872070	644.900000
774.908813	641.600000
774.945496	636.300000
774.982178	638.000000
775.018860	648.700000
775.055542	653.100000
775.092224	650.000000
775.128967	654.900000
775.165588	652.000000
775.202271	642.300000
775.239014	658.100000
775.275635	659.600000
775.312317	658.600000
775.349060	663.400000
775.385681	663.200000
775.422363	655.900000
775.459045	664.400000
775.495667	667.200000
775.532410	674.500000
775.569092	676.000000
775.605713	674.500000
775.642395	672.300000
775.679016	674.500000
775.715698	678.500000
775.752380	683.000000
775.789001	676.500000
775.825684	677.200000
775.862366	675.700000
775.898987	690.800000
775.935669	681.800000
775.972351	702.900000
776.008972	697.800000
776.045654	697.900000
776.082336	690.800000
776.118958	689.700000
776.155640	696.400000
776.192322	705.200000
776.228882	709.900000
776.265564	704.900000
776.302185	700.900000
776.338867	707.500000
776.375488	692.500000
776.412109	709.700000
776.448792	715.300000
776.485413	720.100000
776.522034	709.300000
776.558716	702.200000
776.595337	704.200000
776.631958	711.400000
776.668579	712.100000
776.705261	717.600000
776.741882	713.900000
776.778503	708.700000
776.815186	701.800000
776.851746	715.900000
776.888367	719.500000
776.924988	724.300000
776.961609	712.300000
776.998291	717.000000
777.034851	703.100000
777.071472	720.500000
777.108154	721.200000
777.144714	730.700000
777.181335	731.100000
777.218018	723.800000
777.254578	725.300000
777.291199	724.600000
777.327759	733.700000
777.364380	740.100000
777.401062	744.000000
777.437622	757.800000
777.474243	746.200000
777.510864	753.200000
777.547424	748.100000
777.584045	755.500000
777.620667	759.300000
777.657227	762.000000
777.693848	763.500000
777.730469	778.500000
777.767029	766.800000
777.803650	775.300000
777.840271	766.800000
777.876831	767.600000
777.913452	774.700000
777.950012	753.400000
777.986633	755.600000
778.023193	759.700000
778.059753	760.100000
778.096375	761.200000
778.132996	773.600000
778.169556	759.000000
778.206116	764.200000
778.242737	758.700000
778.279297	774.600000
778.315857	766.900000
778.352478	773.600000
778.389038	786.900000
778.425598	787.600000
778.462219	800.100000
778.498718	796.900000
778.535339	801.700000
778.571838	801.500000
778.608459	814.400000
778.645020	805.600000
778.681580	817.000000
778.718140	820.200000
778.754761	816.800000
778.791260	819.300000
778.827881	834.400000
778.864441	833.700000
778.900940	837.100000
778.937561	833.300000
778.974121	839.600000
779.010620	819.800000
779.047241	827.800000
779.083801	841.900000
779.120300	840.800000
779.156860	844.900000
779.193359	843.400000
779.229980	842.500000
779.266541	852.700000
779.303040	856.500000
779.339600	847.200000
779.376160	842.700000
779.412659	851.700000
779.449219	847.200000
779.485779	858.700000
779.522278	858.500000
779.558838	861.900000
779.595398	863.200000
779.631897	866.900000
779.668457	858.800000
779.705017	872.700000
779.741516	862.800000
779.778076	858.700000
779.814575	865.100000
779.851074	874.800000
779.887634	869.500000
779.924133	880.300000
779.960693	869.700000
779.997253	879.600000
780.033691	883.000000
780.070251	888.300000
780.106812	897.500000
780.143250	897.000000
780.179810	888.700000
780.216370	897.700000
780.252808	903.200000
780.289368	917.900000
780.325867	919.700000
780.362366	915.100000
780.398865	926.900000
780.435364	920.900000
780.471863	935.700000
780.508423	931.500000
780.544861	945.000000
780.581421	949.500000
780.617920	937.600000
780.654419	933.200000
780.690918	945.500000
780.727417	953.900000
780.763916	952.300000
780.800415	956.000000
780.836914	940.500000
780.873352	947.100000
780.909912	938.600000
780.946411	952.400000
780.982849	955.800000
781.019348	978.200000
781.055786	970.200000
781.092346	960.500000
781.128845	970.800000
781.165283	975.100000
781.201782	978.500000
781.238281	988.000000
781.274719	993.900000
781.311218	983.400000
781.347717	991.100000
781.384155	980.500000
781.420654	984.800000
781.457092	996.400000
781.493591	997.200000
781.530090	984.000000
781.566528	989.800000
781.602966	993.300000
781.639465	987.700000
781.675903	987.700000
781.712402	1002.600000
781.748901	1005.900000
781.785278	994.300000
781.821777	1006.000000
781.858276	999.700000
781.894714	1011.400000
781.931152	1004.500000
781.967651	1014.400000
782.004089	1003.100000
782.040527	1019.000000
782.076965	1014.600000
782.113403	1013.200000
782.149902	1018.100000
782.186340	1015.300000
782.222778	1028.500000
782.259277	1005.000000
782.295654	1004.700000
782.332092	1012.200000
782.368591	1010.900000
782.404968	1005.400000
782.441467	1012.400000
782.477905	1012.600000
782.514282	1003.900000
782.550781	1026.500000
782.587219	1019.100000
782.623596	1029.400000
782.660095	1032.300000
782.696472	1036.800000
782.732910	1034.000000
782.769348	1041.900000
782.805786	1055.600000
782.842224	1051.000000
782.878662	1041.900000
782.915039	1041.800000
782.951477	1045.900000
782.987915	1042.400000
783.024292	1049.500000
783.060730	1048.500000
783.097168	1029.200000
783.133545	1025.000000
783.169983	1019.900000
783.206421	1010.800000
783.242798	1008.800000
783.279236	997.700000
783.315613	991.600000
783.352051	979.100000
783.388489	960.700000
783.424866	929.400000
783.461304	916.000000
783.497681	891.600000
783.534058	847.700000
783.570496	817.300000
783.606934	769.100000
783.643250	740.500000
783.679687	719.800000
783.716125	685.500000
783.752441	677.200000
783.788879	686.600000
783.825317	694.400000
783.861633	705.400000
783.898071	717.100000
783.934448	743.800000
783.970825	775.100000
784.007263	798.300000
784.043579	827.100000
784.080017	858.800000
784.116394	884.400000
784.152710	918.200000
784.189148	956.100000
784.225525	986.400000
784.261902	994.200000
784.298279	1017.500000
784.334656	1036.500000
784.371033	1041.600000
784.407410	1057.400000
784.443787	1054.700000
784.480164	1031.400000
784.516541	1016.900000
784.552856	1025.500000
784.589233	1021.100000
784.625610	1022.000000
784.661987	1057.200000
784.698364	1038.900000
784.734741	1029.400000
784.771057	1030.600000
784.807434	1036.100000
784.843811	1057.600000
784.880127	1061.600000
784.916504	1092.300000
784.952881	1094.200000
784.989197	1087.800000
785.025574	1087.000000
785.061951	1101.300000
785.098267	1125.100000
785.134644	1122.800000
785.170959	1122.300000
785.207275	1126.400000
785.243652	1124.600000
785.279968	1109.800000
785.316345	1116.600000
785.352722	1126.100000
785.388977	1132.000000
785.425354	1105.300000
785.461731	1084.100000
785.498047	1076.600000
785.534363	1074.400000
785.570679	1075.400000
785.606995	1077.300000
785.643372	1084.100000
785.679687	1069.800000
785.716003	1049.400000
785.752380	1058.600000
785.788635	1062.600000
785.825012	1081.400000
785.861328	1091.600000
785.897644	1079.400000
785.933960	1085.600000
785.970337	1097.900000
786.006592	1118.100000
786.042908	1132.000000
786.079285	1143.400000
786.115540	1153.200000
786.151855	1146.500000
786.188171	1140.600000
786.224487	1151.800000
786.260803	1154.400000
786.297119	1168.600000
786.333435	1167.900000
786.369751	1157.700000
786.406006	1163.100000
786.442322	1142.100000
786.478638	1139.200000
786.514954	1157.000000
786.551270	1154.100000
786.587585	1165.200000
786.623840	1149.200000
786.660156	1139.400000
786.696472	1124.700000
786.732727	1123.200000
786.769043	1128.600000
786.805298	1116.700000
786.841614	1121.500000
786.877930	1129.500000
786.914124	1112.800000
786.950439	1121.800000
786.986755	1137.100000
787.023010	1154.600000
787.059326	1158.100000
787.095642	1158.100000
787.131836	1170.700000
787.168152	1155.500000
787.204468	1167.400000
787.240723	1188.600000
787.276978	1207.100000
787.313293	1213.000000
787.349548	1212.800000
787.385803	1217.000000
787.422058	1203.400000
787.458313	1202.700000
787.494629	1204.100000
787.530823	1200.200000
787.567139	1189.800000
787.603455	1179.800000
787.639648	1160.700000
787.675903	1163.400000
787.712219	1169.700000
787.748413	1165.700000
787.784729	1173.400000
787.820984	1164.300000
787.857178	1147.400000
787.893494	1136.600000
787.929749	1135.300000
787.965942	1148.600000
788.002258	1167.000000
788.038452	1173.500000
788.074707	1154.600000
788.110962	1160.000000
788.147217	1152.000000
788.183472	1165.400000
788.219727	1176.400000
788.255920	1192.300000
788.292175	1201.100000
788.328430	1194.000000
788.364624	1175.100000
788.400879	1164.800000
788.437134	1171.500000
788.473328	1174.200000
788.509583	1169.700000
788.545837	1164.200000
788.582031	1155.800000
788.618286	1140.400000
788.654480	1134.600000
788.690735	1151.500000
788.726990	1173.700000
788.763184	1166.400000
788.799377	1177.500000
788.835632	1164.500000
788.871826	1184.700000
788.908081	1187.600000
788.944336	1182.400000
788.980469	1202.700000
789.016724	1194.100000
789.052979	1193.100000
789.089111	1173.000000
789.125366	1172.700000
789.161621	1157.500000
789.197754	1169.300000
789.234009	1158.200000
789.270142	1143.500000
789.306396	1135.400000
789.342590	1125.500000
789.378784	1102.500000
789.414978	1099.500000
789.451233	1123.700000
789.487366	1126.100000
789.523621	1130.900000
789.559814	1122.200000
789.595947	1107.500000
789.632202	1119.100000
789.668335	1127.600000
789.704529	1150.600000
789.740784	1172.800000
789.776917	1170.400000
789.813110	1154.500000
789.849304	1172.000000
789.885498	1174.300000
789.921692	1186.600000
789.957886	1194.100000
789.994019	1195.800000
790.030212	1189.800000
790.066406	1188.100000
790.102539	1183.000000
790.138733	1197.300000
790.174927	1193.800000
790.211060	1213.300000
790.247253	1185.500000
790.283386	1174.000000
790.319580	1159.000000
790.355774	1144.500000
790.391907	1147.600000
790.428101	1169.900000
790.464294	1176.700000
790.500427	1174.900000
790.536621	1155.100000
790.572754	1142.900000
790.608887	1144.900000
790.645081	1157.500000
790.681274	1174.700000
790.717346	1169.200000
790.753540	1141.000000
790.789734	1067.700000
790.825867	1005.300000
790.862000	1005.800000
790.898132	1046.200000
790.934265	1098.800000
790.970459	1153.900000
791.006592	1171.600000
791.042725	1180.300000
791.078918	1179.500000
791.114990	1179.000000
791.151184	1190.400000
791.187317	1213.000000
791.223389	1202.700000
791.259583	1187.200000
791.295715	1197.900000
791.331848	1205.100000
791.367981	1208.700000
791.404114	1224.700000
791.440247	1207.700000
791.476379	1212.100000
791.512451	1196.900000
791.548584	1192.400000
791.584778	1190.700000
791.620850	1208.100000
791.656982	1213.700000
791.693115	1209.400000
791.729187	1205.000000
791.765381	1194.100000
791.801514	1193.800000
791.837585	1194.300000
791.873718	1209.800000
791.909851	1218.800000
791.945923	1227.400000
791.982056	1190.300000
792.018188	1182.500000
792.054260	1186.800000
792.090393	1189.500000
792.126465	1187.800000
792.162598	1193.300000
792.198669	1179.600000
792.234741	1175.000000
792.270874	1166.500000
792.307007	1151.800000
792.343079	1156.000000
792.379150	1174.600000
792.415283	1159.700000
792.451355	1168.000000
792.487488	1142.200000
792.523560	1140.500000
792.559631	1139.200000
792.595764	1138.100000
792.631836	1144.800000
792.667908	1153.400000
792.703979	1138.700000
792.740051	1135.200000
792.776184	1140.200000
792.812256	1144.200000
792.848328	1155.900000
792.884399	1158.700000
792.920471	1157.300000
792.956543	1144.100000
792.992615	1143.100000
793.028748	1137.200000
793.064758	1146.000000
793.100830	1169.600000
793.136963	1183.100000
793.172974	1170.900000
793.209045	1167.200000
793.245178	1177.500000
793.281189	1158.700000
793.317261	1168.100000
793.353271	1167.600000
793.389404	1176.900000
793.425476	1165.700000
793.461487	1149.600000
793.497559	1147.000000
793.533630	1163.300000
793.569641	1160.800000
793.605713	1162.600000
793.641785	1163.500000
793.677795	1168.200000
793.713867	1160.700000
793.749878	1163.400000
793.785950	1174.800000
793.822021	1181.000000
793.858032	1164.700000
793.894104	1179.500000
793.930176	1158.700000
793.966187	1165.200000
794.002258	1151.600000
794.038269	1160.000000
794.074280	1155.900000
794.110352	1177.100000
794.146423	1152.600000
794.182373	1144.500000
794.218445	1137.500000
794.254517	1130.000000
794.290466	1114.700000
794.326538	1121.200000
794.362549	1126.800000
794.398560	1131.700000
794.434631	1128.000000
794.470581	1099.400000
794.506653	1096.900000
794.542664	1098.000000
794.578674	1098.200000
794.614685	1093.100000
794.650757	1087.900000
794.686707	1081.000000
794.722778	1065.800000
794.758789	1077.800000
794.794739	1087.300000
794.830811	1106.700000
794.866821	1124.100000
794.902771	1113.700000
794.938843	1110.100000
794.974792	1104.700000
795.010803	1105.500000
795.046814	1104.500000
795.082825	1094.200000
795.118835	1103.300000
795.154846	1084.600000
795.190796	1095.200000
795.226807	1070.700000
795.262817	1079.900000
795.298767	1076.700000
795.334778	1075.400000
795.370850	1064.100000
795.406799	1065.900000
795.442810	1042.700000
795.478821	1043.200000
795.514709	1046.200000
795.550720	1065.900000
795.586670	1044.100000
795.622681	1048.200000
795.658691	1047.400000
795.694641	1039.500000
795.730652	1028.200000
795.766663	1041.300000
795.802551	1040.700000
795.838562	1053.800000
795.874573	1033.600000
795.910522	1032.800000
795.946472	1028.100000
795.982483	1035.000000
796.018433	1040.200000
796.054382	1052.800000
796.090393	1034.800000
796.126282	1023.700000
796.162292	1015.300000
796.198242	1004.900000
796.234192	1011.500000
796.270203	1009.100000
796.306091	1014.800000
796.342041	1035.500000
796.378052	1018.700000
796.413940	1012.700000
796.449951	1017.300000
796.485901	1012.600000
796.521790	1018.400000
796.557800	1024.700000
796.593689	1024.700000
796.629639	1013.900000
796.665649	1002.900000
796.701599	1008.300000
796.737488	1004.700000
796.773437	1013.800000
796.809387	1010.800000
796.845337	1001.500000
796.881287	993.200000
796.917175	978.200000
796.953125	985.800000
796.989075	990.100000
797.024963	1002.500000
797.060913	1001.100000
797.096863	996.600000
797.132751	983.700000
797.168701	966.800000
797.204590	971.700000
797.240540	973.100000
797.276489	982.100000
797.312439	983.700000
797.348328	979.800000
797.384277	971.400000
797.420166	963.000000
797.456055	967.700000
797.492004	961.300000
797.527893	971.300000
797.563843	977.200000
797.599731	959.600000
797.635620	944.600000
797.671570	953.700000
797.707520	952.600000
797.743347	951.100000
797.779297	963.400000
797.815125	958.300000
797.851074	945.100000
797.887024	937.400000
797.922913	931.200000
797.958801	944.800000
797.994690	943.600000
798.030579	948.900000
798.066467	949.200000
798.102356	932.900000
798.138245	929.600000
798.174133	929.100000
798.210083	939.700000
798.245911	942.500000
798.281799	941.700000
798.317749	932.100000
798.353577	927.200000
798.389465	925.200000
798.425293	916.900000
798.461243	913.200000
798.497131	920.800000
798.532959	921.200000
798.568848	922.700000
798.604736	913.700000
798.640564	905.400000
798.676453	901.300000
798.712402	909.500000
798.748230	912.500000
798.784119	905.000000
798.820007	909.200000
798.855835	904.800000
798.891724	899.700000
798.927551	898.400000
798.963379	904.200000
798.999268	898.600000
799.035095	897.300000
799.070984	886.700000
799.106873	875.600000
799.142700	887.700000
799.178528	881.300000
799.214417	879.700000
799.250244	894.900000
799.286133	883.400000
799.321960	879.500000
799.357788	872.900000
799.393677	881.200000
799.429504	876.800000
799.465332	877.600000
799.501221	883.800000
799.537048	883.900000
799.572876	870.500000
799.608704	873.100000
799.644531	878.100000
799.680359	876.500000
799.716248	887.200000
799.752014	885.500000
799.787903	873.300000
799.823730	874.800000
799.859558	865.500000
799.895386	867.700000
799.931213	865.800000
799.967041	856.200000
800.002869	857.500000
800.038696	865.700000
800.074463	845.000000
800.110352	849.200000
800.146179	842.700000
800.181946	849.900000
800.217773	852.400000
800.253540	845.600000
800.289429	842.000000
800.325256	835.100000
800.361023	833.000000
800.396851	831.000000
800.432678	833.000000
800.468445	830.300000
800.504272	821.400000
800.540100	809.000000
800.575867	807.400000
800.611694	813.200000
800.647461	807.100000
800.683289	808.100000
800.719116	810.600000
800.754883	798.900000
800.790649	783.700000
800.826477	776.400000
800.862244	799.000000
800.898071	780.100000
800.933838	779.100000
800.969604	775.600000
801.005432	774.700000
801.041199	776.400000
801.076965	767.100000
801.112793	760.000000
801.148560	752.300000
801.184326	757.600000
801.220154	756.400000
801.255859	749.100000
801.291687	745.100000
801.327454	738.900000
801.363281	737.100000
801.398987	736.400000
801.434814	737.000000
801.470520	749.500000
801.506287	731.400000
801.542114	725.800000
801.577820	729.600000
801.613647	731.100000
801.649414	722.900000
801.685120	724.500000
801.720886	731.400000
801.756714	714.400000
801.792419	712.000000
801.828186	704.900000
801.863892	711.600000
801.899719	701.900000
801.935486	697.300000
801.971252	709.300000
802.006958	701.900000
802.042725	696.800000
802.078430	694.300000
802.114197	688.900000
802.149963	706.400000
802.185669	692.100000
802.221436	688.500000
802.257202	692.500000
802.292908	689.100000
802.328674	695.600000
802.364441	689.100000
802.400146	686.700000
802.435913	681.200000
802.471558	677.200000
802.507324	676.200000
802.543091	665.700000
802.578796	680.700000
802.614502	677.200000
802.650269	679.900000
802.685974	663.000000
802.721741	666.400000
802.757446	674.200000
802.793152	667.900000
802.828918	676.700000
802.864624	672.400000
802.900330	666.100000
802.936035	662.700000
802.971802	664.700000
803.007446	656.400000
803.043213	647.800000
803.078857	659.500000
803.114624	639.700000
803.150330	647.200000
803.185974	639.900000
803.221741	643.300000
803.257446	649.000000
803.293152	647.100000
803.328857	640.300000
803.364563	637.900000
803.400208	628.000000
803.435974	639.000000
803.471680	628.700000
803.507324	624.900000
803.543030	633.300000
803.578735	635.100000
803.614441	618.800000
803.650146	630.200000
803.685791	616.700000
803.721497	617.300000
803.757202	608.000000
803.792847	618.100000
803.828552	608.700000
803.864258	610.800000
803.899902	606.400000
803.935608	591.300000
803.971313	599.000000
804.006958	601.100000
804.042664	595.000000
804.078308	602.400000
804.113953	592.600000
804.149658	598.300000
804.185364	585.200000
804.221008	599.200000
804.256714	588.000000
804.292297	582.600000
804.328003	580.100000
804.363708	574.400000
804.399292	576.600000
804.434998	578.500000
804.470703	568.800000
804.506287	581.400000
804.541992	575.700000
804.577637	576.600000
804.613281	564.200000
804.648926	561.300000
804.684570	565.900000
804.720215	562.000000
804.755920	561.300000
804.791565	560.400000
804.827209	564.000000
804.862854	555.400000
804.898437	550.100000
804.934143	553.500000
804.969788	551.500000
805.005371	559.100000
805.041077	553.600000
805.076721	555.200000
805.112305	545.100000
805.147949	544.000000
805.183655	541.700000
805.219238	541.500000
805.254883	544.300000
805.290466	548.100000
805.326111	540.400000
805.361755	530.700000
805.397400	537.000000
805.432983	537.900000
805.468628	539.700000
805.504211	546.500000
805.539856	541.000000
805.575500	545.400000
805.611084	535.600000
805.646729	522.600000
805.682373	530.900000
805.717957	538.300000
805.753601	539.000000
805.789246	517.700000
805.824768	531.100000
805.860413	532.800000
805.895996	521.100000
805.931641	521.500000
805.967224	528.300000
806.002869	520.300000
806.038452	530.000000
806.074036	525.500000
806.109619	512.200000
806.145264	510.600000
806.180847	510.000000
806.216431	508.300000
806.252014	515.800000
806.287659	513.800000
806.323181	521.600000
806.358826	513.100000
806.394409	494.700000
806.429993	497.700000
806.465576	511.800000
806.501160	495.500000
806.536743	489.700000
806.572327	499.900000
806.607910	495.500000
806.643494	496.700000
806.679077	490.000000
806.714661	492.400000
806.750244	492.300000
806.785828	482.700000
806.821350	485.300000
806.856934	492.100000
806.892517	486.600000
806.928101	479.800000
806.963684	480.100000
806.999268	486.900000
807.034790	470.600000
807.070374	477.200000
807.105896	472.300000
807.141479	467.400000
807.177063	474.400000
807.212585	464.300000
807.248169	463.500000
807.283752	469.900000
807.319275	463.800000
807.354858	462.600000
807.390381	458.700000
807.425903	461.500000
807.461487	456.900000
807.497070	450.400000
807.532593	450.200000
807.568115	451.600000
807.603699	445.500000
807.639221	443.300000
807.674744	445.600000
807.710266	449.500000
807.745850	452.000000
807.781372	443.000000
807.816895	440.700000
807.852417	445.000000
807.888000	443.400000
807.923523	435.000000
807.959045	441.400000
807.994629	433.200000
808.030090	428.800000
808.065613	436.900000
808.101135	435.200000
808.136658	433.300000
808.172241	428.700000
808.207764	428.400000
808.243225	425.600000
808.278809	420.500000
808.314270	429.000000
808.349792	415.900000
808.385315	415.400000
808.420837	421.600000
808.456360	427.000000
808.491882	423.800000
808.527344	418.000000
808.562866	429.200000
808.598389	421.800000
808.633850	415.000000
808.669434	410.800000
808.704895	417.400000
808.740417	422.600000
808.775940	413.400000
808.811462	407.600000
808.846924	401.500000
808.882385	398.700000
808.917847	397.600000
808.953369	399.800000
808.988892	391.600000
809.024353	400.600000
809.059875	398.900000
809.095398	396.900000
809.130798	390.300000
809.166321	390.400000
809.201843	389.200000
809.237305	390.400000
809.272766	399.000000
809.308228	383.500000
809.343750	384.400000
809.379211	384.600000
809.414734	386.000000
809.450134	394.000000
809.485657	376.200000
809.521118	382.400000
809.556580	380.800000
809.592102	379.200000
809.627502	375.500000
809.663025	375.600000
809.698486	369.700000
809.733887	369.900000
809.769409	372.700000
809.804871	359.500000
809.840271	364.200000
809.875793	366.700000
809.911194	369.800000
809.946655	361.100000
809.982178	357.800000
810.017639	363.800000
810.053040	360.800000
810.088501	355.600000
810.123901	356.400000
810.159424	351.500000
810.194885	348.200000
810.230286	352.600000
810.265747	347.600000
810.301208	345.200000
810.336609	348.900000
810.372070	341.300000
810.407532	344.100000
810.442932	344.900000
810.478394	349.600000
810.513794	343.000000
810.549255	342.800000
810.584717	340.200000
810.620117	333.400000
810.655518	340.200000
810.690979	342.500000
810.726379	341.100000
810.761841	330.000000
810.797302	332.500000
810.832642	330.400000
810.868103	340.800000
810.903564	329.700000
810.938904	335.700000
810.974365	324.200000
811.009827	330.800000
811.045166	324.100000
811.080627	319.900000
811.115967	324.400000
811.151428	332.600000
811.186829	324.200000
811.222229	323.300000
811.257629	316.200000
811.293091	321.700000
811.328430	329.600000
811.363892	325.600000
811.399292	327.000000
811.434631	319.300000
811.470093	325.000000
811.505493	316.400000
811.540833	316.700000
811.576294	322.400000
811.611694	318.100000
811.647034	312.300000
811.682434	313.500000
811.717773	316.400000
811.753235	320.200000
811.788635	313.500000
811.823975	313.700000
811.859375	321.700000
811.894775	305.900000
811.930115	311.100000
811.965515	311.500000
812.000916	315.000000
812.036255	308.100000
812.071655	310.800000
812.106995	304.500000
812.142395	306.800000
812.177795	313.300000
812.213196	309.200000
812.248474	311.000000
812.283875	301.900000
812.319214	303.800000
812.354614	306.600000
812.390015	302.300000
812.425293	302.700000
812.460693	302.500000
812.496094	298.800000
812.531433	291.800000
812.566772	293.600000
812.602173	297.000000
812.637451	296.600000
812.672852	293.500000
812.708191	297.300000
812.743530	290.900000
812.778931	284.800000
812.814270	289.000000
812.849609	296.000000
812.884949	288.500000
812.920227	283.600000
812.955627	299.300000
812.990967	290.800000
813.026306	285.300000
813.061646	275.000000
813.096985	273.100000
813.132324	271.500000
813.167664	276.600000
813.203003	282.000000
813.238281	269.700000
813.273682	268.900000
813.308960	265.100000
813.344299	269.700000
813.379639	279.200000
813.414978	270.700000
813.450256	270.800000
813.485596	275.300000
813.520874	266.200000
813.556213	270.300000
813.591614	275.600000
813.626831	265.300000
813.662170	271.200000
813.697510	279.600000
813.732788	262.800000
813.768127	270.300000
813.803467	270.800000
813.838745	265.500000
813.874084	268.600000
813.909363	266.400000
813.944641	267.300000
813.979980	258.300000
814.015320	263.100000
814.050598	258.300000
814.085876	266.400000
814.121155	262.000000
814.156494	259.600000
814.191772	262.000000
814.227051	256.600000
814.262390	258.400000
814.297668	259.700000
814.332947	261.800000
814.368225	253.200000
814.403564	256.900000
814.438782	252.800000
814.474121	256.700000
814.509338	253.000000
814.544617	261.800000
814.579956	250.900000
814.615173	262.300000
814.650513	258.000000
814.685791	250.100000
814.721008	253.400000
814.756348	254.200000
814.791626	248.800000
814.826843	250.000000
814.862122	249.400000
814.897400	246.800000
814.932678	251.000000
814.967957	249.800000
815.003235	248.700000
815.038452	242.700000
815.073730	240.800000
815.108948	250.600000
815.144226	248.200000
815.179504	252.100000
815.214722	235.900000
815.250000	237.400000
815.285278	243.900000
815.320496	238.100000
815.355774	240.400000
815.391052	243.500000
815.426270	239.300000
815.461487	239.500000
815.496765	234.600000
815.531982	232.400000
815.567261	237.700000
815.602539	244.400000
815.637695	237.200000
815.672974	240.900000
815.708191	240.500000
815.743408	242.100000
815.778687	234.600000
815.813904	243.800000
815.849121	226.700000
815.884399	230.200000
815.919556	229.700000
815.954834	230.600000
815.990051	234.900000
816.025269	238.800000
816.060486	228.600000
816.095703	226.900000
816.130920	230.800000
816.166199	227.300000
816.201416	233.100000
816.236572	237.400000
816.271851	227.000000
816.307007	234.600000
816.342224	224.100000
816.377441	226.900000
816.412659	220.300000
816.447876	230.900000
816.483093	226.200000
816.518250	227.700000
816.553467	226.000000
816.588745	230.400000
816.623901	221.600000
816.659119	217.400000
816.694275	221.800000
816.729492	218.900000
816.764709	255.800000
816.799927	216.300000
816.835083	222.100000
816.870300	215.800000
816.905457	221.100000
816.940674	223.100000
816.975830	216.900000
817.010986	215.100000
817.046204	218.500000
817.081421	214.200000
817.116577	214.300000
817.151733	223.500000
817.186951	222.600000
817.222107	218.800000
817.257324	221.100000
817.292419	217.100000
817.327637	211.100000
817.362854	215.800000
817.398010	209.100000
817.433167	212.800000
817.468323	212.100000
817.503479	214.500000
817.538635	222.400000
817.573853	215.300000
817.608948	214.600000
817.644165	210.400000
817.679321	209.000000
817.714478	209.800000
817.749634	215.200000
817.784790	224.500000
817.819946	219.200000
817.855103	201.400000
817.890198	211.100000
817.925415	203.200000
817.960571	211.600000
817.995667	212.100000
818.030823	211.900000
818.066040	205.200000
818.101135	210.800000
818.136292	209.400000
818.171448	202.400000
818.206543	208.700000
818.241699	211.700000
818.276855	209.000000
818.311951	207.900000
818.347107	203.400000
818.382263	211.000000
818.417358	215.600000
818.452515	214.800000
818.487610	216.400000
818.522766	203.500000
818.557922	215.700000
818.593018	211.100000
818.628113	209.400000
818.663269	203.000000
818.698364	207.300000
818.733521	204.000000
818.768677	210.500000
818.803711	201.700000
818.838867	202.900000
818.874023	206.800000
818.909058	203.000000
818.944214	200.300000
818.979370	210.300000
819.014404	205.800000
819.049561	202.000000
819.084595	207.300000
819.119751	198.500000
819.154846	206.400000
819.189941	201.900000
819.225037	198.300000
819.260193	193.600000
819.295227	197.300000
819.330322	192.200000
819.365479	192.600000
819.400513	226.300000
819.435608	192.100000
819.470764	189.500000
819.505798	193.500000
819.540894	196.800000
819.575989	193.800000
819.611084	205.500000
819.646179	203.100000
819.681213	199.300000
819.716309	198.800000
819.751404	196.500000
819.786438	201.600000
819.821533	193.300000
819.856628	199.100000
819.891663	202.200000
819.926758	207.900000
819.961853	203.400000
819.996887	195.300000
820.031982	201.500000
820.067017	196.300000
820.102112	226.100000
820.137207	194.800000
820.172302	212.300000
820.207275	194.800000
820.242371	193.600000
820.277405	192.900000
820.312500	196.800000
820.347534	199.500000
820.382568	202.000000
820.417664	194.600000
820.452759	195.800000
820.487732	193.700000
820.522827	194.600000
820.557861	192.100000
820.592896	192.700000
820.627930	193.600000
820.662964	193.700000
820.698059	198.400000
820.733093	194.000000
820.768127	197.500000
820.803162	195.700000
820.838196	191.900000
820.873230	196.300000
820.908264	195.900000
820.943298	193.300000
820.978333	200.500000
821.013367	196.200000
821.048401	199.700000
821.083435	200.900000
821.118469	185.900000
821.153503	198.900000
821.188477	196.500000
821.223511	187.800000
821.258484	194.100000
821.293579	195.500000
821.328613	187.300000
821.363647	192.900000
821.398621	188.000000
821.433655	189.900000
821.468628	205.900000
821.503662	193.400000
821.538696	196.900000
821.573669	189.900000
821.608704	197.800000
821.643677	190.100000
821.678650	197.300000
821.713684	203.700000
821.748718	191.500000
821.783691	193.400000
821.818726	195.500000
821.853638	194.800000
821.888672	191.800000
821.923706	194.900000
821.958618	191.100000
821.993652	192.000000
822.028687	198.400000
822.063599	201.500000
822.098633	196.000000
822.133667	189.600000
822.168579	192.900000
822.203613	195.000000
822.238586	189.700000
822.273560	195.700000
822.308533	191.100000
822.343567	190.000000
822.378479	192.300000
822.413452	192.700000
822.448425	189.900000
822.483398	198.000000
822.518372	197.500000
822.553345	190.700000
822.588318	200.400000
822.623291	192.500000
822.658203	190.900000
822.693237	193.300000
822.728210	188.100000
822.763123	194.600000
822.798096	188.700000
822.833069	193.200000
822.867981	193.200000
822.902954	195.000000
822.937927	197.900000
822.972900	205.500000
823.007874	184.800000
823.042725	197.400000
823.077698	204.600000
823.112671	188.400000
823.147583	192.700000
823.182556	196.800000
823.217529	198.000000
823.252441	190.600000
823.287415	206.200000
823.322388	197.000000
823.357239	193.600000
823.392212	200.900000
823.427185	196.700000
823.462097	190.300000
823.497009	197.300000
823.531982	191.800000
823.566895	193.300000
823.601807	188.600000
823.636719	192.400000
823.671631	196.200000
823.706604	191.500000
823.741455	196.400000
823.776428	187.300000
823.811340	197.600000
823.846252	199.100000
823.881165	200.000000
823.916138	194.500000
823.950989	201.200000
823.985901	189.900000
824.020813	194.000000
824.055725	191.800000
824.090637	189.700000
824.125610	195.800000
824.160461	193.600000
824.195374	194.600000
824.230225	197.300000
824.265198	185.600000
824.300110	191.000000
824.334961	203.000000
824.369873	183.700000
824.404785	195.700000
824.439636	201.000000
824.474548	185.500000
824.509460	182.300000
824.544312	198.600000
824.579224	194.100000
824.614075	194.300000
824.648987	190.600000
824.683899	191.700000
824.718811	189.900000
824.753662	199.700000
824.788574	198.100000
824.823364	194.900000
824.858276	191.000000
824.893188	199.500000
824.928040	199.000000
824.962952	195.000000
824.997803	198.300000
825.032654	194.600000
825.067566	196.500000
825.102417	191.700000
825.137268	192.500000
825.172119	193.800000
825.206970	190.400000
825.241882	192.200000
825.276733	191.000000
825.311646	191.300000
825.346436	187.500000
825.381348	186.700000
825.416138	193.200000
825.450989	188.400000
825.485901	182.800000
825.520691	184.300000
825.555542	187.200000
825.590454	192.000000
825.625244	185.100000
825.660095	199.200000
825.695007	195.900000
825.729797	192.600000
825.764648	188.400000
825.799438	192.600000
825.834290	192.100000
825.869202	185.800000
825.903992	194.400000
825.938843	188.400000
825.973694	189.000000
826.008484	202.400000
826.043335	186.800000
826.078186	183.100000
826.112976	197.700000
826.147827	196.500000
826.182678	202.500000
826.217468	186.000000
826.252319	197.300000
826.287109	188.500000
826.321899	199.700000
826.356750	191.100000
826.391541	187.500000
826.426392	198.200000
826.461182	192.200000
826.495972	186.300000
826.530823	182.600000
826.565613	192.300000
826.600403	186.100000
826.635254	194.300000
826.670044	185.000000
826.704834	184.600000
826.739685	187.400000
826.774475	193.200000
826.809265	192.200000
826.844055	190.000000
826.878906	199.000000
826.913635	195.400000
826.948425	194.300000
826.983215	192.600000
827.018005	196.100000
827.052856	190.100000
827.087585	195.300000
827.122375	184.200000
827.157227	190.700000
827.191956	203.900000
827.226746	188.200000
827.261536	196.800000
827.296265	184.600000
827.331116	189.600000
827.365906	196.000000
827.400635	188.400000
827.435425	182.800000
827.470215	198.100000
827.504944	190.100000
827.539734	195.300000
827.574463	191.000000
827.609253	199.400000
827.644043	192.300000
827.678772	197.900000
827.713562	188.900000
827.748352	189.800000
827.783081	189.000000
827.817871	191.900000
827.852600	186.400000
827.887329	193.200000
827.922119	181.300000
827.956848	194.200000
827.991638	205.100000
828.026367	193.100000
828.061157	192.700000
828.095886	192.100000
828.130615	207.200000
828.165344	182.800000
828.200073	193.400000
828.234863	190.000000
828.269592	191.400000
828.304321	197.100000
828.339111	192.900000
828.373779	188.200000
828.408569	197.800000
828.443298	196.400000
828.477966	188.700000
828.512756	193.900000
828.547424	186.700000
828.582214	189.200000
828.616943	189.400000
828.651672	190.400000
828.686340	196.200000
828.721130	189.200000
828.755798	191.700000
828.790527	191.600000
828.825256	193.800000
828.859924	191.700000
828.894714	198.900000
828.929443	200.700000
828.964111	188.200000
828.998840	189.500000
829.033569	187.900000
829.068237	189.200000
829.102966	189.800000
829.137634	192.400000
829.172363	193.600000
829.207092	192.600000
829.241821	187.300000
829.276489	184.400000
829.311157	192.600000
829.345825	190.100000
829.380554	195.500000
829.415283	188.000000
829.449951	186.300000
829.484619	200.500000
829.519348	199.100000
829.554016	191.100000
829.588745	191.400000
829.623413	186.100000
829.658081	203.200000
829.692749	185.700000
829.727417	196.200000
829.762146	194.600000
829.796814	187.800000
829.831482	192.300000
829.866150	193.000000
829.900879	189.700000
829.935486	194.800000
829.970154	190.400000
830.004883	201.700000
830.039490	192.900000
830.074219	188.400000
830.108887	192.400000
830.143494	190.600000
830.178223	185.700000
830.212891	188.900000
830.247498	192.300000
830.282166	198.900000
830.316772	197.500000
830.351501	189.100000
830.386169	191.500000
830.420776	188.700000
830.455444	191.400000
830.490112	189.200000
830.524719	184.300000
830.559387	193.900000
830.594055	194.100000
830.628662	190.600000
830.663330	191.200000
830.697998	199.900000
830.732605	190.700000
830.767273	193.200000
830.801941	191.900000
830.836487	200.000000
830.871155	192.500000
830.905762	194.000000
830.940430	184.700000
830.975098	188.600000
831.009644	193.400000
831.044312	201.400000
831.078979	193.300000
831.113525	183.900000
831.148193	192.000000
831.182861	189.700000
831.217407	196.500000
831.252075	209.800000
831.286621	189.200000
831.321289	187.000000
831.355896	191.100000
831.390564	199.200000
831.425110	192.800000
831.459778	198.100000
831.494324	204.800000
831.528931	195.000000
831.563599	195.200000
831.598145	184.900000
831.632751	190.700000
831.667419	189.900000
831.701965	195.100000
831.736572	195.600000
831.771179	185.400000
831.805786	190.100000
831.840393	199.200000
831.874939	184.300000
831.909546	196.400000
831.944153	184.300000
831.978760	190.900000
832.013306	186.900000
832.047913	200.100000
832.082458	200.700000
832.117065	188.100000
832.151672	199.100000
832.186218	192.800000
832.220825	194.900000
832.255432	183.200000
832.289978	188.700000
832.324585	193.500000
832.359192	195.000000
832.393677	190.100000
832.428284	192.500000
832.462830	191.100000
832.497437	190.100000
832.531982	194.500000
832.566589	191.500000
832.601135	192.300000
832.635681	183.800000
832.670227	191.300000
832.704773	198.200000
832.739380	193.600000
832.773926	191.900000
832.808472	186.900000
832.843079	192.100000
832.877563	195.000000
832.912170	188.900000
832.946716	184.200000
832.981201	198.800000
833.015808	194.800000
833.050293	191.300000
833.084839	187.600000
833.119446	189.400000
833.153992	196.200000
833.188477	191.000000
833.223022	187.500000
833.257568	192.500000
833.292114	198.900000
833.326660	204.400000
833.361145	189.600000
833.395691	183.600000
833.430237	191.100000
833.464783	194.400000
833.499329	189.300000
833.533875	186.400000
833.568359	196.100000
833.602905	197.600000
833.637390	198.600000
833.671875	187.500000
833.706421	190.600000
833.740906	188.200000
833.775452	181.500000
833.809998	189.200000
833.844482	197.800000
833.879028	190.700000
833.913513	188.400000
833.947998	194.300000
833.982544	186.400000
834.017090	188.500000
834.051514	181.500000
834.086060	193.900000
834.120544	191.500000
834.155029	194.000000
834.189575	188.500000
834.223999	194.900000
834.258545	191.800000
834.293030	192.600000
834.327515	193.100000
834.362000	189.100000
834.396545	195.900000
834.430969	191.000000
834.465454	196.500000
834.500000	183.400000
834.534424	194.900000
834.568970	182.100000
834.603455	183.400000
834.637878	187.900000
834.672363	191.400000
834.706909	191.900000
834.741333	193.300000
834.775818	182.600000
834.810242	187.000000
834.844727	194.300000
834.879211	190.200000
834.913635	192.100000
834.948181	193.300000
834.982666	193.200000
835.017090	190.900000
835.051575	195.400000
835.086060	188.800000
835.120483	195.600000
835.154907	196.000000
835.189331	190.900000
835.223816	194.800000
835.258301	186.200000
835.292786	186.000000
835.327209	196.400000
835.361694	187.300000
835.396057	187.800000
835.430542	195.300000
835.465027	193.400000
835.499390	186.200000
835.533875	210.400000
835.568359	189.500000
835.602722	182.800000
835.637207	192.700000
835.671692	184.900000
835.706055	207.600000
835.740540	192.800000
835.774902	194.400000
835.809387	192.900000
835.843811	185.100000
835.878235	199.800000
835.912659	184.900000
835.947083	188.500000
835.981506	191.300000
836.015930	183.600000
836.050354	198.300000
836.084778	199.600000
836.119202	195.700000
836.153625	204.100000
836.187988	186.800000
836.222473	187.500000
836.256897	194.000000
836.291260	190.600000
836.325684	193.700000
836.360046	189.400000
836.394470	191.000000
836.428894	198.200000
836.463318	189.000000
836.497681	194.300000
836.532104	199.300000
836.566467	192.100000
836.600891	189.700000
836.635315	197.300000
836.669678	195.500000
836.704102	195.000000
836.738525	193.300000
836.772888	182.100000
836.807251	188.700000
836.841675	194.200000
836.876038	187.400000
836.910461	187.600000
836.944763	196.500000
836.979187	188.300000
837.013611	197.300000
837.047974	184.600000
837.082336	204.000000
837.116699	195.000000
837.151062	192.200000
837.185486	185.300000
837.219849	190.700000
837.254211	195.500000
837.288574	190.800000
837.322937	186.100000
837.357300	179.700000
837.391663	203.700000
837.426086	196.900000
837.460388	191.200000
837.494751	197.100000
837.529114	188.500000
837.563477	196.600000
837.597839	193.500000
837.632141	191.700000
837.666565	187.800000
837.700928	194.800000
837.735229	193.600000
837.769592	195.000000
837.803955	197.200000
837.838257	190.100000
837.872620	187.900000
837.906982	198.000000
837.941284	191.900000
837.975647	192.700000
838.010010	198.100000
838.044312	189.900000
838.078674	188.500000
838.112976	192.300000
838.147339	197.100000
838.181702	191.100000
838.216003	204.100000
838.250366	193.200000
838.284668	194.900000
838.318970	184.700000
838.353333	192.300000
838.387634	190.800000
838.421936	192.500000
838.456299	192.700000
838.490601	201.200000
838.524902	195.100000
838.559265	197.100000
838.593567	195.900000
838.627869	187.300000
838.662170	194.200000
838.696472	185.300000
838.730774	187.300000
838.765137	196.000000
838.799377	176.900000
838.833740	192.800000
838.868042	196.900000
838.902283	184.300000
838.936646	198.600000
838.970947	194.700000
839.005188	197.400000
839.039551	184.500000
839.073792	199.000000
839.108093	189.700000
839.142395	201.900000
839.176697	184.900000
839.210937	193.000000
839.245300	202.300000
839.279541	184.900000
839.313843	190.300000
839.348145	195.400000
839.382385	197.000000
839.416687	196.500000
839.450989	195.300000
839.485229	191.000000
839.519531	186.900000
839.553833	196.700000
839.588013	192.600000
839.622314	192.200000
839.656555	195.800000
839.690857	192.300000
839.725159	186.000000
839.759460	192.000000
839.793640	190.900000
839.827942	191.300000
839.862183	187.900000
839.896423	192.700000
839.930725	201.500000
839.964966	199.800000
839.999207	199.400000
840.033508	200.100000
840.067688	190.400000
840.101990	202.500000
840.136230	192.600000
840.170471	200.700000
840.204712	188.400000
840.238953	187.900000
840.273193	193.300000
840.307434	195.700000
840.341736	187.800000
840.375916	186.100000
840.410217	190.000000
840.444397	197.700000
840.478638	194.800000
840.512878	198.200000
840.547119	193.700000
840.581360	194.000000
840.615601	201.800000
840.649780	202.100000
840.684021	191.600000
840.718262	199.500000
840.752441	197.300000
840.786682	193.800000
840.820862	195.000000
840.855103	199.500000
840.889343	193.800000
840.923584	197.500000
840.957764	194.500000
840.992004	194.600000
841.026184	205.800000
841.060425	189.900000
841.094666	188.300000
841.128845	194.800000
841.163025	194.100000
841.197266	196.600000
841.231445	194.800000
841.265686	192.600000
841.299866	189.000000
841.334045	200.700000
841.368286	191.200000
841.402405	201.000000
841.436646	198.500000
841.470825	189.700000
841.505005	192.700000
841.539185	189.400000
841.573425	190.400000
841.607544	193.000000
841.641785	194.600000
841.675964	187.000000
841.710144	192.900000
841.744324	189.900000
841.778503	191.900000
841.812683	187.200000
841.846863	202.600000
841.881042	200.000000
841.915222	189.800000
841.949402	207.000000
841.983521	184.400000
842.017700	191.500000
842.051880	193.900000
842.086060	195.600000
842.120239	192.900000
842.154419	189.400000
842.188538	194.500000
842.222717	188.900000
842.256897	202.900000
842.291016	191.000000
842.325195	194.400000
842.359375	203.900000
842.393494	200.000000
842.427673	193.500000
842.461853	195.400000
842.495911	201.700000
842.530090	194.600000
842.564209	191.000000
842.598389	194.000000
842.632568	193.700000
842.666626	198.300000
842.700806	190.200000
842.734985	191.000000
842.769043	196.000000
842.803223	190.700000
842.837402	192.400000
842.871460	191.200000
842.905640	201.200000
842.939697	188.800000
842.973877	195.700000
843.007996	198.500000
843.042175	201.700000
843.076233	190.000000
843.110413	195.400000
843.144470	203.200000
843.178589	198.800000
843.212769	190.600000
843.246826	197.400000
843.280945	191.200000
843.315125	190.700000
843.349182	188.100000
843.383301	201.100000
843.417419	205.300000
843.451538	193.900000
843.485657	189.700000
843.519714	192.000000
843.553833	194.600000
843.587952	190.700000
843.622070	188.700000
843.656128	196.200000
843.690247	189.800000
843.724304	191.200000
843.758423	194.400000
843.792542	191.400000
843.826599	192.800000
843.860718	191.100000
843.894836	185.100000
843.928894	193.500000
843.963013	195.300000
843.997070	190.000000
844.031128	186.900000
844.065247	198.300000
844.099304	196.900000
844.133362	194.100000
844.167480	195.200000
844.201599	201.200000
844.235596	194.100000
844.269714	193.900000
844.303711	195.800000
844.337830	185.200000
844.371948	196.000000
844.405945	191.500000
844.440063	188.300000
844.474121	207.800000
844.508118	192.400000
844.542236	191.000000
844.576294	192.400000
844.610352	186.900000
844.644409	192.800000
844.678406	184.800000
844.712524	197.100000
844.746582	200.700000
844.780640	192.800000
844.814636	193.400000
844.848755	204.000000
844.882751	190.100000
844.916809	198.600000
844.950867	194.000000
844.984863	202.500000
845.018921	192.300000
845.052979	190.600000
845.086975	193.900000
845.121033	188.000000
845.155090	188.700000
845.189087	200.400000
845.223145	191.400000
845.257141	193.400000
845.291199	196.500000
845.325256	200.600000
845.359253	193.300000
845.393250	204.800000
845.427307	193.400000
845.461304	195.100000
845.495361	193.000000
845.529358	204.300000
845.563354	189.900000
845.597412	189.700000
845.631409	201.500000
845.665405	200.700000
845.699463	198.500000
845.733459	191.100000
845.767456	199.900000
845.801453	191.900000
845.835449	200.600000
845.869446	197.600000
845.903503	197.600000
845.937439	189.700000
845.971497	200.600000
846.005493	186.800000
846.039429	197.600000
846.073486	203.400000
846.107483	190.800000
846.141418	192.800000
846.175476	192.900000
846.209473	199.800000
846.243408	191.000000
846.277405	193.700000
846.311401	188.200000
846.345337	194.200000
846.379395	200.000000
846.413330	190.100000
846.447327	203.100000
846.481323	187.600000
846.515259	190.900000
846.549255	193.700000
846.583252	196.400000
846.617187	188.300000
846.651184	195.500000
846.685120	190.900000
846.719055	201.400000
846.753052	198.000000
846.786987	197.900000
846.820984	187.000000
846.854980	199.600000
846.888916	188.000000
846.922852	196.000000
846.956848	202.000000
846.990723	188.400000
847.024719	193.900000
847.058716	192.400000
847.092590	199.200000
847.126587	194.700000
847.160522	191.300000
847.194458	197.800000
847.228455	189.500000
847.262390	187.500000
847.296265	191.100000
847.330261	200.000000
847.364136	191.600000
847.398132	190.200000
847.432068	194.800000
847.466003	190.300000
847.499939	192.300000
847.533875	195.600000
847.567749	191.400000
847.601746	190.200000
847.635681	197.100000
847.669556	184.700000
847.703491	197.900000
847.737427	210.100000
847.771301	189.500000
847.805237	193.600000
847.839233	194.900000
847.873108	193.300000
847.907043	192.300000
847.940918	200.400000
847.974854	196.100000
848.008789	198.300000
848.042664	193.700000
848.076538	196.500000
848.110474	193.900000
848.144348	194.200000
848.178284	187.500000
848.212219	194.700000
848.246094	192.400000
848.279968	195.300000
848.313904	197.300000
848.347778	193.900000
848.381653	192.100000
848.415588	188.500000
848.449463	191.400000
848.483337	195.900000
848.517212	199.300000
848.551086	193.700000
848.585022	189.500000
848.618835	201.500000
848.652771	190.600000
848.686646	187.700000
848.720520	203.000000
848.754395	192.200000
848.788330	198.500000
848.822144	198.100000
848.856018	193.400000
848.889954	204.000000
848.923767	188.100000
848.957642	190.400000
848.991577	197.100000
849.025391	190.900000
849.059265	192.600000
849.093079	191.200000
849.126953	187.900000
849.160828	199.500000
849.194641	193.800000
849.228577	190.700000
849.262451	192.900000
849.296265	192.000000
849.330139	187.400000
849.364014	193.000000
849.397827	196.100000
849.431702	195.000000
849.465515	198.100000
849.499329	184.800000
849.533203	188.300000
849.567078	182.600000
849.600891	196.700000
849.634766	191.900000
849.668518	198.400000
849.702393	195.200000
849.736267	187.800000
849.770020	206.300000
849.803894	196.700000
849.837769	194.700000
849.871521	193.200000
849.905396	199.500000
849.939270	188.600000
849.973022	191.900000
850.006897	196.300000
850.040710	196.900000
850.074524	197.200000
850.108337	192.600000
850.142151	197.000000
850.175964	200.700000
850.209778	193.100000
850.243530	181.400000
850.277405	198.400000
850.311218	193.100000
850.344971	189.800000
850.378845	201.900000
850.412659	189.900000
850.446411	192.900000
850.480225	193.200000
850.514038	199.400000
850.547791	195.100000
850.581665	193.900000
850.615417	191.200000
850.649231	193.700000
850.683044	191.900000
850.716858	193.400000
850.750610	191.900000
850.784424	197.700000
850.818176	189.800000
850.851929	192.400000
850.885742	190.000000
850.919495	192.200000
850.953308	200.400000
850.987122	201.900000
851.020874	188.500000
851.054626	186.100000
851.088440	197.200000
851.122192	198.400000
851.156006	193.400000
851.189697	194.100000
851.223511	189.300000
851.257263	197.800000
851.291077	196.500000
851.324829	191.500000
851.358582	191.500000
851.392334	190.700000
851.426086	191.900000
851.459900	201.100000
851.493591	194.800000
851.527344	194.300000
851.561157	194.100000
851.594849	195.500000
851.628662	196.200000
851.662415	200.600000
851.696106	196.800000
851.729858	198.200000
851.763611	187.500000
851.797363	194.700000
851.831116	189.300000
851.864868	196.900000
851.898560	196.800000
851.932312	191.000000
851.966064	195.700000
851.999817	194.000000
852.033569	192.800000
852.067261	196.300000
852.101013	189.800000
852.134766	193.900000
852.168457	183.500000
852.202209	197.400000
852.235901	189.900000
852.269592	196.700000
852.303345	202.000000
852.337036	196.200000
852.370789	193.300000
852.404541	198.400000
852.438171	189.500000
852.471924	192.400000
852.505676	187.200000
852.539307	195.400000
852.573059	190.000000
852.606812	191.500000
852.640442	192.300000
852.674194	198.600000
852.707886	205.600000
852.741577	201.900000
852.775269	189.900000
852.809021	195.300000
852.842651	195.900000
852.876404	199.300000
852.910034	194.700000
852.943787	200.300000
852.977478	197.400000
853.011108	190.300000
853.044861	191.000000
853.078552	200.500000
853.112183	195.700000
853.145874	195.100000
853.179626	184.400000
853.213257	195.200000
853.246948	190.300000
853.280640	202.400000
853.314270	191.900000
853.347961	201.800000
853.381653	196.300000
853.415283	198.600000
853.448975	190.600000
853.482605	195.100000
853.516296	192.600000
853.549988	187.700000
853.583618	193.600000
853.617310	196.000000
853.651001	196.200000
853.684631	187.400000
853.718323	191.000000
853.751953	201.000000
853.785583	184.100000
853.819275	198.400000
853.852966	195.800000
853.886536	184.300000
853.920227	188.200000
853.953918	197.300000
853.987488	192.100000
854.021179	196.900000
854.054749	200.400000
854.088440	195.900000
854.122131	190.000000
854.155701	197.900000
854.189331	190.600000
854.223022	197.300000
854.256592	196.800000
854.290283	190.500000
854.323914	198.300000
854.357483	194.400000
854.391174	196.500000
854.424744	203.800000
854.458374	196.500000
854.492065	204.200000
854.525696	195.200000
854.559265	201.100000
854.592896	205.100000
854.626465	194.000000
854.660095	196.400000
854.693787	195.900000
854.727356	192.800000
854.760986	197.400000
854.794617	195.500000
854.828186	193.500000
854.861816	197.200000
854.895447	195.900000
854.929016	197.600000
854.962585	197.000000
854.996155	203.000000
855.029785	195.200000
855.063416	196.500000
855.097046	198.700000
855.130615	187.500000
855.164185	199.000000
855.197754	195.000000
855.231384	197.400000
855.264954	193.000000
855.298523	198.700000
855.332153	195.600000
855.365723	203.300000
855.399292	190.500000
855.432922	194.600000
855.466492	195.300000
855.500061	188.300000
855.533630	191.000000
855.567200	197.600000
855.600769	198.200000
855.634338	198.700000
855.667969	195.500000
855.701477	189.100000
855.735046	190.700000
855.768616	185.200000
855.802185	194.900000
855.835754	209.200000
855.869324	185.500000
855.902893	192.700000
855.936401	200.500000
855.969971	194.500000
856.003540	186.200000
856.037109	198.600000
856.070618	194.500000
856.104187	189.100000
856.137695	191.200000
856.171265	185.500000
856.204834	193.400000
856.238403	199.500000
856.271912	191.200000
856.305481	195.900000
856.338989	187.600000
856.372559	196.800000
856.406128	194.600000
856.439636	198.600000
856.473145	191.800000
856.506653	201.100000
856.540222	194.000000
856.573792	202.700000
856.607300	198.700000
856.640808	188.500000
856.674377	194.500000
856.707825	222.000000
856.741394	197.500000
856.774902	190.700000
856.808472	183.900000
856.841980	197.900000
856.875488	202.000000
856.908936	186.300000
856.942505	192.900000
856.976013	193.500000
857.009521	189.000000
857.043030	195.700000
857.076477	192.400000
857.110046	198.900000
857.143555	194.700000
857.177063	200.500000
857.210571	191.200000
857.244080	187.600000
857.277527	196.000000
857.311035	192.700000
857.344543	196.600000
857.378052	193.000000
857.411499	198.500000
857.445068	205.000000
857.478516	194.200000
857.512024	188.400000
857.545532	192.600000
857.578979	195.100000
857.612427	194.400000
857.645874	191.500000
857.679382	195.800000
857.712891	197.500000
857.746399	194.300000
857.779846	199.000000
857.813354	198.700000
857.846741	192.500000
857.880249	190.800000
857.913757	194.900000
857.947266	196.500000
857.980652	198.100000
858.014160	191.900000
858.047546	192.900000
858.081055	193.100000
858.114563	201.400000
858.147949	188.600000
858.181458	195.700000
858.214844	193.900000
858.248352	185.900000
858.281799	200.100000
858.315308	205.800000
858.348694	196.600000
858.382141	202.300000
858.415588	197.800000
858.449036	200.100000
858.482483	196.400000
858.515930	189.700000
858.549377	193.800000
858.582825	201.300000
858.616211	196.000000
858.649658	196.100000
858.683105	188.800000
858.716553	192.100000
858.750000	187.300000
858.783386	192.100000
858.816833	186.100000
858.850281	195.900000
858.883728	197.200000
858.917114	192.800000
858.950562	203.800000
858.983948	203.900000
859.017395	197.200000
859.050781	192.700000
859.084167	189.300000
859.117615	187.400000
859.151062	197.200000
859.184448	190.600000
859.217834	192.000000
859.251282	192.500000
859.284668	190.700000
859.318054	184.800000
859.351440	192.000000
859.384888	203.000000
859.418274	184.500000
859.451721	185.700000
859.485046	196.400000
859.518494	195.900000
859.551819	190.200000
859.585266	196.900000
859.618652	196.300000
859.652039	187.700000
859.685425	189.300000
859.718811	186.800000
859.752197	182.000000
859.785583	201.200000
859.819031	201.700000
859.852356	196.700000
859.885742	190.200000
859.919067	193.300000
859.952454	191.800000
859.985901	199.700000
860.019287	190.600000
860.052612	0.000000
860.085999	0.000000
860.119324	0.000000
860.152710	0.000000
860.186096	0.000000
860.219421	0.000000
860.252808	0.000000
860.286133	0.000000
860.319519	0.000000
860.352905	0.000000
860.386292	0.000000
860.419617	0.000000
860.452942	0.000000
860.486267	0.000000
860.519653	0.000000
860.553040	0.000000
860.586365	0.000000
860.619690	0.000000
860.653076	0.000000
860.686340	0.000000
860.719727	0.000000
860.753113	0.000000
860.786377	0.000000
860.819763	0.000000
860.853027	0.000000
860.886414	0.000000
860.919739	0.000000
860.953125	0.000000
860.986389	0.000000
861.019714	0.000000
861.053040	0.000000
861.086365	0.000000
861.119690	0.000000
861.153076	0.000000
861.186340	0.000000
861.219666	0.000000
861.252930	0.000000
861.286316	0.000000
861.319641	0.000000
861.352905	0.000000
861.386230	0.000000
861.419495	0.000000
861.452820	0.000000
861.486145	0.000000
861.519470	0.000000
861.552734	0.000000
861.586060	0.000000
861.619324	0.000000
861.652649	0.000000
861.685974	0.000000
861.719238	0.000000
861.752563	0.000000
861.785828	0.000000
861.819092	0.000000
861.852417	0.000000
861.885742	0.000000
861.918945	0.000000
861.952271	0.000000
861.985535	0.000000
862.018799	0.000000
862.052124	0.000000
862.085449	0.000000
862.118652	0.000000
862.151978	0.000000
862.185181	0.000000
862.218506	0.000000
862.251770	0.000000
862.285034	0.000000
862.318298	0.000000
862.351562	0.000000
862.384827	0.000000
862.418091	0.000000
862.451355	0.000000
862.484619	0.000000
862.517883	0.000000
862.551086	0.000000
862.584351	0.000000
862.617676	0.000000
862.650940	0.000000
862.684143	0.000000
862.717407	0.000000
862.750610	0.000000
862.783875	0.000000
862.817139	0.000000
862.850342	0.000000
862.883606	0.000000
862.916870	0.000000
862.950073	0.000000
862.983337	0.000000
863.016602	0.000000
863.049805	0.000000
863.083069	0.000000
863.116211	0.000000
863.149475	0.000000
863.182739	0.000000
863.216003	0.000000
863.249146	0.000000
863.282410	0.000000
863.315613	0.000000
863.348816	0.000000
863.382080	0.000000
863.415222	0.000000
863.448486	0.000000
863.481689	0.000000
863.514893	0.000000
863.548157	0.000000
863.581360	0.000000
863.614502	0.000000
863.647766	0.000000
863.680908	0.000000
863.714172	0.000000
863.747375	0.000000
863.780579	0.000000
863.813721	0.000000
863.846985	0.000000
863.880127	0.000000
863.913330	0.000000
863.946533	0.000000
863.979675	0.000000
864.012939	0.000000
