Model Number: SPM-001-M   
Serial Number: 10090201
Firmware Version: 004.17.6
Exposure Time: 500000.000000us
Data Taken on: 10-03-2021 12:34:00.955
Wavelength	Amplitude
733.770752	0.000000
733.808716	0.000000
733.846619	0.000000
733.884583	0.000000
733.922546	0.000000
733.960449	0.000000
733.998413	0.000000
734.036377	0.000000
734.074219	0.000000
734.112183	0.000000
734.150085	0.000000
734.188049	0.000000
734.226013	0.000000
734.263916	0.000000
734.301819	0.000000
734.339783	0.000000
734.377686	0.000000
734.415588	0.000000
734.453552	0.000000
734.491455	0.000000
734.529419	0.000000
734.567322	0.000000
734.605225	0.000000
734.643127	0.000000
734.681091	0.000000
734.718994	0.000000
734.756897	0.000000
734.794800	0.000000
734.832703	0.000000
734.870667	0.000000
734.908508	0.000000
734.946472	0.000000
734.984375	0.000000
735.022278	0.000000
735.060181	0.000000
735.098083	0.000000
735.135986	0.000000
735.173889	0.000000
735.211792	0.000000
735.249695	0.000000
735.287598	0.000000
735.325439	0.000000
735.363403	0.000000
735.401306	0.000000
735.439148	0.000000
735.477051	0.000000
735.515015	0.000000
735.552856	0.000000
735.590759	0.000000
735.628662	0.000000
735.666504	0.000000
735.704407	0.000000
735.742310	0.000000
735.780212	0.000000
735.818115	0.000000
735.856018	0.000000
735.893860	0.000000
735.931763	0.000000
735.969604	0.000000
736.007507	0.000000
736.045410	0.000000
736.083252	0.000000
736.121094	0.000000
736.158997	0.000000
736.196838	0.000000
736.234741	0.000000
736.272644	0.000000
736.310486	0.000000
736.348389	0.000000
736.386230	0.000000
736.424072	0.000000
736.461975	0.000000
736.499878	0.000000
736.537720	0.000000
736.575562	0.000000
736.613403	0.000000
736.651306	0.000000
736.689148	0.000000
736.726990	0.000000
736.764893	0.000000
736.802734	0.000000
736.840576	0.000000
736.878418	0.000000
736.916321	0.000000
736.954102	0.000000
736.992004	0.000000
737.029846	0.000000
737.067688	0.000000
737.105530	0.000000
737.143372	0.000000
737.181213	0.000000
737.219116	0.000000
737.256897	0.000000
737.294739	0.000000
737.332642	0.000000
737.370422	0.000000
737.408325	0.000000
737.446167	0.000000
737.483948	0.000000
737.521790	0.000000
737.559692	0.000000
737.597473	0.000000
737.635315	0.000000
737.673157	0.000000
737.710999	0.000000
737.748840	0.000000
737.786621	0.000000
737.824463	0.000000
737.862305	0.000000
737.900085	0.000000
737.937927	0.000000
737.975769	0.000000
738.013550	0.000000
738.051392	0.000000
738.089233	0.000000
738.127014	0.000000
738.164856	0.000000
738.202698	0.000000
738.240479	0.000000
738.278320	0.000000
738.316162	0.000000
738.353943	0.000000
738.391785	0.000000
738.429565	0.000000
738.467407	0.000000
738.505188	0.000000
738.542969	0.000000
738.580811	0.000000
738.618652	0.000000
738.656372	0.000000
738.694214	0.000000
738.732056	0.000000
738.769836	0.000000
738.807617	0.000000
738.845459	0.000000
738.883240	0.000000
738.921021	0.000000
738.958862	0.000000
738.996582	0.000000
739.034424	0.000000
739.072205	0.000000
739.109985	0.000000
739.147827	0.000000
739.185547	0.000000
739.223389	0.000000
739.261169	0.000000
739.298889	0.000000
739.336731	0.000000
739.374512	0.000000
739.412292	0.000000
739.450073	0.000000
739.487854	0.000000
739.525635	0.000000
739.563416	0.000000
739.601135	0.000000
739.638977	0.000000
739.676758	0.000000
739.714478	0.000000
739.752258	0.000000
739.790100	0.000000
739.827820	0.000000
739.865601	0.000000
739.903381	0.000000
739.941101	0.000000
739.978882	194.500000
740.016724	191.700000
740.054443	196.800000
740.092224	188.700000
740.130005	187.200000
740.167725	191.000000
740.205505	188.200000
740.243225	198.600000
740.281006	193.900000
740.318787	184.900000
740.356506	198.200000
740.394287	199.200000
740.432068	186.500000
740.469727	185.600000
740.507507	196.500000
740.545288	192.600000
740.583008	195.400000
740.620789	193.200000
740.658569	184.400000
740.696228	191.800000
740.734009	198.600000
740.771790	180.500000
740.809509	197.600000
740.847229	186.700000
740.884949	189.800000
740.922729	185.200000
740.960449	191.900000
740.998169	186.700000
741.035950	189.100000
741.073669	193.000000
741.111389	193.100000
741.149170	201.400000
741.186890	203.000000
741.224609	195.700000
741.262329	194.400000
741.300110	201.700000
741.337769	188.600000
741.375549	186.900000
741.413208	194.300000
741.450989	187.500000
741.488708	189.800000
741.526367	190.200000
741.564148	196.200000
741.601868	195.300000
741.639526	193.000000
741.677307	193.000000
741.715027	195.400000
741.752686	187.400000
741.790466	201.200000
741.828186	195.400000
741.865845	188.600000
741.903564	181.400000
741.941345	192.500000
741.979004	188.100000
742.016724	195.200000
742.054382	194.100000
742.092102	198.200000
742.129822	185.200000
742.167480	190.600000
742.205200	192.000000
742.242920	193.800000
742.280640	196.300000
742.318359	187.900000
742.356079	188.900000
742.393738	195.600000
742.431396	191.700000
742.469116	196.000000
742.506775	182.900000
742.544495	195.600000
742.582214	196.900000
742.619873	191.700000
742.657593	199.900000
742.695251	196.500000
742.732971	191.900000
742.770630	193.000000
742.808289	192.100000
742.846008	191.400000
742.883728	196.600000
742.921326	192.200000
742.959045	191.000000
742.996765	191.300000
743.034424	192.300000
743.072083	189.800000
743.109802	192.000000
743.147400	184.600000
743.185120	193.200000
743.222839	191.700000
743.260437	199.200000
743.298157	195.100000
743.335754	184.600000
743.373474	191.000000
743.411133	185.100000
743.448792	191.700000
743.486450	193.000000
743.524170	184.200000
743.561768	192.800000
743.599487	198.700000
743.637146	202.900000
743.674744	189.800000
743.712463	188.700000
743.750122	193.500000
743.787720	193.900000
743.825439	188.200000
743.863037	190.100000
743.900696	192.200000
743.938416	215.500000
743.976013	191.400000
744.013672	200.900000
744.051331	196.200000
744.088928	200.700000
744.126587	198.400000
744.164307	193.600000
744.201904	188.700000
744.239563	196.600000
744.277222	193.300000
744.314819	191.900000
744.352478	199.800000
744.390137	194.200000
744.427734	194.900000
744.465393	190.000000
744.502991	189.100000
744.540649	195.400000
744.578308	195.000000
744.615906	187.300000
744.653564	182.700000
744.691223	196.100000
744.728821	185.600000
744.766418	191.200000
744.804077	195.700000
744.841675	189.800000
744.879333	185.600000
744.916992	191.100000
744.954529	190.400000
744.992187	197.500000
745.029785	191.300000
745.067444	188.200000
745.105042	192.500000
745.142639	193.000000
745.180298	202.000000
745.217896	190.400000
745.255493	189.700000
745.293152	196.700000
745.330750	196.100000
745.368347	201.500000
745.405945	194.700000
745.443604	191.200000
745.481140	195.700000
745.518799	190.700000
745.556396	196.700000
745.593994	195.600000
745.631592	191.400000
745.669189	187.500000
745.706787	195.200000
745.744385	187.600000
745.781982	194.500000
745.819580	189.500000
745.857178	190.600000
745.894775	192.500000
745.932373	192.000000
745.969971	192.900000
746.007568	182.400000
746.045166	202.900000
746.082764	197.900000
746.120300	195.500000
746.157898	196.400000
746.195557	193.200000
746.233093	186.200000
746.270691	197.000000
746.308228	195.100000
746.345825	198.700000
746.383423	195.800000
746.420959	188.700000
746.458557	188.800000
746.496155	190.600000
746.533691	192.000000
746.571289	187.600000
746.608887	191.600000
746.646423	193.100000
746.684021	193.700000
746.721619	190.200000
746.759155	192.900000
746.796753	186.200000
746.834351	185.400000
746.871826	189.700000
746.909424	198.800000
746.946960	194.100000
746.984558	190.500000
747.022156	190.300000
747.059631	199.300000
747.097229	195.200000
747.134827	189.400000
747.172363	200.300000
747.209900	195.000000
747.247498	187.300000
747.285034	200.500000
747.322571	199.400000
747.360168	190.800000
747.397644	185.800000
747.435242	195.300000
747.472778	199.500000
747.510315	189.300000
747.547913	189.000000
747.585388	199.100000
747.622925	191.900000
747.660522	182.700000
747.697998	190.000000
747.735596	192.300000
747.773132	188.800000
747.810669	192.400000
747.848206	196.200000
747.885742	186.400000
747.923279	187.100000
747.960815	196.000000
747.998352	193.900000
748.035889	198.200000
748.073425	196.700000
748.110901	189.900000
748.148437	188.100000
748.185974	194.100000
748.223511	202.500000
748.261047	193.800000
748.298584	195.600000
748.336060	191.600000
748.373596	195.200000
748.411133	211.700000
748.448608	188.400000
748.486145	198.500000
748.523682	199.700000
748.561218	200.100000
748.598755	193.300000
748.636292	195.300000
748.673706	188.800000
748.711243	199.500000
748.748718	194.400000
748.786255	193.000000
748.823792	191.200000
748.861267	187.700000
748.898804	194.100000
748.936340	194.800000
748.973816	191.400000
749.011292	199.000000
749.048828	195.700000
749.086304	195.100000
749.123840	203.200000
749.161316	188.600000
749.198792	202.200000
749.236328	199.200000
749.273743	192.000000
749.311279	191.400000
749.348816	194.700000
749.386230	193.800000
749.423767	180.900000
749.461304	195.700000
749.498718	193.300000
749.536255	199.500000
749.573730	205.000000
749.611206	198.700000
749.648682	192.300000
749.686218	192.300000
749.723633	196.700000
749.761169	190.900000
749.798645	189.000000
749.836060	192.600000
749.873596	189.900000
749.911011	191.300000
749.948547	200.300000
749.986023	192.800000
750.023437	191.200000
750.060913	186.300000
750.098450	186.100000
750.135864	191.700000
750.173340	195.700000
750.210815	196.500000
750.248291	187.600000
750.285767	192.000000
750.323242	199.000000
750.360657	193.500000
750.398132	187.900000
750.435608	195.600000
750.473022	190.100000
750.510498	189.300000
750.547974	189.000000
750.585449	190.300000
750.622925	182.500000
750.660339	200.500000
750.697815	193.700000
750.735291	191.900000
750.772644	193.500000
750.810120	193.100000
750.847595	195.100000
750.885010	187.100000
750.922485	201.900000
750.959961	191.700000
750.997375	200.400000
751.034851	196.500000
751.072266	197.000000
751.109680	186.400000
751.147156	199.100000
751.184570	194.500000
751.221985	194.100000
751.259460	183.200000
751.296875	192.700000
751.334290	194.600000
751.371765	197.900000
751.409180	197.200000
751.446594	199.400000
751.484070	195.600000
751.521423	195.300000
751.558899	195.200000
751.596375	200.600000
751.633728	200.900000
751.671204	205.300000
751.708618	188.800000
751.746033	193.200000
751.783447	188.700000
751.820801	188.800000
751.858276	195.900000
751.895691	191.200000
751.933105	191.900000
751.970520	187.900000
752.007935	192.300000
752.045349	196.600000
752.082764	193.300000
752.120178	190.700000
752.157532	188.900000
752.195007	190.400000
752.232422	196.100000
752.269775	196.800000
752.307190	196.300000
752.344543	187.200000
752.382019	192.500000
752.419434	190.000000
752.456787	193.500000
752.494202	196.900000
752.531616	194.900000
752.568970	198.000000
752.606384	195.600000
752.643799	195.000000
752.681152	201.900000
752.718567	195.200000
752.755981	185.900000
752.793335	194.700000
752.830750	184.400000
752.868164	198.500000
752.905518	188.800000
752.942932	196.900000
752.980225	187.400000
753.017639	198.300000
753.055054	191.600000
753.092407	195.200000
753.129822	198.700000
753.167175	203.100000
753.204529	191.800000
753.241943	190.800000
753.279358	188.200000
753.316650	198.900000
753.354065	195.300000
753.391479	197.700000
753.428772	203.200000
753.466187	199.000000
753.503479	186.500000
753.540894	192.100000
753.578308	186.200000
753.615601	189.300000
753.653015	194.900000
753.690369	191.800000
753.727722	187.600000
753.765076	187.400000
753.802490	187.600000
753.839783	185.500000
753.877136	189.800000
753.914551	209.100000
753.951843	188.000000
753.989258	196.800000
754.026611	194.600000
754.063904	197.700000
754.101257	188.200000
754.138611	185.800000
754.175964	193.200000
754.213318	205.400000
754.250610	185.100000
754.288025	190.900000
754.325378	186.300000
754.362671	198.500000
754.400024	190.000000
754.437378	201.800000
754.474670	201.800000
754.512085	191.000000
754.549438	193.800000
754.586731	191.100000
754.624084	191.400000
754.661438	188.200000
754.698730	201.000000
754.736084	191.000000
754.773376	192.400000
754.810730	195.100000
754.848083	191.900000
754.885315	196.300000
754.922668	185.400000
754.960022	188.800000
754.997314	199.400000
755.034668	194.200000
755.072021	194.100000
755.109253	192.600000
755.146606	202.900000
755.183960	192.000000
755.221252	203.700000
755.258545	201.400000
755.295898	202.200000
755.333191	202.900000
755.370544	200.100000
755.407776	194.700000
755.445129	197.400000
755.482422	200.700000
755.519714	191.900000
755.557068	187.700000
755.594360	188.300000
755.631653	199.900000
755.668945	206.300000
755.706299	198.600000
755.743530	209.200000
755.780884	204.700000
755.818176	203.400000
755.855408	200.600000
755.892761	199.200000
755.930054	198.800000
755.967346	201.600000
756.004639	200.300000
756.041870	198.600000
756.079224	202.900000
756.116516	195.200000
756.153748	201.500000
756.191040	205.800000
756.228394	200.400000
756.265625	194.400000
756.302917	199.100000
756.340210	195.200000
756.377441	204.900000
756.414795	206.900000
756.452087	199.500000
756.489319	194.400000
756.526611	203.200000
756.563843	201.800000
756.601135	211.500000
756.638428	209.500000
756.675659	198.800000
756.712952	205.100000
756.750244	203.400000
756.787476	203.500000
756.824768	208.200000
756.862061	198.600000
756.899292	247.900000
756.936584	206.600000
756.973816	212.900000
757.011047	214.200000
757.048340	205.000000
757.085632	201.700000
757.122864	219.700000
757.160156	200.100000
757.197327	204.700000
757.234619	207.500000
757.271912	202.000000
757.309082	208.700000
757.346375	202.300000
757.383667	210.700000
757.420837	206.700000
757.458130	204.100000
757.495422	203.800000
757.532593	206.600000
757.569885	198.000000
757.607117	200.300000
757.644348	207.900000
757.681580	218.200000
757.718811	194.600000
757.756042	203.500000
757.793335	202.100000
757.830505	208.500000
757.867798	204.100000
757.905029	202.000000
757.942200	207.000000
757.979492	201.600000
758.016724	205.600000
758.053894	204.300000
758.091187	225.500000
758.128418	207.100000
758.165588	205.900000
758.202820	217.600000
758.240112	210.000000
758.277283	218.000000
758.314514	209.700000
758.351685	205.700000
758.388916	217.300000
758.426147	215.500000
758.463379	218.400000
758.500610	213.500000
758.537842	210.400000
758.575012	216.500000
758.612244	205.900000
758.649475	221.800000
758.686646	203.500000
758.723877	217.300000
758.761108	217.900000
758.798279	211.500000
758.835510	212.700000
758.872742	217.500000
758.909851	214.200000
758.947083	217.900000
758.984253	214.500000
759.021484	218.200000
759.058716	216.700000
759.095886	218.900000
759.133057	210.900000
759.170288	217.200000
759.207458	209.800000
759.244690	226.600000
759.281860	222.600000
759.319031	214.800000
759.356262	212.000000
759.393433	212.900000
759.430603	213.000000
759.467773	215.100000
759.505005	222.000000
759.542175	220.200000
759.579346	212.500000
759.616516	216.300000
759.653687	216.500000
759.690918	212.600000
759.728027	216.900000
759.765259	217.400000
759.802429	218.500000
759.839539	218.800000
759.876770	222.300000
759.913940	227.200000
759.951111	218.000000
759.988281	218.300000
760.025452	213.300000
760.062561	213.600000
760.099792	227.400000
760.136963	219.800000
760.174072	218.400000
760.211243	212.300000
760.248413	213.900000
760.285583	215.200000
760.322754	229.000000
760.359863	224.200000
760.397034	226.600000
760.434204	219.200000
760.471375	220.900000
760.508545	217.000000
760.545715	218.900000
760.582825	215.000000
760.619995	226.600000
760.657166	213.400000
760.694275	227.400000
760.731445	222.400000
760.768555	224.700000
760.805664	223.600000
760.842834	225.200000
760.879944	226.600000
760.917114	224.900000
760.954285	222.400000
760.991394	218.800000
761.028564	229.700000
761.065674	227.300000
761.102783	220.200000
761.139954	230.000000
761.177124	228.900000
761.214172	233.400000
761.251343	223.400000
761.288452	226.200000
761.325562	230.300000
761.362732	223.600000
761.399841	225.700000
761.436951	230.800000
761.474121	224.700000
761.511169	230.400000
761.548340	233.900000
761.585449	234.900000
761.622559	235.900000
761.659668	232.500000
761.696838	238.900000
761.733887	236.300000
761.771057	232.500000
761.808167	234.100000
761.845276	239.600000
761.882385	246.700000
761.919434	235.500000
761.956604	256.900000
761.993713	232.700000
762.030762	242.800000
762.067871	238.600000
762.105042	237.300000
762.142090	245.800000
762.179199	241.000000
762.216309	245.600000
762.253418	254.900000
762.290527	251.200000
762.327637	247.800000
762.364685	237.700000
762.401794	245.700000
762.438904	245.200000
762.475952	240.600000
762.513062	239.700000
762.550110	240.800000
762.587219	256.200000
762.624329	253.500000
762.661377	249.800000
762.698486	247.200000
762.735596	248.400000
762.772644	240.500000
762.809753	240.400000
762.846863	247.200000
762.883911	252.200000
762.921021	250.700000
762.958069	250.900000
762.995117	257.500000
763.032227	260.000000
763.069336	249.900000
763.106323	245.500000
763.143433	244.100000
763.180481	252.600000
763.217590	251.500000
763.254639	251.200000
763.291687	251.400000
763.328735	261.900000
763.365845	253.800000
763.402893	253.700000
763.439941	257.300000
763.477051	259.500000
763.514038	261.800000
763.551147	253.300000
763.588196	256.800000
763.625244	256.800000
763.662292	262.800000
763.699402	267.700000
763.736389	263.900000
763.773499	271.300000
763.810486	265.700000
763.847534	262.900000
763.884644	265.400000
763.921631	260.000000
763.958679	274.500000
763.995728	262.800000
764.032776	273.000000
764.069824	257.600000
764.106873	268.600000
764.143860	275.700000
764.180969	268.500000
764.218018	276.000000
764.255005	268.600000
764.292053	270.300000
764.329102	282.100000
764.366089	280.800000
764.403137	280.000000
764.440125	267.900000
764.477173	272.700000
764.514221	275.400000
764.551208	271.900000
764.588257	267.700000
764.625305	279.700000
764.662292	283.600000
764.699341	288.500000
764.736389	280.600000
764.773376	297.400000
764.810425	282.600000
764.847473	291.000000
764.884399	284.300000
764.921448	295.200000
764.958435	292.800000
764.995483	281.500000
765.032532	298.100000
765.069458	282.400000
765.106506	283.800000
765.143555	284.100000
765.180481	286.400000
765.217529	295.600000
765.254578	281.400000
765.291504	291.800000
765.328552	286.800000
765.365540	284.000000
765.402527	299.600000
765.439575	285.700000
765.476501	282.900000
765.513550	282.400000
765.550537	290.300000
765.587463	296.500000
765.624512	289.200000
765.661499	279.400000
765.698486	298.400000
765.735474	288.600000
765.772461	291.300000
765.809448	299.600000
765.846436	298.800000
765.883423	299.000000
765.920410	294.300000
765.957397	292.200000
765.994385	298.300000
766.031311	307.900000
766.068359	299.300000
766.105286	299.300000
766.142273	306.900000
766.179260	300.800000
766.216187	296.200000
766.253174	292.500000
766.290161	301.900000
766.327148	304.900000
766.364136	308.100000
766.401123	322.400000
766.438049	300.200000
766.475037	313.000000
766.512024	309.600000
766.548950	323.400000
766.585937	318.100000
766.622864	315.700000
766.659790	313.800000
766.696777	304.800000
766.733704	321.900000
766.770691	313.800000
766.807678	329.700000
766.844604	325.900000
766.881531	322.300000
766.918518	330.600000
766.955444	331.100000
766.992432	324.200000
767.029358	329.700000
767.066284	331.500000
767.103271	330.000000
767.140198	356.800000
767.177124	345.700000
767.214050	335.900000
767.251038	338.800000
767.287964	336.200000
767.324890	332.600000
767.361816	340.100000
767.398743	348.000000
767.435730	340.800000
767.472595	344.500000
767.509583	349.800000
767.546509	339.700000
767.583374	346.500000
767.620361	338.800000
767.657288	346.900000
767.694214	346.100000
767.731140	346.500000
767.768066	346.600000
767.804993	354.400000
767.841919	344.800000
767.878845	351.700000
767.915710	358.500000
767.952698	354.700000
767.989563	355.800000
768.026489	360.900000
768.063416	351.200000
768.100281	353.400000
768.137207	368.700000
768.174133	366.600000
768.211060	365.000000
768.247986	365.900000
768.284912	365.900000
768.321777	367.700000
768.358704	364.400000
768.395630	371.400000
768.432495	364.200000
768.469421	371.700000
768.506348	378.400000
768.543152	383.700000
768.580078	380.700000
768.616943	384.500000
768.653870	386.200000
768.690796	381.400000
768.727661	379.000000
768.764587	383.500000
768.801453	379.200000
768.838318	390.600000
768.875244	388.200000
768.912109	393.700000
768.948975	386.300000
768.985901	390.000000
769.022766	388.800000
769.059631	398.200000
769.096558	391.600000
769.133362	393.600000
769.170288	395.500000
769.207214	394.700000
769.244019	404.700000
769.280945	403.500000
769.317810	408.400000
769.354675	403.200000
769.391541	415.900000
769.428406	407.300000
769.465271	420.300000
769.502136	406.600000
769.539062	413.100000
769.575867	411.700000
769.612732	415.300000
769.649597	419.700000
769.686462	425.400000
769.723328	418.600000
769.760193	418.400000
769.797058	422.100000
769.833923	432.200000
769.870728	426.900000
769.907593	430.400000
769.944519	429.800000
769.981323	431.700000
770.018188	434.900000
770.055054	429.900000
770.091858	428.100000
770.128723	442.900000
770.165588	447.800000
770.202393	432.800000
770.239258	446.200000
770.276062	440.700000
770.312927	439.700000
770.349792	449.000000
770.386597	444.800000
770.423462	454.900000
770.460327	463.500000
770.497131	448.600000
770.533997	439.100000
770.570862	455.100000
770.607605	459.000000
770.644470	452.400000
770.681335	454.600000
770.718140	454.400000
770.754944	445.200000
770.791809	447.700000
770.828613	450.800000
770.865479	449.700000
770.902222	463.700000
770.939087	456.100000
770.975952	448.000000
771.012695	451.000000
771.049561	468.400000
771.086365	455.300000
771.123169	456.000000
771.159973	456.900000
771.196838	459.900000
771.233582	458.300000
771.270447	461.800000
771.307251	466.400000
771.344055	462.800000
771.380859	465.800000
771.417664	455.400000
771.454468	464.400000
771.491272	469.900000
771.528076	467.700000
771.564880	469.000000
771.601685	477.600000
771.638428	471.200000
771.675293	473.700000
771.712097	467.600000
771.748840	485.700000
771.785645	477.000000
771.822449	480.000000
771.859253	483.800000
771.896057	478.100000
771.932861	494.100000
771.969604	486.200000
772.006409	478.900000
772.043213	494.600000
772.079956	488.000000
772.116760	479.300000
772.153503	487.200000
772.190308	496.100000
772.227112	487.500000
772.263855	486.400000
772.300659	492.800000
772.337463	502.200000
772.374207	489.700000
772.411011	485.500000
772.447754	494.900000
772.484497	515.200000
772.521301	507.500000
772.558105	502.400000
772.594849	505.600000
772.631592	513.500000
772.668396	510.800000
772.705139	522.200000
772.741882	520.200000
772.778625	533.000000
772.815430	537.400000
772.852173	532.800000
772.888916	537.500000
772.925720	542.600000
772.962463	549.900000
772.999207	546.300000
773.035950	548.900000
773.072754	552.600000
773.109436	545.000000
773.146240	546.700000
773.182922	547.600000
773.219727	559.600000
773.256470	553.300000
773.293152	541.900000
773.329956	549.900000
773.366699	555.100000
773.403381	546.800000
773.440186	560.400000
773.476929	564.300000
773.513611	555.300000
773.550354	556.800000
773.587158	560.800000
773.623840	555.000000
773.660583	573.100000
773.697327	581.100000
773.734009	570.800000
773.770813	569.400000
773.807495	570.600000
773.844238	573.900000
773.880981	595.500000
773.917664	589.800000
773.954407	591.600000
773.991150	584.800000
774.027832	586.700000
774.064575	581.100000
774.101318	597.600000
774.138000	600.500000
774.174744	596.700000
774.211487	598.000000
774.248108	590.000000
774.284851	589.400000
774.321594	604.700000
774.358276	607.500000
774.395020	618.300000
774.431702	615.000000
774.468384	607.700000
774.505127	605.200000
774.541809	622.500000
774.578491	633.700000
774.615234	635.400000
774.651917	625.000000
774.688599	630.400000
774.725342	638.600000
774.762024	638.000000
774.798706	646.300000
774.835449	646.000000
774.872070	655.300000
774.908813	646.800000
774.945496	643.900000
774.982178	645.900000
775.018860	651.000000
775.055542	653.700000
775.092224	654.200000
775.128967	660.400000
775.165588	653.900000
775.202271	646.600000
775.239014	662.000000
775.275635	667.800000
775.312317	665.000000
775.349060	666.400000
775.385681	669.200000
775.422363	657.300000
775.459045	671.100000
775.495667	673.400000
775.532410	682.400000
775.569092	680.400000
775.605713	678.200000
775.642395	676.300000
775.679016	682.300000
775.715698	685.700000
775.752380	691.800000
775.789001	683.700000
775.825684	679.800000
775.862366	681.300000
775.898987	699.800000
775.935669	687.900000
775.972351	712.600000
776.008972	707.100000
776.045654	703.300000
776.082336	695.300000
776.118958	694.200000
776.155640	701.800000
776.192322	712.700000
776.228882	715.200000
776.265564	716.500000
776.302185	710.000000
776.338867	712.200000
776.375488	701.100000
776.412109	720.700000
776.448792	724.100000
776.485413	727.500000
776.522034	718.600000
776.558716	709.500000
776.595337	711.600000
776.631958	715.300000
776.668579	717.600000
776.705261	724.500000
776.741882	717.100000
776.778503	715.200000
776.815186	710.800000
776.851746	721.800000
776.888367	723.200000
776.924988	732.200000
776.961609	719.200000
776.998291	719.000000
777.034851	710.300000
777.071472	726.100000
777.108154	726.700000
777.144714	733.700000
777.181335	734.400000
777.218018	721.600000
777.254578	733.600000
777.291199	730.800000
777.327759	744.400000
777.364380	746.000000
777.401062	750.600000
777.437622	761.200000
777.474243	749.200000
777.510864	760.500000
777.547424	754.300000
777.584045	757.700000
777.620667	762.500000
777.657227	768.800000
777.693848	767.500000
777.730469	785.100000
777.767029	774.500000
777.803650	779.200000
777.840271	774.400000
777.876831	774.700000
777.913452	786.000000
777.950012	764.800000
777.986633	768.500000
778.023193	763.500000
778.059753	763.900000
778.096375	771.100000
778.132996	784.100000
778.169556	769.400000
778.206116	769.300000
778.242737	768.800000
778.279297	784.600000
778.315857	774.600000
778.352478	785.200000
778.389038	792.400000
778.425598	794.100000
778.462219	810.100000
778.498718	806.000000
778.535339	813.300000
778.571838	810.900000
778.608459	818.400000
778.645020	813.600000
778.681580	825.400000
778.718140	831.200000
778.754761	826.300000
778.791260	835.000000
778.827881	845.700000
778.864441	837.800000
778.900940	844.400000
778.937561	842.700000
778.974121	840.500000
779.010620	821.600000
779.047241	834.000000
779.083801	847.000000
779.120300	846.200000
779.156860	851.500000
779.193359	847.900000
779.229980	848.800000
779.266541	855.900000
779.303040	860.800000
779.339600	854.400000
779.376160	849.700000
779.412659	856.800000
779.449219	851.100000
779.485779	868.100000
779.522278	867.500000
779.558838	870.700000
779.595398	872.600000
779.631897	870.200000
779.668457	864.900000
779.705017	878.500000
779.741516	871.400000
779.778076	861.900000
779.814575	873.600000
779.851074	886.400000
779.887634	878.500000
779.924133	886.900000
779.960693	875.200000
779.997253	882.500000
780.033691	889.500000
780.070251	890.400000
780.106812	907.500000
780.143250	898.100000
780.179810	896.400000
780.216370	900.700000
780.252808	914.500000
780.289368	924.900000
780.325867	927.300000
780.362366	920.000000
780.398865	935.800000
780.435364	927.800000
780.471863	946.800000
780.508423	944.000000
780.544861	951.100000
780.581421	958.800000
780.617920	949.500000
780.654419	941.300000
780.690918	956.400000
780.727417	964.200000
780.763916	954.700000
780.800415	964.000000
780.836914	946.000000
780.873352	953.000000
780.909912	949.400000
780.946411	952.700000
780.982849	966.800000
781.019348	984.800000
781.055786	978.100000
781.092346	966.700000
781.128845	982.400000
781.165283	987.400000
781.201782	991.800000
781.238281	995.400000
781.274719	998.600000
781.311218	992.600000
781.347717	1001.600000
781.384155	988.300000
781.420654	993.000000
781.457092	1007.300000
781.493591	1006.300000
781.530090	994.000000
781.566528	1000.600000
781.602966	1000.100000
781.639465	995.100000
781.675903	993.500000
781.712402	1009.300000
781.748901	1016.600000
781.785278	1006.400000
781.821777	1014.200000
781.858276	1010.800000
781.894714	1023.900000
781.931152	1012.300000
781.967651	1021.800000
782.004089	1012.800000
782.040527	1022.800000
782.076965	1020.600000
782.113403	1026.700000
782.149902	1029.000000
782.186340	1023.100000
782.222778	1030.800000
782.259277	1020.500000
782.295654	1015.900000
782.332092	1023.500000
782.368591	1016.800000
782.404968	1011.600000
782.441467	1019.700000
782.477905	1021.300000
782.514282	1014.500000
782.550781	1031.500000
782.587219	1030.700000
782.623596	1034.900000
782.660095	1035.400000
782.696472	1040.400000
782.732910	1044.500000
782.769348	1053.500000
782.805786	1070.600000
782.842224	1061.600000
782.878662	1055.000000
782.915039	1052.800000
782.951477	1052.600000
782.987915	1047.100000
783.024292	1060.600000
783.060730	1051.900000
783.097168	1036.000000
783.133545	1030.600000
783.169983	1023.600000
783.206421	1015.100000
783.242798	1014.600000
783.279236	998.200000
783.315613	977.200000
783.352051	960.900000
783.388489	928.400000
783.424866	890.700000
783.461304	858.100000
783.497681	817.800000
783.534058	770.100000
783.570496	717.800000
783.606934	667.400000
783.643250	635.500000
783.679687	610.200000
783.716125	577.600000
783.752441	566.100000
783.788879	578.100000
783.825317	591.500000
783.861633	609.700000
783.898071	635.400000
783.934448	673.500000
783.970825	716.000000
784.007263	749.000000
784.043579	793.100000
784.080017	837.700000
784.116394	874.500000
784.152710	911.700000
784.189148	955.600000
784.225525	982.000000
784.261902	998.900000
784.298279	1018.800000
784.334656	1041.000000
784.371033	1039.800000
784.407410	1063.200000
784.443787	1057.700000
784.480164	1047.500000
784.516541	1025.100000
784.552856	1031.700000
784.589233	1025.200000
784.625610	1023.700000
784.661987	1062.600000
784.698364	1053.400000
784.734741	1039.900000
784.771057	1042.500000
784.807434	1045.700000
784.843811	1070.800000
784.880127	1074.500000
784.916504	1103.300000
784.952881	1106.500000
784.989197	1100.500000
785.025574	1100.600000
785.061951	1107.300000
785.098267	1141.200000
785.134644	1133.100000
785.170959	1129.300000
785.207275	1136.200000
785.243652	1128.900000
785.279968	1123.100000
785.316345	1132.300000
785.352722	1136.500000
785.388977	1137.100000
785.425354	1116.500000
785.461731	1095.800000
785.498047	1082.400000
785.534363	1076.500000
785.570679	1082.500000
785.606995	1091.600000
785.643372	1090.200000
785.679687	1083.800000
785.716003	1068.300000
785.752380	1062.100000
785.788635	1069.300000
785.825012	1094.000000
785.861328	1104.000000
785.897644	1087.700000
785.933960	1100.200000
785.970337	1107.800000
786.006592	1125.600000
786.042908	1136.300000
786.079285	1154.200000
786.115540	1162.800000
786.151855	1160.000000
786.188171	1161.000000
786.224487	1157.000000
786.260803	1147.600000
786.297119	1175.100000
786.333435	1178.600000
786.369751	1170.100000
786.406006	1169.700000
786.442322	1149.000000
786.478638	1148.400000
786.514954	1162.700000
786.551270	1163.800000
786.587585	1172.900000
786.623840	1158.900000
786.660156	1148.900000
786.696472	1136.000000
786.732727	1134.000000
786.769043	1142.000000
786.805298	1129.500000
786.841614	1128.500000
786.877930	1132.300000
786.914124	1115.800000
786.950439	1135.900000
786.986755	1142.900000
787.023010	1162.000000
787.059326	1169.700000
787.095642	1170.600000
787.131836	1180.200000
787.168152	1167.900000
787.204468	1171.400000
787.240723	1194.900000
787.276978	1210.300000
787.313293	1224.800000
787.349548	1217.300000
787.385803	1215.000000
787.422058	1205.700000
787.458313	1211.200000
787.494629	1211.900000
787.530823	1206.200000
787.567139	1194.000000
787.603455	1184.000000
787.639648	1168.100000
787.675903	1178.200000
787.712219	1180.000000
787.748413	1180.000000
787.784729	1185.800000
787.820984	1172.700000
787.857178	1166.100000
787.893494	1152.600000
787.929749	1148.900000
787.965942	1150.000000
788.002258	1165.700000
788.038452	1174.900000
788.074707	1157.700000
788.110962	1165.000000
788.147217	1163.800000
788.183472	1173.400000
788.219727	1178.500000
788.255920	1197.400000
788.292175	1206.100000
788.328430	1197.100000
788.364624	1184.100000
788.400879	1170.900000
788.437134	1180.000000
788.473328	1178.300000
788.509583	1182.300000
788.545837	1168.400000
788.582031	1159.300000
788.618286	1148.500000
788.654480	1143.500000
788.690735	1154.700000
788.726990	1178.200000
788.763184	1176.100000
788.799377	1191.800000
788.835632	1173.900000
788.871826	1200.000000
788.908081	1196.900000
788.944336	1194.600000
788.980469	1207.000000
789.016724	1207.100000
789.052979	1201.500000
789.089111	1175.100000
789.125366	1183.700000
789.161621	1163.600000
789.197754	1181.800000
789.234009	1171.900000
789.270142	1151.800000
789.306396	1143.800000
789.342590	1136.300000
789.378784	1110.500000
789.414978	1108.200000
789.451233	1131.400000
789.487366	1126.200000
789.523621	1135.400000
789.559814	1127.400000
789.595947	1112.000000
789.632202	1131.800000
789.668335	1135.900000
789.704529	1150.000000
789.740784	1177.100000
789.776917	1178.100000
789.813110	1161.100000
789.849304	1177.200000
789.885498	1184.300000
789.921692	1201.900000
789.957886	1204.200000
789.994019	1208.500000
790.030212	1197.100000
790.066406	1198.800000
790.102539	1195.800000
790.138733	1201.900000
790.174927	1203.700000
790.211060	1218.500000
790.247253	1201.500000
790.283386	1190.200000
790.319580	1176.400000
790.355774	1150.400000
790.391907	1158.800000
790.428101	1183.100000
790.464294	1185.800000
790.500427	1184.500000
790.536621	1166.100000
790.572754	1146.700000
790.608887	1154.500000
790.645081	1171.500000
790.681274	1185.300000
790.717346	1177.500000
790.753540	1142.600000
790.789734	1074.500000
790.825867	1021.000000
790.862000	1028.300000
790.898132	1070.700000
790.934265	1136.700000
790.970459	1193.400000
791.006592	1213.400000
791.042725	1208.200000
791.078918	1205.100000
791.114990	1209.300000
791.151184	1222.100000
791.187317	1246.300000
791.223389	1236.600000
791.259583	1214.900000
791.295715	1229.600000
791.331848	1234.700000
791.367981	1249.500000
791.404114	1261.900000
791.440247	1250.700000
791.476379	1243.600000
791.512451	1227.700000
791.548584	1228.100000
791.584778	1224.400000
791.620850	1247.400000
791.656982	1255.600000
791.693115	1242.400000
791.729187	1243.900000
791.765381	1232.400000
791.801514	1231.300000
791.837585	1230.500000
791.873718	1237.400000
791.909851	1249.600000
791.945923	1255.100000
791.982056	1222.600000
792.018188	1225.300000
792.054260	1221.200000
792.090393	1224.500000
792.126465	1222.000000
792.162598	1223.500000
792.198669	1209.900000
792.234741	1209.500000
792.270874	1201.900000
792.307007	1187.900000
792.343079	1197.500000
792.379150	1207.600000
792.415283	1189.000000
792.451355	1198.700000
792.487488	1167.400000
792.523560	1169.900000
792.559631	1174.000000
792.595764	1174.400000
792.631836	1183.600000
792.667908	1184.900000
792.703979	1165.600000
792.740051	1166.300000
792.776184	1178.000000
792.812256	1171.400000
792.848328	1183.900000
792.884399	1192.900000
792.920471	1182.400000
792.956543	1172.900000
792.992615	1172.200000
793.028748	1169.100000
793.064758	1175.700000
793.100830	1200.300000
793.136963	1216.900000
793.172974	1206.900000
793.209045	1194.600000
793.245178	1200.200000
793.281189	1186.600000
793.317261	1198.300000
793.353271	1205.300000
793.389404	1210.200000
793.425476	1202.300000
793.461487	1186.100000
793.497559	1183.000000
793.533630	1190.700000
793.569641	1190.600000
793.605713	1199.000000
793.641785	1192.400000
793.677795	1203.200000
793.713867	1189.500000
793.749878	1195.700000
793.785950	1203.700000
793.822021	1210.300000
793.858032	1194.500000
793.894104	1209.700000
793.930176	1195.300000
793.966187	1194.000000
794.002258	1184.200000
794.038269	1190.700000
794.074280	1188.000000
794.110352	1217.400000
794.146423	1184.400000
794.182373	1170.600000
794.218445	1167.100000
794.254517	1152.900000
794.290466	1131.200000
794.326538	1147.500000
794.362549	1155.000000
794.398560	1159.700000
794.434631	1159.900000
794.470581	1125.600000
794.506653	1118.500000
794.542664	1125.700000
794.578674	1122.600000
794.614685	1123.800000
794.650757	1115.800000
794.686707	1110.000000
794.722778	1100.100000
794.758789	1108.100000
794.794739	1117.100000
794.830811	1141.200000
794.866821	1159.000000
794.902771	1153.400000
794.938843	1138.900000
794.974792	1139.800000
795.010803	1128.500000
795.046814	1133.700000
795.082825	1122.700000
795.118835	1138.000000
795.154846	1112.100000
795.190796	1117.600000
795.226807	1095.200000
795.262817	1107.100000
795.298767	1108.000000
795.334778	1109.000000
795.370850	1095.600000
795.406799	1095.200000
795.442810	1069.900000
795.478821	1070.000000
795.514709	1073.900000
795.550720	1096.200000
795.586670	1078.800000
795.622681	1079.100000
795.658691	1078.700000
795.694641	1067.900000
795.730652	1050.500000
795.766663	1061.000000
795.802551	1067.200000
795.838562	1077.700000
795.874573	1064.100000
795.910522	1065.500000
795.946472	1057.400000
795.982483	1064.100000
796.018433	1064.700000
796.054382	1069.100000
796.090393	1061.800000
796.126282	1051.900000
796.162292	1037.300000
796.198242	1033.000000
796.234192	1035.000000
796.270203	1034.100000
796.306091	1039.900000
796.342041	1054.400000
796.378052	1041.100000
796.413940	1034.400000
796.449951	1047.700000
796.485901	1040.400000
796.521790	1043.200000
796.557800	1057.400000
796.593689	1052.500000
796.629639	1033.400000
796.665649	1035.700000
796.701599	1030.400000
796.737488	1029.800000
796.773437	1029.100000
796.809387	1035.900000
796.845337	1028.500000
796.881287	1016.800000
796.917175	994.800000
796.953125	999.300000
796.989075	1015.700000
797.024963	1020.100000
797.060913	1018.500000
797.096863	1020.500000
797.132751	1012.800000
797.168701	986.800000
797.204590	998.600000
797.240540	999.800000
797.276489	1007.300000
797.312439	1013.200000
797.348328	1000.800000
797.384277	987.300000
797.420166	986.000000
797.456055	985.600000
797.492004	981.400000
797.527893	992.600000
797.563843	998.400000
797.599731	985.300000
797.635620	962.900000
797.671570	973.200000
797.707520	974.500000
797.743347	973.900000
797.779297	988.000000
797.815125	979.800000
797.851074	966.900000
797.887024	961.300000
797.922913	950.800000
797.958801	964.800000
797.994690	963.400000
798.030579	966.000000
798.066467	969.200000
798.102356	951.900000
798.138245	945.800000
798.174133	948.000000
798.210083	953.800000
798.245911	957.100000
798.281799	964.500000
798.317749	956.300000
798.353577	950.000000
798.389465	943.900000
798.425293	944.300000
798.461243	935.900000
798.497131	938.400000
798.532959	945.600000
798.568848	946.500000
798.604736	933.400000
798.640564	918.700000
798.676453	918.700000
798.712402	924.300000
798.748230	937.000000
798.784119	930.100000
798.820007	931.100000
798.855835	924.500000
798.891724	917.000000
798.927551	920.700000
798.963379	924.000000
798.999268	921.200000
799.035095	915.100000
799.070984	909.400000
799.106873	894.500000
799.142700	907.700000
799.178528	908.500000
799.214417	901.900000
799.250244	917.300000
799.286133	900.700000
799.321960	898.000000
799.357788	891.600000
799.393677	893.000000
799.429504	894.200000
799.465332	900.000000
799.501221	904.300000
799.537048	900.000000
799.572876	886.600000
799.608704	889.000000
799.644531	893.100000
799.680359	893.600000
799.716248	900.400000
799.752014	908.700000
799.787903	890.500000
799.823730	884.000000
799.859558	876.400000
799.895386	885.900000
799.931213	884.800000
799.967041	873.000000
800.002869	873.500000
800.038696	886.800000
800.074463	864.200000
800.110352	864.700000
800.146179	854.400000
800.181946	863.200000
800.217773	868.400000
800.253540	863.400000
800.289429	856.300000
800.325256	844.800000
800.361023	849.800000
800.396851	854.300000
800.432678	853.900000
800.468445	849.900000
800.504272	840.600000
800.540100	822.600000
800.575867	823.500000
800.611694	830.800000
800.647461	821.200000
800.683289	824.500000
800.719116	826.600000
800.754883	821.500000
800.790649	803.000000
800.826477	795.700000
800.862244	819.100000
800.898071	800.400000
800.933838	796.500000
800.969604	788.700000
801.005432	793.700000
801.041199	793.400000
801.076965	782.400000
801.112793	772.600000
801.148560	769.300000
801.184326	769.400000
801.220154	770.100000
801.255859	760.000000
801.291687	762.400000
801.327454	750.100000
801.363281	750.700000
801.398987	748.000000
801.434814	754.200000
801.470520	763.100000
801.506287	750.200000
801.542114	744.400000
801.577820	748.200000
801.613647	746.300000
801.649414	736.900000
801.685120	739.000000
801.720886	742.700000
801.756714	735.100000
801.792419	727.700000
801.828186	716.600000
801.863892	728.700000
801.899719	712.900000
801.935486	715.000000
801.971252	722.000000
802.006958	716.500000
802.042725	708.600000
802.078430	710.100000
802.114197	704.300000
802.149963	720.300000
802.185669	707.000000
802.221436	703.600000
802.257202	702.600000
802.292908	698.000000
802.328674	708.100000
802.364441	709.300000
802.400146	704.000000
802.435913	696.200000
802.471558	691.000000
802.507324	689.000000
802.543091	675.500000
802.578796	693.100000
802.614502	694.200000
802.650269	693.100000
802.685974	679.300000
802.721741	679.900000
802.757446	683.400000
802.793152	679.900000
802.828918	687.800000
802.864624	683.100000
802.900330	678.500000
802.936035	673.900000
802.971802	670.800000
803.007446	669.900000
803.043213	661.300000
803.078857	667.700000
803.114624	653.800000
803.150330	661.900000
803.185974	652.500000
803.221741	651.900000
803.257446	658.900000
803.293152	658.000000
803.328857	648.600000
803.364563	645.000000
803.400208	638.900000
803.435974	645.500000
803.471680	641.500000
803.507324	637.400000
803.543030	643.600000
803.578735	647.800000
803.614441	631.300000
803.650146	638.300000
803.685791	625.600000
803.721497	624.900000
803.757202	613.700000
803.792847	625.100000
803.828552	618.300000
803.864258	619.300000
803.899902	617.500000
803.935608	604.800000
803.971313	607.600000
804.006958	609.300000
804.042664	607.200000
804.078308	614.200000
804.113953	603.500000
804.149658	608.500000
804.185364	602.400000
804.221008	608.400000
804.256714	598.000000
804.292297	594.300000
804.328003	589.400000
804.363708	584.900000
804.399292	585.200000
804.434998	587.300000
804.470703	576.100000
804.506287	591.700000
804.541992	582.500000
804.577637	586.200000
804.613281	568.500000
804.648926	572.400000
804.684570	575.100000
804.720215	570.000000
804.755920	573.000000
804.791565	569.300000
804.827209	571.500000
804.862854	565.200000
804.898437	560.300000
804.934143	562.600000
804.969788	560.900000
805.005371	559.800000
805.041077	558.600000
805.076721	563.000000
805.112305	552.800000
805.147949	552.900000
805.183655	547.200000
805.219238	552.900000
805.254883	554.800000
805.290466	557.000000
805.326111	549.100000
805.361755	541.500000
805.397400	547.100000
805.432983	548.300000
805.468628	547.800000
805.504211	551.200000
805.539856	548.800000
805.575500	551.900000
805.611084	543.600000
805.646729	529.000000
805.682373	535.800000
805.717957	548.100000
805.753601	546.700000
805.789246	529.500000
805.824768	542.000000
805.860413	543.300000
805.895996	530.000000
805.931641	528.300000
805.967224	537.400000
806.002869	529.900000
806.038452	537.700000
806.074036	534.500000
806.109619	520.400000
806.145264	518.900000
806.180847	518.400000
806.216431	514.700000
806.252014	522.100000
806.287659	518.900000
806.323181	528.900000
806.358826	522.400000
806.394409	503.500000
806.429993	503.500000
806.465576	520.000000
806.501160	503.700000
806.536743	496.800000
806.572327	506.700000
806.607910	501.400000
806.643494	502.400000
806.679077	499.700000
806.714661	496.600000
806.750244	498.200000
806.785828	489.400000
806.821350	489.700000
806.856934	495.900000
806.892517	494.400000
806.928101	484.100000
806.963684	483.000000
806.999268	494.600000
807.034790	476.300000
807.070374	482.200000
807.105896	477.400000
807.141479	475.600000
807.177063	480.100000
807.212585	471.800000
807.248169	471.000000
807.283752	478.000000
807.319275	469.700000
807.354858	469.800000
807.390381	465.900000
807.425903	466.700000
807.461487	461.300000
807.497070	456.600000
807.532593	459.700000
807.568115	459.600000
807.603699	452.400000
807.639221	448.700000
807.674744	451.200000
807.710266	458.100000
807.745850	460.600000
807.781372	447.900000
807.816895	446.200000
807.852417	454.400000
807.888000	447.900000
807.923523	444.500000
807.959045	445.500000
807.994629	436.300000
808.030090	435.400000
808.065613	438.000000
808.101135	441.400000
808.136658	437.600000
808.172241	434.800000
808.207764	435.100000
808.243225	427.400000
808.278809	427.100000
808.314270	431.600000
808.349792	421.000000
808.385315	420.200000
808.420837	427.300000
808.456360	430.900000
808.491882	427.500000
808.527344	422.400000
808.562866	431.900000
808.598389	422.900000
808.633850	416.500000
808.669434	413.400000
808.704895	421.700000
808.740417	425.600000
808.775940	420.100000
808.811462	411.000000
808.846924	404.600000
808.882385	401.000000
808.917847	399.600000
808.953369	405.100000
808.988892	398.600000
809.024353	409.200000
809.059875	404.200000
809.095398	400.900000
809.130798	397.100000
809.166321	393.700000
809.201843	394.600000
809.237305	397.500000
809.272766	401.100000
809.308228	388.200000
809.343750	390.500000
809.379211	390.600000
809.414734	390.100000
809.450134	397.600000
809.485657	377.800000
809.521118	387.000000
809.556580	383.000000
809.592102	383.300000
809.627502	377.500000
809.663025	378.300000
809.698486	370.100000
809.733887	370.100000
809.769409	372.200000
809.804871	362.300000
809.840271	365.100000
809.875793	370.900000
809.911194	372.900000
809.946655	366.500000
809.982178	360.200000
810.017639	367.100000
810.053040	362.300000
810.088501	361.700000
810.123901	359.500000
810.159424	354.800000
810.194885	349.300000
810.230286	356.800000
810.265747	349.600000
810.301208	348.100000
810.336609	351.600000
810.372070	345.000000
810.407532	347.800000
810.442932	349.200000
810.478394	353.000000
810.513794	347.400000
810.549255	344.700000
810.584717	341.200000
810.620117	340.600000
810.655518	346.200000
810.690979	342.200000
810.726379	342.800000
810.761841	331.400000
810.797302	334.600000
810.832642	334.600000
810.868103	344.100000
810.903564	330.900000
810.938904	340.200000
810.974365	327.600000
811.009827	329.000000
811.045166	327.800000
811.080627	319.400000
811.115967	328.000000
811.151428	334.700000
811.186829	326.000000
811.222229	327.000000
811.257629	319.100000
811.293091	325.900000
811.328430	331.800000
811.363892	326.200000
811.399292	327.600000
811.434631	319.700000
811.470093	325.200000
811.505493	317.500000
811.540833	319.300000
811.576294	325.200000
811.611694	320.300000
811.647034	313.300000
811.682434	315.500000
811.717773	315.700000
811.753235	322.900000
811.788635	312.700000
811.823975	316.300000
811.859375	323.500000
811.894775	309.100000
811.930115	310.900000
811.965515	311.400000
812.000916	314.800000
812.036255	310.300000
812.071655	313.300000
812.106995	306.900000
812.142395	307.700000
812.177795	314.600000
812.213196	311.200000
812.248474	312.600000
812.283875	304.000000
812.319214	306.800000
812.354614	306.400000
812.390015	304.000000
812.425293	304.500000
812.460693	303.400000
812.496094	301.500000
812.531433	295.700000
812.566772	296.400000
812.602173	297.000000
812.637451	301.000000
812.672852	294.300000
812.708191	299.200000
812.743530	293.500000
812.778931	286.400000
812.814270	289.500000
812.849609	298.200000
812.884949	291.100000
812.920227	286.000000
812.955627	301.400000
812.990967	291.700000
813.026306	286.600000
813.061646	278.900000
813.096985	274.200000
813.132324	272.800000
813.167664	277.500000
813.203003	283.800000
813.238281	269.800000
813.273682	271.400000
813.308960	267.200000
813.344299	272.100000
813.379639	280.000000
813.414978	271.800000
813.450256	270.700000
813.485596	275.800000
813.520874	266.100000
813.556213	272.800000
813.591614	274.200000
813.626831	265.800000
813.662170	270.100000
813.697510	282.000000
813.732788	263.200000
813.768127	270.500000
813.803467	271.100000
813.838745	265.400000
813.874084	269.400000
813.909363	267.600000
813.944641	270.800000
813.979980	259.300000
814.015320	264.400000
814.050598	259.700000
814.085876	265.900000
814.121155	262.800000
814.156494	260.700000
814.191772	263.400000
814.227051	259.200000
814.262390	260.000000
814.297668	261.000000
814.332947	261.700000
814.368225	253.400000
814.403564	258.700000
814.438782	255.000000
814.474121	256.700000
814.509338	255.200000
814.544617	263.900000
814.579956	253.500000
814.615173	263.400000
814.650513	259.200000
814.685791	251.400000
814.721008	254.700000
814.756348	253.400000
814.791626	251.100000
814.826843	248.600000
814.862122	251.100000
814.897400	246.900000
814.932678	251.700000
814.967957	249.900000
815.003235	247.500000
815.038452	243.600000
815.073730	242.300000
815.108948	252.300000
815.144226	249.300000
815.179504	253.000000
815.214722	236.700000
815.250000	236.600000
815.285278	244.500000
815.320496	238.500000
815.355774	241.700000
815.391052	243.000000
815.426270	241.100000
815.461487	238.500000
815.496765	235.900000
815.531982	230.100000
815.567261	237.400000
815.602539	247.100000
815.637695	238.800000
815.672974	242.100000
815.708191	241.900000
815.743408	242.800000
815.778687	234.200000
815.813904	246.400000
815.849121	227.600000
815.884399	230.000000
815.919556	230.200000
815.954834	230.100000
815.990051	235.500000
816.025269	238.800000
816.060486	227.600000
816.095703	228.800000
816.130920	232.600000
816.166199	228.100000
816.201416	232.100000
816.236572	238.200000
816.271851	227.900000
816.307007	236.900000
816.342224	223.000000
816.377441	229.600000
816.412659	219.700000
816.447876	231.600000
816.483093	225.900000
816.518250	227.200000
816.553467	224.000000
816.588745	230.600000
816.623901	222.400000
816.659119	216.300000
816.694275	220.700000
816.729492	220.000000
816.764709	255.900000
816.799927	216.900000
816.835083	222.700000
816.870300	215.700000
816.905457	218.900000
816.940674	223.400000
816.975830	217.900000
817.010986	215.300000
817.046204	216.300000
817.081421	214.100000
817.116577	212.900000
817.151733	222.600000
817.186951	223.300000
817.222107	217.800000
817.257324	221.700000
817.292419	219.200000
817.327637	209.700000
817.362854	215.200000
817.398010	210.900000
817.433167	213.200000
817.468323	214.100000
817.503479	214.600000
817.538635	221.600000
817.573853	217.400000
817.608948	215.100000
817.644165	209.800000
817.679321	210.200000
817.714478	211.000000
817.749634	214.900000
817.784790	225.900000
817.819946	220.000000
817.855103	202.300000
817.890198	213.100000
817.925415	203.700000
817.960571	212.600000
817.995667	211.200000
818.030823	213.500000
818.066040	206.500000
818.101135	210.200000
818.136292	208.400000
818.171448	203.000000
818.206543	207.000000
818.241699	211.500000
818.276855	207.700000
818.311951	209.100000
818.347107	203.300000
818.382263	210.200000
818.417358	213.200000
818.452515	215.400000
818.487610	215.500000
818.522766	205.200000
818.557922	215.400000
818.593018	211.100000
818.628113	206.800000
818.663269	202.600000
818.698364	207.300000
818.733521	204.300000
818.768677	209.800000
818.803711	200.700000
818.838867	203.100000
818.874023	205.700000
818.909058	201.900000
818.944214	200.100000
818.979370	210.200000
819.014404	205.600000
819.049561	202.100000
819.084595	206.600000
819.119751	199.300000
819.154846	207.500000
819.189941	204.200000
819.225037	198.400000
819.260193	196.100000
819.295227	196.800000
819.330322	194.300000
819.365479	193.400000
819.400513	227.100000
819.435608	190.700000
819.470764	191.500000
819.505798	193.200000
819.540894	197.000000
819.575989	193.600000
819.611084	203.800000
819.646179	204.500000
819.681213	202.500000
819.716309	195.900000
819.751404	198.500000
819.786438	202.000000
819.821533	195.600000
819.856628	198.900000
819.891663	202.800000
819.926758	207.400000
819.961853	204.800000
819.996887	193.000000
820.031982	200.300000
820.067017	195.300000
820.102112	224.500000
820.137207	194.000000
820.172302	212.500000
820.207275	193.300000
820.242371	195.100000
820.277405	192.200000
820.312500	197.100000
820.347534	199.000000
820.382568	201.000000
820.417664	193.400000
820.452759	194.200000
820.487732	191.800000
820.522827	195.700000
820.557861	191.100000
820.592896	193.900000
820.627930	195.800000
820.662964	192.900000
820.698059	196.400000
820.733093	193.000000
820.768127	198.600000
820.803162	193.200000
820.838196	192.800000
820.873230	195.200000
820.908264	196.000000
820.943298	191.800000
820.978333	201.200000
821.013367	195.400000
821.048401	199.700000
821.083435	199.800000
821.118469	187.300000
821.153503	201.200000
821.188477	197.700000
821.223511	187.300000
821.258484	195.200000
821.293579	195.500000
821.328613	188.200000
821.363647	193.200000
821.398621	189.700000
821.433655	191.200000
821.468628	207.400000
821.503662	191.400000
821.538696	198.400000
821.573669	188.500000
821.608704	197.500000
821.643677	191.000000
821.678650	198.500000
821.713684	203.300000
821.748718	192.000000
821.783691	193.300000
821.818726	195.600000
821.853638	194.500000
821.888672	192.100000
821.923706	193.100000
821.958618	191.300000
821.993652	190.000000
822.028687	199.000000
822.063599	199.900000
822.098633	194.600000
822.133667	189.800000
822.168579	192.300000
822.203613	195.400000
822.238586	189.300000
822.273560	194.800000
822.308533	190.600000
822.343567	190.100000
822.378479	191.900000
822.413452	191.100000
822.448425	189.100000
822.483398	198.100000
822.518372	198.500000
822.553345	190.900000
822.588318	201.100000
822.623291	193.200000
822.658203	190.900000
822.693237	192.700000
822.728210	188.700000
822.763123	195.000000
822.798096	188.200000
822.833069	194.300000
822.867981	192.800000
822.902954	195.100000
822.937927	195.700000
822.972900	204.900000
823.007874	185.800000
823.042725	197.100000
823.077698	204.200000
823.112671	189.500000
823.147583	191.500000
823.182556	195.400000
823.217529	196.800000
823.252441	190.800000
823.287415	206.400000
823.322388	196.100000
823.357239	192.100000
823.392212	200.800000
823.427185	196.500000
823.462097	188.700000
823.497009	195.800000
823.531982	192.000000
823.566895	192.200000
823.601807	189.600000
823.636719	189.800000
823.671631	197.300000
823.706604	192.000000
823.741455	195.900000
823.776428	187.600000
823.811340	197.600000
823.846252	200.000000
823.881165	200.700000
823.916138	193.300000
823.950989	202.500000
823.985901	190.200000
824.020813	194.600000
824.055725	190.300000
824.090637	189.000000
824.125610	195.400000
824.160461	193.700000
824.195374	195.000000
824.230225	197.500000
824.265198	185.800000
824.300110	190.300000
824.334961	203.600000
824.369873	183.700000
824.404785	195.100000
824.439636	199.900000
824.474548	184.600000
824.509460	182.700000
824.544312	198.300000
824.579224	195.400000
824.614075	197.100000
824.648987	192.200000
824.683899	192.800000
824.718811	188.200000
824.753662	199.900000
824.788574	197.800000
824.823364	194.800000
824.858276	189.100000
824.893188	198.100000
824.928040	197.200000
824.962952	195.900000
824.997803	197.100000
825.032654	193.400000
825.067566	196.700000
825.102417	190.900000
825.137268	190.600000
825.172119	193.500000
825.206970	189.300000
825.241882	190.600000
825.276733	189.200000
825.311646	190.000000
825.346436	187.100000
825.381348	187.700000
825.416138	193.600000
825.450989	189.000000
825.485901	183.700000
825.520691	185.000000
825.555542	186.300000
825.590454	193.500000
825.625244	184.900000
825.660095	198.800000
825.695007	196.400000
825.729797	191.400000
825.764648	188.300000
825.799438	191.000000
825.834290	192.100000
825.869202	184.800000
825.903992	194.800000
825.938843	188.900000
825.973694	188.800000
826.008484	205.400000
826.043335	188.000000
826.078186	183.000000
826.112976	199.000000
826.147827	196.600000
826.182678	202.600000
826.217468	184.000000
826.252319	199.400000
826.287109	188.100000
826.321899	199.900000
826.356750	190.300000
826.391541	188.500000
826.426392	197.200000
826.461182	191.800000
826.495972	187.100000
826.530823	182.700000
826.565613	191.500000
826.600403	187.300000
826.635254	194.100000
826.670044	184.200000
826.704834	184.200000
826.739685	188.400000
826.774475	192.800000
826.809265	190.500000
826.844055	187.500000
826.878906	198.500000
826.913635	192.400000
826.948425	195.600000
826.983215	193.600000
827.018005	197.300000
827.052856	190.300000
827.087585	195.600000
827.122375	184.800000
827.157227	191.600000
827.191956	202.900000
827.226746	186.100000
827.261536	195.100000
827.296265	185.200000
827.331116	187.600000
827.365906	195.200000
827.400635	188.400000
827.435425	182.900000
827.470215	198.500000
827.504944	190.800000
827.539734	195.800000
827.574463	190.500000
827.609253	199.100000
827.644043	192.400000
827.678772	196.700000
827.713562	188.700000
827.748352	190.200000
827.783081	189.100000
827.817871	191.400000
827.852600	187.800000
827.887329	194.600000
827.922119	181.700000
827.956848	196.100000
827.991638	205.000000
828.026367	194.800000
828.061157	192.100000
828.095886	192.100000
828.130615	205.800000
828.165344	182.300000
828.200073	191.800000
828.234863	191.100000
828.269592	191.200000
828.304321	197.900000
828.339111	191.800000
828.373779	188.700000
828.408569	197.000000
828.443298	196.400000
828.477966	189.000000
828.512756	192.200000
828.547424	186.900000
828.582214	189.200000
828.616943	189.500000
828.651672	190.500000
828.686340	195.300000
828.721130	189.100000
828.755798	190.900000
828.790527	192.800000
828.825256	191.800000
828.859924	192.700000
828.894714	198.400000
828.929443	199.600000
828.964111	187.300000
828.998840	189.700000
829.033569	189.600000
829.068237	190.100000
829.102966	189.700000
829.137634	193.500000
829.172363	193.000000
829.207092	193.600000
829.241821	188.600000
829.276489	184.100000
829.311157	191.700000
829.345825	189.200000
829.380554	195.600000
829.415283	187.800000
829.449951	185.700000
829.484619	200.500000
829.519348	200.200000
829.554016	192.700000
829.588745	191.200000
829.623413	185.300000
829.658081	204.900000
829.692749	185.700000
829.727417	196.900000
829.762146	193.100000
829.796814	188.500000
829.831482	187.900000
829.866150	193.700000
829.900879	187.900000
829.935486	195.300000
829.970154	189.100000
830.004883	202.200000
830.039490	191.300000
830.074219	188.700000
830.108887	191.600000
830.143494	190.600000
830.178223	185.000000
830.212891	190.900000
830.247498	190.300000
830.282166	199.600000
830.316772	197.100000
830.351501	189.300000
830.386169	190.200000
830.420776	188.600000
830.455444	190.000000
830.490112	188.300000
830.524719	182.300000
830.559387	194.600000
830.594055	193.900000
830.628662	190.200000
830.663330	189.800000
830.697998	198.700000
830.732605	189.800000
830.767273	193.400000
830.801941	190.800000
830.836487	200.400000
830.871155	193.900000
830.905762	192.500000
830.940430	184.500000
830.975098	189.000000
831.009644	192.100000
831.044312	199.100000
831.078979	193.400000
831.113525	183.300000
831.148193	192.400000
831.182861	190.600000
831.217407	195.900000
831.252075	208.400000
831.286621	189.400000
831.321289	185.100000
831.355896	192.000000
831.390564	198.400000
831.425110	191.800000
831.459778	198.200000
831.494324	205.900000
831.528931	193.700000
831.563599	195.200000
831.598145	185.200000
831.632751	189.600000
831.667419	189.000000
831.701965	195.300000
831.736572	193.800000
831.771179	185.100000
831.805786	188.200000
831.840393	197.800000
831.874939	183.000000
831.909546	196.200000
831.944153	182.800000
831.978760	191.100000
832.013306	186.100000
832.047913	198.200000
832.082458	199.900000
832.117065	187.300000
832.151672	200.600000
832.186218	191.400000
832.220825	194.200000
832.255432	182.300000
832.289978	186.500000
832.324585	193.300000
832.359192	194.600000
832.393677	188.800000
832.428284	193.100000
832.462830	190.900000
832.497437	189.900000
832.531982	194.900000
832.566589	190.700000
832.601135	192.300000
832.635681	184.000000
832.670227	191.400000
832.704773	199.600000
832.739380	193.600000
832.773926	192.900000
832.808472	187.200000
832.843079	192.100000
832.877563	195.200000
832.912170	189.700000
832.946716	182.900000
832.981201	198.100000
833.015808	193.400000
833.050293	190.600000
833.084839	186.000000
833.119446	190.400000
833.153992	194.800000
833.188477	190.600000
833.223022	186.400000
833.257568	192.600000
833.292114	197.200000
833.326660	203.400000
833.361145	186.200000
833.395691	183.900000
833.430237	189.100000
833.464783	195.000000
833.499329	187.800000
833.533875	186.400000
833.568359	193.900000
833.602905	196.600000
833.637390	196.900000
833.671875	188.400000
833.706421	190.100000
833.740906	187.900000
833.775452	179.600000
833.809998	188.300000
833.844482	198.600000
833.879028	189.800000
833.913513	189.800000
833.947998	194.700000
833.982544	188.300000
834.017090	189.200000
834.051514	180.500000
834.086060	193.500000
834.120544	191.400000
834.155029	193.500000
834.189575	190.900000
834.223999	194.300000
834.258545	192.800000
834.293030	191.400000
834.327515	193.000000
834.362000	187.800000
834.396545	195.900000
834.430969	189.500000
834.465454	196.200000
834.500000	184.400000
834.534424	193.600000
834.568970	181.300000
834.603455	183.800000
834.637878	188.200000
834.672363	192.900000
834.706909	191.800000
834.741333	193.500000
834.775818	183.000000
834.810242	186.600000
834.844727	191.700000
834.879211	190.400000
834.913635	191.500000
834.948181	192.300000
834.982666	191.200000
835.017090	189.100000
835.051575	193.100000
835.086060	188.300000
835.120483	193.500000
835.154907	195.700000
835.189331	189.200000
835.223816	193.300000
835.258301	187.000000
835.292786	187.600000
835.327209	195.300000
835.361694	188.400000
835.396057	187.800000
835.430542	194.000000
835.465027	191.300000
835.499390	186.700000
835.533875	211.200000
835.568359	190.800000
835.602722	183.400000
835.637207	193.000000
835.671692	186.300000
835.706055	208.300000
835.740540	194.100000
835.774902	194.100000
835.809387	192.300000
835.843811	185.000000
835.878235	200.600000
835.912659	185.700000
835.947083	188.300000
835.981506	192.100000
836.015930	184.600000
836.050354	196.200000
836.084778	201.600000
836.119202	196.600000
836.153625	204.100000
836.187988	186.400000
836.222473	189.100000
836.256897	193.800000
836.291260	191.700000
836.325684	192.800000
836.360046	189.700000
836.394470	189.100000
836.428894	198.800000
836.463318	187.500000
836.497681	197.400000
836.532104	198.100000
836.566467	193.400000
836.600891	188.700000
836.635315	197.800000
836.669678	194.200000
836.704102	196.700000
836.738525	191.100000
836.772888	183.200000
836.807251	188.600000
836.841675	193.900000
836.876038	185.000000
836.910461	185.700000
836.944763	193.500000
836.979187	186.900000
837.013611	196.200000
837.047974	185.500000
837.082336	202.700000
837.116699	193.000000
837.151062	190.800000
837.185486	184.700000
837.219849	190.000000
837.254211	194.800000
837.288574	190.100000
837.322937	186.500000
837.357300	177.500000
837.391663	203.400000
837.426086	196.700000
837.460388	192.600000
837.494751	196.800000
837.529114	188.900000
837.563477	196.000000
837.597839	193.800000
837.632141	191.900000
837.666565	187.400000
837.700928	194.800000
837.735229	195.100000
837.769592	194.600000
837.803955	196.400000
837.838257	189.900000
837.872620	189.000000
837.906982	198.900000
837.941284	191.500000
837.975647	190.800000
838.010010	198.400000
838.044312	190.000000
838.078674	188.300000
838.112976	193.100000
838.147339	194.800000
838.181702	190.800000
838.216003	201.300000
838.250366	193.000000
838.284668	193.500000
838.318970	183.400000
838.353333	189.300000
838.387634	190.300000
838.421936	191.500000
838.456299	193.400000
838.490601	197.800000
838.524902	195.600000
838.559265	195.200000
838.593567	197.200000
838.627869	186.000000
838.662170	194.900000
838.696472	184.600000
838.730774	187.600000
838.765137	196.800000
838.799377	177.300000
838.833740	193.200000
838.868042	197.900000
838.902283	182.200000
838.936646	198.000000
838.970947	194.200000
839.005188	196.700000
839.039551	184.900000
839.073792	200.600000
839.108093	188.700000
839.142395	201.300000
839.176697	185.000000
839.210937	192.300000
839.245300	202.700000
839.279541	186.400000
839.313843	189.600000
839.348145	194.900000
839.382385	198.100000
839.416687	196.600000
839.450989	194.800000
839.485229	190.100000
839.519531	187.500000
839.553833	197.200000
839.588013	192.500000
839.622314	192.200000
839.656555	195.800000
839.690857	191.500000
839.725159	186.000000
839.759460	189.600000
839.793640	189.700000
839.827942	189.900000
839.862183	186.200000
839.896423	192.900000
839.930725	200.800000
839.964966	197.800000
839.999207	199.900000
840.033508	196.900000
840.067688	189.500000
840.101990	200.700000
840.136230	192.300000
840.170471	199.400000
840.204712	187.600000
840.238953	187.400000
840.273193	193.900000
840.307434	196.000000
840.341736	187.500000
840.375916	185.700000
840.410217	190.600000
840.444397	195.600000
840.478638	194.900000
840.512878	198.200000
840.547119	193.300000
840.581360	195.000000
840.615601	202.000000
840.649780	201.100000
840.684021	191.900000
840.718262	200.400000
840.752441	197.700000
840.786682	193.100000
840.820862	194.100000
840.855103	200.000000
840.889343	193.800000
840.923584	198.100000
840.957764	194.400000
840.992004	194.500000
841.026184	206.800000
841.060425	191.700000
841.094666	189.100000
841.128845	197.000000
841.163025	193.200000
841.197266	195.500000
841.231445	193.000000
841.265686	193.800000
841.299866	187.700000
841.334045	200.900000
841.368286	191.300000
841.402405	200.500000
841.436646	195.700000
841.470825	190.200000
841.505005	189.500000
841.539185	187.000000
841.573425	188.500000
841.607544	191.800000
841.641785	192.400000
841.675964	188.100000
841.710144	192.200000
841.744324	189.700000
841.778503	191.200000
841.812683	186.500000
841.846863	200.500000
841.881042	198.300000
841.915222	189.500000
841.949402	207.600000
841.983521	182.900000
842.017700	192.300000
842.051880	194.300000
842.086060	193.800000
842.120239	194.600000
842.154419	189.900000
842.188538	192.100000
842.222717	189.000000
842.256897	203.100000
842.291016	191.600000
842.325195	195.500000
842.359375	203.000000
842.393494	200.100000
842.427673	192.500000
842.461853	197.200000
842.495911	201.400000
842.530090	195.200000
842.564209	190.900000
842.598389	195.100000
842.632568	192.600000
842.666626	197.700000
842.700806	188.800000
842.734985	190.500000
842.769043	197.000000
842.803223	191.200000
842.837402	192.800000
842.871460	189.500000
842.905640	200.000000
842.939697	189.800000
842.973877	194.500000
843.007996	199.500000
843.042175	200.500000
843.076233	190.100000
843.110413	194.300000
843.144470	202.500000
843.178589	195.700000
843.212769	189.700000
843.246826	196.900000
843.280945	191.000000
843.315125	188.200000
843.349182	189.500000
843.383301	198.700000
843.417419	204.800000
843.451538	191.700000
843.485657	191.200000
843.519714	190.500000
843.553833	194.900000
843.587952	189.300000
843.622070	187.800000
843.656128	195.700000
843.690247	191.400000
843.724304	190.000000
843.758423	192.800000
843.792542	190.300000
843.826599	192.100000
843.860718	190.700000
843.894836	185.300000
843.928894	194.200000
843.963013	195.200000
843.997070	190.700000
844.031128	186.200000
844.065247	199.300000
844.099304	196.400000
844.133362	193.500000
844.167480	196.800000
844.201599	200.500000
844.235596	193.700000
844.269714	194.400000
844.303711	195.600000
844.337830	186.400000
844.371948	196.300000
844.405945	192.800000
844.440063	187.700000
844.474121	207.700000
844.508118	191.500000
844.542236	192.300000
844.576294	192.500000
844.610352	187.200000
844.644409	192.900000
844.678406	184.000000
844.712524	196.800000
844.746582	199.300000
844.780640	191.900000
844.814636	192.600000
844.848755	204.400000
844.882751	191.800000
844.916809	198.200000
844.950867	193.300000
844.984863	201.000000
845.018921	191.400000
845.052979	189.000000
845.086975	192.300000
845.121033	185.200000
845.155090	188.500000
845.189087	199.700000
845.223145	189.900000
845.257141	193.000000
845.291199	195.900000
845.325256	200.700000
845.359253	193.200000
845.393250	202.400000
845.427307	191.300000
845.461304	194.800000
845.495361	193.700000
845.529358	204.700000
845.563354	190.800000
845.597412	188.800000
845.631409	201.200000
845.665405	201.100000
845.699463	198.600000
845.733459	192.000000
845.767456	199.600000
845.801453	193.100000
845.835449	200.100000
845.869446	199.100000
845.903503	197.800000
845.937439	191.300000
845.971497	198.900000
846.005493	188.100000
846.039429	197.600000
846.073486	204.000000
846.107483	191.200000
846.141418	194.500000
846.175476	192.600000
846.209473	200.100000
846.243408	188.600000
846.277405	195.800000
846.311401	187.300000
846.345337	193.200000
846.379395	199.200000
846.413330	191.000000
846.447327	200.400000
846.481323	187.100000
846.515259	188.700000
846.549255	193.200000
846.583252	195.000000
846.617187	188.300000
846.651184	194.600000
846.685120	192.200000
846.719055	200.400000
846.753052	197.600000
846.786987	196.400000
846.820984	186.200000
846.854980	199.500000
846.888916	189.000000
846.922852	195.600000
846.956848	201.700000
846.990723	188.100000
847.024719	194.100000
847.058716	193.300000
847.092590	201.100000
847.126587	195.000000
847.160522	191.900000
847.194458	197.400000
847.228455	188.700000
847.262390	188.300000
847.296265	190.200000
847.330261	199.800000
847.364136	192.700000
847.398132	189.400000
847.432068	193.000000
847.466003	193.400000
847.499939	192.500000
847.533875	198.100000
847.567749	191.500000
847.601746	191.000000
847.635681	196.900000
847.669556	185.700000
847.703491	198.100000
847.737427	209.100000
847.771301	187.600000
847.805237	195.700000
847.839233	193.900000
847.873108	193.300000
847.907043	191.400000
847.940918	200.700000
847.974854	194.100000
848.008789	196.700000
848.042664	193.200000
848.076538	196.600000
848.110474	193.100000
848.144348	194.500000
848.178284	187.100000
848.212219	193.900000
848.246094	191.900000
848.279968	194.000000
848.313904	194.900000
848.347778	193.400000
848.381653	191.200000
848.415588	189.100000
848.449463	189.200000
848.483337	196.600000
848.517212	197.600000
848.551086	192.100000
848.585022	188.300000
848.618835	201.200000
848.652771	189.800000
848.686646	189.100000
848.720520	201.600000
848.754395	191.100000
848.788330	198.100000
848.822144	197.600000
848.856018	191.300000
848.889954	203.100000
848.923767	188.100000
848.957642	190.000000
848.991577	197.300000
849.025391	191.500000
849.059265	192.400000
849.093079	188.600000
849.126953	188.100000
849.160828	199.600000
849.194641	196.100000
849.228577	191.500000
849.262451	193.400000
849.296265	191.100000
849.330139	189.200000
849.364014	193.400000
849.397827	194.900000
849.431702	192.200000
849.465515	198.600000
849.499329	184.500000
849.533203	189.400000
849.567078	182.300000
849.600891	196.900000
849.634766	191.100000
849.668518	197.800000
849.702393	192.700000
849.736267	187.900000
849.770020	204.500000
849.803894	196.500000
849.837769	192.100000
849.871521	192.900000
849.905396	198.100000
849.939270	188.500000
849.973022	190.700000
850.006897	196.800000
850.040710	195.300000
850.074524	196.200000
850.108337	191.200000
850.142151	196.600000
850.175964	199.400000
850.209778	193.300000
850.243530	180.400000
850.277405	197.700000
850.311218	193.100000
850.344971	190.600000
850.378845	201.800000
850.412659	189.600000
850.446411	193.100000
850.480225	192.700000
850.514038	198.900000
850.547791	197.400000
850.581665	193.800000
850.615417	191.000000
850.649231	193.800000
850.683044	192.600000
850.716858	192.800000
850.750610	192.600000
850.784424	198.000000
850.818176	190.700000
850.851929	191.800000
850.885742	190.800000
850.919495	193.100000
850.953308	200.200000
850.987122	201.300000
851.020874	188.000000
851.054626	186.100000
851.088440	197.300000
851.122192	198.000000
851.156006	193.500000
851.189697	194.400000
851.223511	187.900000
851.257263	198.200000
851.291077	196.500000
851.324829	191.900000
851.358582	188.500000
851.392334	192.400000
851.426086	190.600000
851.459900	201.100000
851.493591	193.100000
851.527344	194.100000
851.561157	192.900000
851.594849	195.700000
851.628662	195.500000
851.662415	201.000000
851.696106	195.300000
851.729858	197.200000
851.763611	186.400000
851.797363	194.600000
851.831116	188.700000
851.864868	195.900000
851.898560	198.200000
851.932312	190.700000
851.966064	194.700000
851.999817	194.000000
852.033569	193.400000
852.067261	198.000000
852.101013	189.800000
852.134766	193.500000
852.168457	183.700000
852.202209	197.600000
852.235901	190.000000
852.269592	196.300000
852.303345	203.000000
852.337036	195.700000
852.370789	193.800000
852.404541	199.200000
852.438171	190.000000
852.471924	192.000000
852.505676	188.100000
852.539307	195.900000
852.573059	189.700000
852.606812	191.200000
852.640442	192.600000
852.674194	198.800000
852.707886	205.100000
852.741577	199.600000
852.775269	187.900000
852.809021	193.100000
852.842651	195.700000
852.876404	198.400000
852.910034	196.100000
852.943787	198.800000
852.977478	195.300000
853.011108	189.900000
853.044861	192.400000
853.078552	200.600000
853.112183	196.000000
853.145874	194.800000
853.179626	183.900000
853.213257	195.400000
853.246948	190.900000
853.280640	201.100000
853.314270	192.900000
853.347961	199.300000
853.381653	196.000000
853.415283	198.100000
853.448975	190.000000
853.482605	193.500000
853.516296	192.000000
853.549988	188.000000
853.583618	193.300000
853.617310	194.900000
853.651001	194.900000
853.684631	187.900000
853.718323	188.700000
853.751953	203.200000
853.785583	184.200000
853.819275	198.200000
853.852966	194.200000
853.886536	185.600000
853.920227	188.400000
853.953918	199.500000
853.987488	190.700000
854.021179	197.700000
854.054749	200.500000
854.088440	196.200000
854.122131	189.700000
854.155701	197.900000
854.189331	190.300000
854.223022	197.100000
854.256592	194.700000
854.290283	190.100000
854.323914	195.900000
854.357483	195.600000
854.391174	196.800000
854.424744	204.400000
854.458374	195.600000
854.492065	204.400000
854.525696	191.100000
854.559265	199.800000
854.592896	203.600000
854.626465	194.100000
854.660095	194.500000
854.693787	195.400000
854.727356	192.100000
854.760986	197.100000
854.794617	193.300000
854.828186	192.400000
854.861816	196.200000
854.895447	193.800000
854.929016	193.900000
854.962585	195.700000
854.996155	201.000000
855.029785	195.400000
855.063416	195.900000
855.097046	199.200000
855.130615	186.500000
855.164185	199.900000
855.197754	192.700000
855.231384	197.300000
855.264954	192.600000
855.298523	197.000000
855.332153	195.000000
855.365723	203.000000
855.399292	188.900000
855.432922	192.700000
855.466492	196.100000
855.500061	189.600000
855.533630	191.800000
855.567200	196.500000
855.600769	199.000000
855.634338	198.100000
855.667969	196.400000
855.701477	190.000000
855.735046	191.700000
855.768616	185.200000
855.802185	196.300000
855.835754	209.100000
855.869324	186.600000
855.902893	193.100000
855.936401	200.000000
855.969971	195.200000
856.003540	186.900000
856.037109	197.300000
856.070618	193.800000
856.104187	188.200000
856.137695	191.800000
856.171265	183.500000
856.204834	193.400000
856.238403	199.600000
856.271912	191.900000
856.305481	194.500000
856.338989	188.600000
856.372559	195.300000
856.406128	194.800000
856.439636	196.800000
856.473145	192.200000
856.506653	199.900000
856.540222	194.800000
856.573792	201.000000
856.607300	197.000000
856.640808	186.800000
856.674377	194.100000
856.707825	222.400000
856.741394	197.300000
856.774902	190.000000
856.808472	182.800000
856.841980	196.500000
856.875488	203.100000
856.908936	185.800000
856.942505	192.400000
856.976013	192.900000
857.009521	189.600000
857.043030	194.400000
857.076477	194.500000
857.110046	198.400000
857.143555	194.800000
857.177063	199.700000
857.210571	191.900000
857.244080	188.700000
857.277527	196.800000
857.311035	192.700000
857.344543	196.900000
857.378052	193.600000
857.411499	199.100000
857.445068	206.000000
857.478516	194.900000
857.512024	189.800000
857.545532	192.900000
857.578979	196.700000
857.612427	194.200000
857.645874	190.800000
857.679382	195.300000
857.712891	198.600000
857.746399	193.000000
857.779846	199.100000
857.813354	198.100000
857.846741	193.700000
857.880249	189.800000
857.913757	194.800000
857.947266	194.100000
857.980652	197.100000
858.014160	189.800000
858.047546	192.100000
858.081055	191.500000
858.114563	201.500000
858.147949	186.800000
858.181458	196.500000
858.214844	191.900000
858.248352	185.100000
858.281799	198.600000
858.315308	206.700000
858.348694	195.600000
858.382141	201.400000
858.415588	196.500000
858.449036	199.900000
858.482483	196.000000
858.515930	190.200000
858.549377	194.900000
858.582825	200.600000
858.616211	195.700000
858.649658	195.500000
858.683105	189.800000
858.716553	190.500000
858.750000	188.300000
858.783386	191.600000
858.816833	185.500000
858.850281	195.500000
858.883728	197.700000
858.917114	193.300000
858.950562	201.700000
858.983948	202.300000
859.017395	198.700000
859.050781	191.800000
859.084167	189.700000
859.117615	187.900000
859.151062	197.600000
859.184448	190.100000
859.217834	192.600000
859.251282	191.900000
859.284668	188.700000
859.318054	183.700000
859.351440	191.600000
859.384888	201.400000
859.418274	186.200000
859.451721	184.800000
859.485046	195.500000
859.518494	194.100000
859.551819	190.700000
859.585266	197.200000
859.618652	197.200000
859.652039	186.100000
859.685425	189.500000
859.718811	185.400000
859.752197	181.600000
859.785583	201.300000
859.819031	201.100000
859.852356	196.000000
859.885742	190.200000
859.919067	191.500000
859.952454	191.800000
859.985901	199.300000
860.019287	190.200000
860.052612	0.000000
860.085999	0.000000
860.119324	0.000000
860.152710	0.000000
860.186096	0.000000
860.219421	0.000000
860.252808	0.000000
860.286133	0.000000
860.319519	0.000000
860.352905	0.000000
860.386292	0.000000
860.419617	0.000000
860.452942	0.000000
860.486267	0.000000
860.519653	0.000000
860.553040	0.000000
860.586365	0.000000
860.619690	0.000000
860.653076	0.000000
860.686340	0.000000
860.719727	0.000000
860.753113	0.000000
860.786377	0.000000
860.819763	0.000000
860.853027	0.000000
860.886414	0.000000
860.919739	0.000000
860.953125	0.000000
860.986389	0.000000
861.019714	0.000000
861.053040	0.000000
861.086365	0.000000
861.119690	0.000000
861.153076	0.000000
861.186340	0.000000
861.219666	0.000000
861.252930	0.000000
861.286316	0.000000
861.319641	0.000000
861.352905	0.000000
861.386230	0.000000
861.419495	0.000000
861.452820	0.000000
861.486145	0.000000
861.519470	0.000000
861.552734	0.000000
861.586060	0.000000
861.619324	0.000000
861.652649	0.000000
861.685974	0.000000
861.719238	0.000000
861.752563	0.000000
861.785828	0.000000
861.819092	0.000000
861.852417	0.000000
861.885742	0.000000
861.918945	0.000000
861.952271	0.000000
861.985535	0.000000
862.018799	0.000000
862.052124	0.000000
862.085449	0.000000
862.118652	0.000000
862.151978	0.000000
862.185181	0.000000
862.218506	0.000000
862.251770	0.000000
862.285034	0.000000
862.318298	0.000000
862.351562	0.000000
862.384827	0.000000
862.418091	0.000000
862.451355	0.000000
862.484619	0.000000
862.517883	0.000000
862.551086	0.000000
862.584351	0.000000
862.617676	0.000000
862.650940	0.000000
862.684143	0.000000
862.717407	0.000000
862.750610	0.000000
862.783875	0.000000
862.817139	0.000000
862.850342	0.000000
862.883606	0.000000
862.916870	0.000000
862.950073	0.000000
862.983337	0.000000
863.016602	0.000000
863.049805	0.000000
863.083069	0.000000
863.116211	0.000000
863.149475	0.000000
863.182739	0.000000
863.216003	0.000000
863.249146	0.000000
863.282410	0.000000
863.315613	0.000000
863.348816	0.000000
863.382080	0.000000
863.415222	0.000000
863.448486	0.000000
863.481689	0.000000
863.514893	0.000000
863.548157	0.000000
863.581360	0.000000
863.614502	0.000000
863.647766	0.000000
863.680908	0.000000
863.714172	0.000000
863.747375	0.000000
863.780579	0.000000
863.813721	0.000000
863.846985	0.000000
863.880127	0.000000
863.913330	0.000000
863.946533	0.000000
863.979675	0.000000
864.012939	0.000000
