Model Number: SPM-001-M   
Serial Number: 10090201
Firmware Version: 004.17.6
Exposure Time: 500000.000000us
Data Taken on: 10-03-2021 11:58:32.468
Wavelength	Amplitude
733.770752	0.000000
733.808716	0.000000
733.846619	0.000000
733.884583	0.000000
733.922546	0.000000
733.960449	0.000000
733.998413	0.000000
734.036377	0.000000
734.074219	0.000000
734.112183	0.000000
734.150085	0.000000
734.188049	0.000000
734.226013	0.000000
734.263916	0.000000
734.301819	0.000000
734.339783	0.000000
734.377686	0.000000
734.415588	0.000000
734.453552	0.000000
734.491455	0.000000
734.529419	0.000000
734.567322	0.000000
734.605225	0.000000
734.643127	0.000000
734.681091	0.000000
734.718994	0.000000
734.756897	0.000000
734.794800	0.000000
734.832703	0.000000
734.870667	0.000000
734.908508	0.000000
734.946472	0.000000
734.984375	0.000000
735.022278	0.000000
735.060181	0.000000
735.098083	0.000000
735.135986	0.000000
735.173889	0.000000
735.211792	0.000000
735.249695	0.000000
735.287598	0.000000
735.325439	0.000000
735.363403	0.000000
735.401306	0.000000
735.439148	0.000000
735.477051	0.000000
735.515015	0.000000
735.552856	0.000000
735.590759	0.000000
735.628662	0.000000
735.666504	0.000000
735.704407	0.000000
735.742310	0.000000
735.780212	0.000000
735.818115	0.000000
735.856018	0.000000
735.893860	0.000000
735.931763	0.000000
735.969604	0.000000
736.007507	0.000000
736.045410	0.000000
736.083252	0.000000
736.121094	0.000000
736.158997	0.000000
736.196838	0.000000
736.234741	0.000000
736.272644	0.000000
736.310486	0.000000
736.348389	0.000000
736.386230	0.000000
736.424072	0.000000
736.461975	0.000000
736.499878	0.000000
736.537720	0.000000
736.575562	0.000000
736.613403	0.000000
736.651306	0.000000
736.689148	0.000000
736.726990	0.000000
736.764893	0.000000
736.802734	0.000000
736.840576	0.000000
736.878418	0.000000
736.916321	0.000000
736.954102	0.000000
736.992004	0.000000
737.029846	0.000000
737.067688	0.000000
737.105530	0.000000
737.143372	0.000000
737.181213	0.000000
737.219116	0.000000
737.256897	0.000000
737.294739	0.000000
737.332642	0.000000
737.370422	0.000000
737.408325	0.000000
737.446167	0.000000
737.483948	0.000000
737.521790	0.000000
737.559692	0.000000
737.597473	0.000000
737.635315	0.000000
737.673157	0.000000
737.710999	0.000000
737.748840	0.000000
737.786621	0.000000
737.824463	0.000000
737.862305	0.000000
737.900085	0.000000
737.937927	0.000000
737.975769	0.000000
738.013550	0.000000
738.051392	0.000000
738.089233	0.000000
738.127014	0.000000
738.164856	0.000000
738.202698	0.000000
738.240479	0.000000
738.278320	0.000000
738.316162	0.000000
738.353943	0.000000
738.391785	0.000000
738.429565	0.000000
738.467407	0.000000
738.505188	0.000000
738.542969	0.000000
738.580811	0.000000
738.618652	0.000000
738.656372	0.000000
738.694214	0.000000
738.732056	0.000000
738.769836	0.000000
738.807617	0.000000
738.845459	0.000000
738.883240	0.000000
738.921021	0.000000
738.958862	0.000000
738.996582	0.000000
739.034424	0.000000
739.072205	0.000000
739.109985	0.000000
739.147827	0.000000
739.185547	0.000000
739.223389	0.000000
739.261169	0.000000
739.298889	0.000000
739.336731	0.000000
739.374512	0.000000
739.412292	0.000000
739.450073	0.000000
739.487854	0.000000
739.525635	0.000000
739.563416	0.000000
739.601135	0.000000
739.638977	0.000000
739.676758	0.000000
739.714478	0.000000
739.752258	0.000000
739.790100	0.000000
739.827820	0.000000
739.865601	0.000000
739.903381	0.000000
739.941101	0.000000
739.978882	197.100000
740.016724	191.200000
740.054443	198.800000
740.092224	190.900000
740.130005	190.000000
740.167725	189.700000
740.205505	190.400000
740.243225	199.000000
740.281006	192.900000
740.318787	185.000000
740.356506	197.600000
740.394287	196.900000
740.432068	188.000000
740.469727	186.800000
740.507507	197.300000
740.545288	191.600000
740.583008	194.900000
740.620789	193.500000
740.658569	183.500000
740.696228	191.800000
740.734009	197.200000
740.771790	179.600000
740.809509	198.400000
740.847229	189.000000
740.884949	189.600000
740.922729	186.300000
740.960449	191.100000
740.998169	188.500000
741.035950	187.900000
741.073669	196.500000
741.111389	193.600000
741.149170	203.900000
741.186890	203.800000
741.224609	197.500000
741.262329	192.500000
741.300110	204.000000
741.337769	188.600000
741.375549	187.900000
741.413208	194.600000
741.450989	189.600000
741.488708	190.900000
741.526367	192.200000
741.564148	197.400000
741.601868	199.100000
741.639526	192.300000
741.677307	195.200000
741.715027	194.600000
741.752686	189.400000
741.790466	200.500000
741.828186	197.400000
741.865845	187.400000
741.903564	184.600000
741.941345	193.700000
741.979004	187.300000
742.016724	195.900000
742.054382	193.000000
742.092102	200.300000
742.129822	187.900000
742.167480	191.300000
742.205200	191.800000
742.242920	194.500000
742.280640	196.100000
742.318359	189.400000
742.356079	189.300000
742.393738	197.600000
742.431396	191.600000
742.469116	196.800000
742.506775	182.800000
742.544495	196.200000
742.582214	197.000000
742.619873	192.500000
742.657593	200.400000
742.695251	197.600000
742.732971	192.200000
742.770630	195.400000
742.808289	194.200000
742.846008	193.900000
742.883728	195.100000
742.921326	194.200000
742.959045	189.500000
742.996765	194.100000
743.034424	193.300000
743.072083	191.800000
743.109802	193.800000
743.147400	188.200000
743.185120	195.000000
743.222839	194.200000
743.260437	198.000000
743.298157	196.200000
743.335754	185.800000
743.373474	191.600000
743.411133	184.900000
743.448792	194.300000
743.486450	193.200000
743.524170	186.700000
743.561768	193.400000
743.599487	200.900000
743.637146	204.800000
743.674744	189.700000
743.712463	190.300000
743.750122	193.900000
743.787720	195.700000
743.825439	190.000000
743.863037	191.800000
743.900696	192.700000
743.938416	218.800000
743.976013	192.400000
744.013672	202.600000
744.051331	196.600000
744.088928	203.200000
744.126587	199.300000
744.164307	194.700000
744.201904	191.000000
744.239563	196.900000
744.277222	194.800000
744.314819	194.100000
744.352478	199.800000
744.390137	194.800000
744.427734	196.100000
744.465393	191.300000
744.502991	188.100000
744.540649	196.800000
744.578308	194.200000
744.615906	187.900000
744.653564	183.000000
744.691223	197.600000
744.728821	184.000000
744.766418	193.500000
744.804077	195.000000
744.841675	190.700000
744.879333	185.800000
744.916992	193.000000
744.954529	190.700000
744.992187	200.800000
745.029785	190.100000
745.067444	190.500000
745.105042	192.900000
745.142639	196.900000
745.180298	202.500000
745.217896	192.400000
745.255493	191.400000
745.293152	198.400000
745.330750	197.200000
745.368347	201.200000
745.405945	196.600000
745.443604	194.000000
745.481140	197.100000
745.518799	192.800000
745.556396	198.200000
745.593994	196.300000
745.631592	192.900000
745.669189	187.600000
745.706787	195.500000
745.744385	189.000000
745.781982	196.100000
745.819580	188.900000
745.857178	191.900000
745.894775	193.300000
745.932373	195.100000
745.969971	193.100000
746.007568	185.300000
746.045166	201.600000
746.082764	199.400000
746.120300	194.800000
746.157898	197.200000
746.195557	194.600000
746.233093	187.200000
746.270691	196.900000
746.308228	195.900000
746.345825	199.100000
746.383423	196.900000
746.420959	188.300000
746.458557	190.600000
746.496155	191.100000
746.533691	193.200000
746.571289	188.000000
746.608887	195.400000
746.646423	195.200000
746.684021	195.600000
746.721619	190.400000
746.759155	195.900000
746.796753	186.300000
746.834351	186.900000
746.871826	189.000000
746.909424	201.900000
746.946960	195.600000
746.984558	193.700000
747.022156	192.100000
747.059631	201.300000
747.097229	196.500000
747.134827	191.500000
747.172363	200.400000
747.209900	194.800000
747.247498	187.700000
747.285034	201.500000
747.322571	201.100000
747.360168	191.100000
747.397644	187.200000
747.435242	196.400000
747.472778	201.700000
747.510315	189.100000
747.547913	190.100000
747.585388	199.300000
747.622925	193.700000
747.660522	183.300000
747.697998	189.100000
747.735596	192.700000
747.773132	190.700000
747.810669	192.600000
747.848206	197.700000
747.885742	188.000000
747.923279	188.600000
747.960815	194.800000
747.998352	193.700000
748.035889	197.000000
748.073425	198.900000
748.110901	189.900000
748.148437	188.900000
748.185974	193.900000
748.223511	203.800000
748.261047	194.300000
748.298584	194.900000
748.336060	192.900000
748.373596	196.200000
748.411133	210.900000
748.448608	190.100000
748.486145	198.300000
748.523682	201.800000
748.561218	200.000000
748.598755	196.000000
748.636292	198.300000
748.673706	192.500000
748.711243	200.000000
748.748718	196.300000
748.786255	194.000000
748.823792	194.000000
748.861267	189.300000
748.898804	197.000000
748.936340	195.700000
748.973816	191.400000
749.011292	198.500000
749.048828	195.400000
749.086304	197.500000
749.123840	205.900000
749.161316	188.100000
749.198792	204.100000
749.236328	199.200000
749.273743	193.600000
749.311279	192.300000
749.348816	195.700000
749.386230	194.900000
749.423767	181.600000
749.461304	195.800000
749.498718	193.200000
749.536255	202.000000
749.573730	206.500000
749.611206	199.200000
749.648682	192.200000
749.686218	194.300000
749.723633	198.500000
749.761169	191.800000
749.798645	187.500000
749.836060	192.900000
749.873596	190.500000
749.911011	193.400000
749.948547	200.600000
749.986023	194.400000
750.023437	191.300000
750.060913	188.200000
750.098450	187.000000
750.135864	194.100000
750.173340	193.900000
750.210815	199.000000
750.248291	189.000000
750.285767	195.400000
750.323242	201.500000
750.360657	197.100000
750.398132	188.100000
750.435608	198.800000
750.473022	189.900000
750.510498	189.900000
750.547974	189.900000
750.585449	192.800000
750.622925	183.200000
750.660339	202.500000
750.697815	194.700000
750.735291	193.100000
750.772644	194.500000
750.810120	194.900000
750.847595	196.600000
750.885010	188.800000
750.922485	203.600000
750.959961	191.900000
750.997375	201.000000
751.034851	197.800000
751.072266	198.800000
751.109680	185.600000
751.147156	198.800000
751.184570	195.500000
751.221985	195.200000
751.259460	183.600000
751.296875	194.100000
751.334290	194.500000
751.371765	198.600000
751.409180	197.400000
751.446594	200.700000
751.484070	195.600000
751.521423	194.900000
751.558899	194.200000
751.596375	201.800000
751.633728	201.400000
751.671204	208.700000
751.708618	189.900000
751.746033	195.000000
751.783447	188.600000
751.820801	192.100000
751.858276	196.800000
751.895691	194.300000
751.933105	190.900000
751.970520	190.300000
752.007935	193.200000
752.045349	198.300000
752.082764	193.900000
752.120178	192.600000
752.157532	189.500000
752.195007	192.500000
752.232422	197.300000
752.269775	200.900000
752.307190	196.400000
752.344543	190.300000
752.382019	191.900000
752.419434	192.900000
752.456787	196.300000
752.494202	197.700000
752.531616	195.400000
752.568970	197.800000
752.606384	193.500000
752.643799	195.800000
752.681152	202.500000
752.718567	197.000000
752.755981	185.700000
752.793335	195.900000
752.830750	185.400000
752.868164	200.800000
752.905518	189.700000
752.942932	197.600000
752.980225	188.700000
753.017639	199.500000
753.055054	193.300000
753.092407	196.400000
753.129822	200.200000
753.167175	203.600000
753.204529	193.700000
753.241943	190.600000
753.279358	188.500000
753.316650	198.600000
753.354065	196.700000
753.391479	198.300000
753.428772	203.100000
753.466187	198.200000
753.503479	187.900000
753.540894	193.900000
753.578308	189.800000
753.615601	188.400000
753.653015	196.000000
753.690369	192.300000
753.727722	189.800000
753.765076	187.500000
753.802490	189.200000
753.839783	184.500000
753.877136	193.100000
753.914551	209.600000
753.951843	190.600000
753.989258	197.000000
754.026611	196.900000
754.063904	196.400000
754.101257	189.700000
754.138611	187.700000
754.175964	196.000000
754.213318	205.500000
754.250610	186.100000
754.288025	190.900000
754.325378	188.300000
754.362671	199.900000
754.400024	192.500000
754.437378	203.000000
754.474670	204.500000
754.512085	190.500000
754.549438	194.400000
754.586731	193.100000
754.624084	192.700000
754.661438	188.600000
754.698730	201.800000
754.736084	191.600000
754.773376	191.900000
754.810730	197.400000
754.848083	192.000000
754.885315	198.800000
754.922668	185.200000
754.960022	188.000000
754.997314	198.000000
755.034668	194.900000
755.072021	195.300000
755.109253	192.800000
755.146606	202.300000
755.183960	194.100000
755.221252	204.500000
755.258545	201.800000
755.295898	201.500000
755.333191	204.600000
755.370544	200.700000
755.407776	196.900000
755.445129	197.800000
755.482422	202.200000
755.519714	193.500000
755.557068	191.000000
755.594360	187.300000
755.631653	202.800000
755.668945	204.800000
755.706299	200.300000
755.743530	208.500000
755.780884	206.400000
755.818176	203.500000
755.855408	204.700000
755.892761	199.800000
755.930054	200.000000
755.967346	200.200000
756.004639	202.800000
756.041870	199.400000
756.079224	203.600000
756.116516	195.100000
756.153748	202.500000
756.191040	207.500000
756.228394	201.200000
756.265625	194.900000
756.302917	200.000000
756.340210	196.500000
756.377441	206.300000
756.414795	207.300000
756.452087	201.000000
756.489319	194.100000
756.526611	203.900000
756.563843	202.200000
756.601135	211.500000
756.638428	209.800000
756.675659	200.900000
756.712952	207.900000
756.750244	205.300000
756.787476	202.200000
756.824768	209.100000
756.862061	200.700000
756.899292	249.100000
756.936584	207.900000
756.973816	213.000000
757.011047	216.700000
757.048340	204.800000
757.085632	203.300000
757.122864	219.900000
757.160156	203.300000
757.197327	207.100000
757.234619	209.900000
757.271912	204.300000
757.309082	210.300000
757.346375	202.000000
757.383667	211.400000
757.420837	206.800000
757.458130	208.300000
757.495422	202.700000
757.532593	209.200000
757.569885	199.500000
757.607117	202.000000
757.644348	206.900000
757.681580	219.800000
757.718811	193.500000
757.756042	207.400000
757.793335	204.700000
757.830505	214.700000
757.867798	203.700000
757.905029	203.300000
757.942200	208.700000
757.979492	204.800000
758.016724	205.500000
758.053894	204.800000
758.091187	227.100000
758.128418	207.900000
758.165588	207.000000
758.202820	217.800000
758.240112	209.800000
758.277283	220.800000
758.314514	210.700000
758.351685	205.100000
758.388916	219.800000
758.426147	216.700000
758.463379	219.600000
758.500610	212.900000
758.537842	210.500000
758.575012	217.000000
758.612244	207.200000
758.649475	223.800000
758.686646	204.900000
758.723877	217.900000
758.761108	220.700000
758.798279	211.500000
758.835510	214.400000
758.872742	218.900000
758.909851	215.900000
758.947083	215.400000
758.984253	215.800000
759.021484	218.100000
759.058716	218.000000
759.095886	217.300000
759.133057	215.000000
759.170288	216.900000
759.207458	212.500000
759.244690	225.200000
759.281860	225.000000
759.319031	215.300000
759.356262	212.900000
759.393433	214.300000
759.430603	216.400000
759.467773	214.800000
759.505005	221.200000
759.542175	221.600000
759.579346	215.100000
759.616516	216.300000
759.653687	220.000000
759.690918	213.300000
759.728027	218.000000
759.765259	218.300000
759.802429	220.100000
759.839539	219.000000
759.876770	223.700000
759.913940	229.300000
759.951111	216.500000
759.988281	218.200000
760.025452	214.700000
760.062561	213.200000
760.099792	226.600000
760.136963	221.800000
760.174072	219.000000
760.211243	212.900000
760.248413	213.800000
760.285583	214.700000
760.322754	229.100000
760.359863	226.700000
760.397034	227.800000
760.434204	218.700000
760.471375	221.200000
760.508545	219.600000
760.545715	220.500000
760.582825	216.400000
760.619995	227.300000
760.657166	214.700000
760.694275	228.500000
760.731445	225.200000
760.768555	222.800000
760.805664	227.000000
760.842834	225.000000
760.879944	228.200000
760.917114	224.200000
760.954285	223.900000
760.991394	218.500000
761.028564	229.000000
761.065674	227.200000
761.102783	222.500000
761.139954	229.700000
761.177124	229.800000
761.214172	231.500000
761.251343	225.800000
761.288452	226.900000
761.325562	231.700000
761.362732	224.100000
761.399841	227.100000
761.436951	231.300000
761.474121	225.600000
761.511169	230.800000
761.548340	236.800000
761.585449	234.100000
761.622559	235.900000
761.659668	234.300000
761.696838	239.800000
761.733887	236.000000
761.771057	231.600000
761.808167	233.400000
761.845276	239.900000
761.882385	248.200000
761.919434	238.700000
761.956604	256.800000
761.993713	234.700000
762.030762	245.700000
762.067871	237.200000
762.105042	236.400000
762.142090	246.300000
762.179199	242.800000
762.216309	244.800000
762.253418	256.500000
762.290527	251.500000
762.327637	248.100000
762.364685	237.200000
762.401794	250.100000
762.438904	244.500000
762.475952	240.900000
762.513062	240.200000
762.550110	240.300000
762.587219	255.800000
762.624329	254.600000
762.661377	248.700000
762.698486	248.400000
762.735596	247.300000
762.772644	242.600000
762.809753	240.200000
762.846863	247.400000
762.883911	252.600000
762.921021	253.300000
762.958069	248.700000
762.995117	258.400000
763.032227	260.100000
763.069336	249.500000
763.106323	245.800000
763.143433	243.600000
763.180481	253.900000
763.217590	254.200000
763.254639	251.000000
763.291687	251.300000
763.328735	262.100000
763.365845	253.900000
763.402893	253.400000
763.439941	257.900000
763.477051	261.300000
763.514038	261.300000
763.551147	253.400000
763.588196	256.900000
763.625244	255.900000
763.662292	263.600000
763.699402	267.500000
763.736389	264.000000
763.773499	273.500000
763.810486	265.400000
763.847534	264.400000
763.884644	266.400000
763.921631	261.800000
763.958679	273.600000
763.995728	264.300000
764.032776	274.100000
764.069824	258.900000
764.106873	269.600000
764.143860	278.000000
764.180969	266.600000
764.218018	276.400000
764.255005	269.000000
764.292053	270.300000
764.329102	280.400000
764.366089	282.400000
764.403137	277.200000
764.440125	270.200000
764.477173	272.800000
764.514221	274.900000
764.551208	273.600000
764.588257	267.900000
764.625305	280.300000
764.662292	287.600000
764.699341	288.400000
764.736389	281.400000
764.773376	295.600000
764.810425	284.700000
764.847473	291.400000
764.884399	287.300000
764.921448	293.700000
764.958435	292.000000
764.995483	281.000000
765.032532	297.500000
765.069458	283.900000
765.106506	284.700000
765.143555	284.500000
765.180481	289.000000
765.217529	296.300000
765.254578	280.300000
765.291504	291.300000
765.328552	288.200000
765.365540	285.200000
765.402527	300.900000
765.439575	286.400000
765.476501	283.400000
765.513550	284.300000
765.550537	288.800000
765.587463	297.100000
765.624512	286.900000
765.661499	280.700000
765.698486	298.300000
765.735474	290.100000
765.772461	288.700000
765.809448	302.400000
765.846436	297.300000
765.883423	304.100000
765.920410	295.700000
765.957397	290.400000
765.994385	297.200000
766.031311	308.600000
766.068359	299.100000
766.105286	301.800000
766.142273	307.200000
766.179260	303.900000
766.216187	296.500000
766.253174	295.100000
766.290161	302.700000
766.327148	306.500000
766.364136	304.600000
766.401123	323.200000
766.438049	297.700000
766.475037	315.100000
766.512024	310.400000
766.548950	326.400000
766.585937	319.800000
766.622864	315.700000
766.659790	313.300000
766.696777	305.100000
766.733704	322.600000
766.770691	314.000000
766.807678	330.600000
766.844604	324.100000
766.881531	323.400000
766.918518	328.000000
766.955444	334.500000
766.992432	327.400000
767.029358	329.100000
767.066284	334.200000
767.103271	329.500000
767.140198	357.900000
767.177124	345.900000
767.214050	336.900000
767.251038	340.700000
767.287964	336.300000
767.324890	334.400000
767.361816	337.600000
767.398743	345.900000
767.435730	339.900000
767.472595	347.000000
767.509583	351.600000
767.546509	339.500000
767.583374	347.600000
767.620361	341.400000
767.657288	346.900000
767.694214	348.800000
767.731140	344.900000
767.768066	350.400000
767.804993	352.700000
767.841919	345.100000
767.878845	352.700000
767.915710	361.600000
767.952698	355.300000
767.989563	357.500000
768.026489	359.800000
768.063416	354.500000
768.100281	352.700000
768.137207	366.900000
768.174133	364.100000
768.211060	365.300000
768.247986	366.300000
768.284912	366.000000
768.321777	367.400000
768.358704	364.700000
768.395630	371.400000
768.432495	365.300000
768.469421	372.600000
768.506348	377.200000
768.543152	383.900000
768.580078	379.300000
768.616943	383.200000
768.653870	385.400000
768.690796	382.900000
768.727661	380.200000
768.764587	384.200000
768.801453	378.500000
768.838318	391.400000
768.875244	388.400000
768.912109	392.600000
768.948975	387.400000
768.985901	391.600000
769.022766	391.600000
769.059631	395.800000
769.096558	389.600000
769.133362	392.800000
769.170288	393.600000
769.207214	394.200000
769.244019	402.000000
769.280945	402.600000
769.317810	406.600000
769.354675	404.200000
769.391541	412.900000
769.428406	410.300000
769.465271	421.100000
769.502136	409.800000
769.539062	412.500000
769.575867	411.700000
769.612732	413.700000
769.649597	419.900000
769.686462	424.700000
769.723328	421.000000
769.760193	416.700000
769.797058	420.300000
769.833923	431.800000
769.870728	425.700000
769.907593	429.800000
769.944519	428.600000
769.981323	433.200000
770.018188	433.700000
770.055054	431.000000
770.091858	430.800000
770.128723	442.300000
770.165588	451.100000
770.202393	432.000000
770.239258	443.900000
770.276062	443.700000
770.312927	441.700000
770.349792	447.100000
770.386597	444.400000
770.423462	455.900000
770.460327	463.600000
770.497131	447.300000
770.533997	439.200000
770.570862	459.100000
770.607605	459.900000
770.644470	452.900000
770.681335	457.500000
770.718140	453.700000
770.754944	444.400000
770.791809	447.000000
770.828613	452.300000
770.865479	451.500000
770.902222	465.400000
770.939087	456.300000
770.975952	447.800000
771.012695	451.200000
771.049561	469.700000
771.086365	457.300000
771.123169	452.500000
771.159973	459.300000
771.196838	460.600000
771.233582	459.900000
771.270447	463.200000
771.307251	464.400000
771.344055	462.200000
771.380859	467.300000
771.417664	458.200000
771.454468	471.000000
771.491272	470.700000
771.528076	469.600000
771.564880	469.400000
771.601685	478.800000
771.638428	467.400000
771.675293	478.500000
771.712097	467.400000
771.748840	485.000000
771.785645	474.900000
771.822449	481.100000
771.859253	484.600000
771.896057	481.000000
771.932861	492.300000
771.969604	484.600000
772.006409	475.400000
772.043213	492.200000
772.079956	488.000000
772.116760	479.800000
772.153503	487.300000
772.190308	496.800000
772.227112	490.200000
772.263855	483.300000
772.300659	492.700000
772.337463	500.300000
772.374207	490.200000
772.411011	491.000000
772.447754	497.500000
772.484497	513.400000
772.521301	506.300000
772.558105	506.800000
772.594849	508.600000
772.631592	515.100000
772.668396	515.500000
772.705139	519.700000
772.741882	520.500000
772.778625	535.000000
772.815430	535.300000
772.852173	530.100000
772.888916	538.800000
772.925720	541.900000
772.962463	552.900000
772.999207	544.000000
773.035950	551.700000
773.072754	549.400000
773.109436	546.000000
773.146240	548.200000
773.182922	550.300000
773.219727	557.700000
773.256470	555.800000
773.293152	543.400000
773.329956	551.800000
773.366699	557.200000
773.403381	549.000000
773.440186	557.700000
773.476929	562.900000
773.513611	558.800000
773.550354	557.500000
773.587158	557.400000
773.623840	554.800000
773.660583	570.000000
773.697327	586.100000
773.734009	570.500000
773.770813	567.000000
773.807495	570.600000
773.844238	574.500000
773.880981	591.500000
773.917664	589.500000
773.954407	597.200000
773.991150	585.400000
774.027832	588.500000
774.064575	582.700000
774.101318	595.500000
774.138000	600.600000
774.174744	595.100000
774.211487	598.800000
774.248108	592.600000
774.284851	590.700000
774.321594	605.600000
774.358276	609.800000
774.395020	618.200000
774.431702	614.700000
774.468384	608.500000
774.505127	604.000000
774.541809	618.900000
774.578491	632.900000
774.615234	637.600000
774.651917	629.900000
774.688599	631.800000
774.725342	637.300000
774.762024	637.600000
774.798706	643.200000
774.835449	646.200000
774.872070	654.400000
774.908813	649.100000
774.945496	643.500000
774.982178	646.300000
775.018860	650.700000
775.055542	656.000000
775.092224	654.600000
775.128967	663.200000
775.165588	660.100000
775.202271	648.900000
775.239014	666.400000
775.275635	668.400000
775.312317	661.000000
775.349060	670.800000
775.385681	670.400000
775.422363	660.400000
775.459045	670.500000
775.495667	675.600000
775.532410	678.600000
775.569092	680.700000
775.605713	681.400000
775.642395	677.000000
775.679016	683.900000
775.715698	688.500000
775.752380	693.800000
775.789001	686.900000
775.825684	684.900000
775.862366	683.800000
775.898987	698.700000
775.935669	688.100000
775.972351	715.000000
776.008972	709.800000
776.045654	706.500000
776.082336	698.500000
776.118958	700.300000
776.155640	700.600000
776.192322	712.800000
776.228882	720.900000
776.265564	718.400000
776.302185	707.500000
776.338867	717.800000
776.375488	703.100000
776.412109	721.000000
776.448792	721.800000
776.485413	731.200000
776.522034	719.900000
776.558716	714.500000
776.595337	712.900000
776.631958	720.700000
776.668579	722.300000
776.705261	727.600000
776.741882	720.000000
776.778503	719.600000
776.815186	714.100000
776.851746	724.900000
776.888367	729.100000
776.924988	735.600000
776.961609	724.200000
776.998291	722.600000
777.034851	713.900000
777.071472	731.600000
777.108154	728.600000
777.144714	743.300000
777.181335	737.700000
777.218018	730.200000
777.254578	737.000000
777.291199	733.200000
777.327759	744.000000
777.364380	750.800000
777.401062	757.600000
777.437622	770.700000
777.474243	755.100000
777.510864	765.100000
777.547424	760.100000
777.584045	764.200000
777.620667	769.600000
777.657227	777.000000
777.693848	770.300000
777.730469	789.100000
777.767029	778.700000
777.803650	784.100000
777.840271	777.400000
777.876831	775.900000
777.913452	786.100000
777.950012	766.700000
777.986633	773.600000
778.023193	769.300000
778.059753	772.700000
778.096375	774.800000
778.132996	786.300000
778.169556	772.700000
778.206116	776.700000
778.242737	773.200000
778.279297	790.200000
778.315857	777.700000
778.352478	788.100000
778.389038	800.900000
778.425598	801.700000
778.462219	810.800000
778.498718	811.300000
778.535339	818.100000
778.571838	818.500000
778.608459	828.500000
778.645020	820.300000
778.681580	831.900000
778.718140	837.100000
778.754761	833.400000
778.791260	840.900000
778.827881	850.700000
778.864441	844.300000
778.900940	852.900000
778.937561	847.000000
778.974121	848.500000
779.010620	833.500000
779.047241	844.200000
779.083801	855.600000
779.120300	857.500000
779.156860	863.600000
779.193359	859.000000
779.229980	862.900000
779.266541	866.500000
779.303040	872.000000
779.339600	863.300000
779.376160	858.600000
779.412659	867.500000
779.449219	857.900000
779.485779	869.900000
779.522278	875.700000
779.558838	882.500000
779.595398	878.700000
779.631897	883.100000
779.668457	875.400000
779.705017	887.300000
779.741516	877.700000
779.778076	872.100000
779.814575	880.500000
779.851074	895.100000
779.887634	890.400000
779.924133	895.800000
779.960693	883.800000
779.997253	893.800000
780.033691	898.600000
780.070251	907.700000
780.106812	913.900000
780.143250	911.900000
780.179810	905.800000
780.216370	912.600000
780.252808	924.500000
780.289368	937.500000
780.325867	931.600000
780.362366	926.900000
780.398865	944.600000
780.435364	933.300000
780.471863	955.500000
780.508423	953.700000
780.544861	962.000000
780.581421	968.300000
780.617920	957.000000
780.654419	953.000000
780.690918	965.800000
780.727417	969.200000
780.763916	966.100000
780.800415	972.100000
780.836914	955.700000
780.873352	963.000000
780.909912	955.000000
780.946411	964.900000
780.982849	970.300000
781.019348	991.400000
781.055786	985.300000
781.092346	976.700000
781.128845	991.100000
781.165283	1002.500000
781.201782	1000.100000
781.238281	1003.100000
781.274719	1011.900000
781.311218	1000.100000
781.347717	1015.700000
781.384155	996.900000
781.420654	1006.400000
781.457092	1020.800000
781.493591	1017.900000
781.530090	1009.800000
781.566528	1014.400000
781.602966	1015.100000
781.639465	1015.100000
781.675903	1009.000000
781.712402	1022.900000
781.748901	1027.500000
781.785278	1013.700000
781.821777	1023.800000
781.858276	1026.300000
781.894714	1041.000000
781.931152	1030.800000
781.967651	1035.700000
782.004089	1027.600000
782.040527	1036.300000
782.076965	1037.900000
782.113403	1038.200000
782.149902	1038.700000
782.186340	1033.000000
782.222778	1052.200000
782.259277	1035.100000
782.295654	1028.600000
782.332092	1037.900000
782.368591	1035.200000
782.404968	1030.900000
782.441467	1032.000000
782.477905	1036.600000
782.514282	1031.500000
782.550781	1049.300000
782.587219	1046.900000
782.623596	1052.600000
782.660095	1050.600000
782.696472	1060.600000
782.732910	1058.400000
782.769348	1065.900000
782.805786	1080.100000
782.842224	1077.100000
782.878662	1067.000000
782.915039	1072.600000
782.951477	1073.200000
782.987915	1071.800000
783.024292	1077.800000
783.060730	1078.300000
783.097168	1064.500000
783.133545	1059.300000
783.169983	1051.600000
783.206421	1041.300000
783.242798	1039.700000
783.279236	1026.200000
783.315613	1021.800000
783.352051	1020.600000
783.388489	1007.400000
783.424866	995.700000
783.461304	1006.300000
783.497681	1010.500000
783.534058	1002.900000
783.570496	1000.500000
783.606934	992.400000
783.643250	1001.200000
783.679687	1010.500000
783.716125	1005.800000
783.752441	1021.700000
783.788879	1038.200000
783.825317	1043.000000
783.861633	1041.700000
783.898071	1040.300000
783.934448	1048.800000
783.970825	1033.300000
784.007263	950.200000
784.043579	803.800000
784.080017	635.000000
784.116394	459.400000
784.152710	349.200000
784.189148	309.700000
784.225525	303.600000
784.261902	308.000000
784.298279	358.900000
784.334656	461.200000
784.371033	597.900000
784.407410	756.700000
784.443787	883.700000
784.480164	958.900000
784.516541	991.700000
784.552856	1023.400000
784.589233	1024.900000
784.625610	1028.400000
784.661987	1065.300000
784.698364	1052.900000
784.734741	1044.400000
784.771057	1049.500000
784.807434	1055.500000
784.843811	1075.400000
784.880127	1077.600000
784.916504	1106.200000
784.952881	1109.300000
784.989197	1108.600000
785.025574	1105.800000
785.061951	1118.600000
785.098267	1146.900000
785.134644	1143.500000
785.170959	1148.800000
785.207275	1156.000000
785.243652	1159.500000
785.279968	1140.900000
785.316345	1147.400000
785.352722	1155.400000
785.388977	1160.200000
785.425354	1136.700000
785.461731	1109.900000
785.498047	1100.900000
785.534363	1095.200000
785.570679	1094.500000
785.606995	1106.200000
785.643372	1104.900000
785.679687	1091.900000
785.716003	1078.300000
785.752380	1080.200000
785.788635	1079.600000
785.825012	1108.200000
785.861328	1120.700000
785.897644	1104.600000
785.933960	1118.900000
785.970337	1131.600000
786.006592	1146.100000
786.042908	1157.400000
786.079285	1176.200000
786.115540	1180.800000
786.151855	1180.700000
786.188171	1177.300000
786.224487	1172.500000
786.260803	1174.800000
786.297119	1197.100000
786.333435	1198.100000
786.369751	1190.800000
786.406006	1191.700000
786.442322	1171.900000
786.478638	1166.000000
786.514954	1182.700000
786.551270	1184.200000
786.587585	1195.700000
786.623840	1183.300000
786.660156	1172.300000
786.696472	1157.200000
786.732727	1150.200000
786.769043	1159.600000
786.805298	1146.800000
786.841614	1151.700000
786.877930	1153.600000
786.914124	1138.500000
786.950439	1151.800000
786.986755	1160.200000
787.023010	1180.500000
787.059326	1188.100000
787.095642	1191.100000
787.131836	1206.000000
787.168152	1187.500000
787.204468	1189.400000
787.240723	1213.900000
787.276978	1230.800000
787.313293	1238.000000
787.349548	1235.700000
787.385803	1234.500000
787.422058	1225.700000
787.458313	1232.900000
787.494629	1237.700000
787.530823	1233.700000
787.567139	1221.100000
787.603455	1211.600000
787.639648	1192.700000
787.675903	1195.600000
787.712219	1202.700000
787.748413	1201.300000
787.784729	1204.600000
787.820984	1188.300000
787.857178	1183.500000
787.893494	1170.400000
787.929749	1159.700000
787.965942	1169.900000
788.002258	1187.400000
788.038452	1194.000000
788.074707	1180.500000
788.110962	1187.100000
788.147217	1177.800000
788.183472	1194.100000
788.219727	1212.600000
788.255920	1228.600000
788.292175	1230.200000
788.328430	1221.500000
788.364624	1201.900000
788.400879	1195.200000
788.437134	1207.300000
788.473328	1209.400000
788.509583	1207.600000
788.545837	1199.900000
788.582031	1190.600000
788.618286	1173.900000
788.654480	1167.900000
788.690735	1192.000000
788.726990	1210.800000
788.763184	1205.800000
788.799377	1214.100000
788.835632	1205.100000
788.871826	1221.600000
788.908081	1219.800000
788.944336	1214.700000
788.980469	1236.800000
789.016724	1232.400000
789.052979	1226.700000
789.089111	1206.300000
789.125366	1211.200000
789.161621	1185.500000
789.197754	1202.100000
789.234009	1199.300000
789.270142	1183.000000
789.306396	1171.600000
789.342590	1158.000000
789.378784	1129.600000
789.414978	1137.100000
789.451233	1156.800000
789.487366	1154.400000
789.523621	1165.100000
789.559814	1152.100000
789.595947	1136.900000
789.632202	1148.900000
789.668335	1159.200000
789.704529	1183.300000
789.740784	1204.000000
789.776917	1201.600000
789.813110	1190.800000
789.849304	1204.100000
789.885498	1209.300000
789.921692	1221.500000
789.957886	1225.900000
789.994019	1230.900000
790.030212	1226.200000
790.066406	1218.100000
790.102539	1216.700000
790.138733	1229.100000
790.174927	1225.600000
790.211060	1240.700000
790.247253	1230.100000
790.283386	1210.000000
790.319580	1193.000000
790.355774	1173.700000
790.391907	1180.900000
790.428101	1207.500000
790.464294	1216.200000
790.500427	1212.400000
790.536621	1192.600000
790.572754	1175.100000
790.608887	1182.900000
790.645081	1192.600000
790.681274	1201.400000
790.717346	1205.700000
790.753540	1166.800000
790.789734	1089.400000
790.825867	1028.700000
790.862000	1037.500000
790.898132	1090.200000
790.934265	1148.300000
790.970459	1215.200000
791.006592	1232.400000
791.042725	1237.700000
791.078918	1235.300000
791.114990	1232.800000
791.151184	1255.400000
791.187317	1278.000000
791.223389	1266.400000
791.259583	1253.100000
791.295715	1256.800000
791.331848	1260.500000
791.367981	1277.900000
791.404114	1285.600000
791.440247	1281.500000
791.476379	1277.500000
791.512451	1263.000000
791.548584	1258.200000
791.584778	1255.100000
791.620850	1278.100000
791.656982	1283.800000
791.693115	1274.100000
791.729187	1271.400000
791.765381	1260.700000
791.801514	1257.900000
791.837585	1256.600000
791.873718	1267.700000
791.909851	1279.600000
791.945923	1295.200000
791.982056	1256.700000
792.018188	1248.000000
792.054260	1246.200000
792.090393	1257.500000
792.126465	1247.800000
792.162598	1262.700000
792.198669	1254.100000
792.234741	1239.900000
792.270874	1226.600000
792.307007	1218.400000
792.343079	1227.700000
792.379150	1242.700000
792.415283	1223.600000
792.451355	1226.700000
792.487488	1204.100000
792.523560	1200.400000
792.559631	1200.600000
792.595764	1203.900000
792.631836	1207.600000
792.667908	1214.600000
792.703979	1195.500000
792.740051	1192.800000
792.776184	1200.700000
792.812256	1203.500000
792.848328	1216.300000
792.884399	1218.400000
792.920471	1217.500000
792.956543	1202.200000
792.992615	1205.900000
793.028748	1203.400000
793.064758	1210.200000
793.100830	1229.200000
793.136963	1243.000000
793.172974	1233.100000
793.209045	1226.300000
793.245178	1239.200000
793.281189	1221.200000
793.317261	1234.400000
793.353271	1239.800000
793.389404	1244.800000
793.425476	1232.800000
793.461487	1212.100000
793.497559	1209.300000
793.533630	1214.600000
793.569641	1219.900000
793.605713	1226.200000
793.641785	1233.300000
793.677795	1236.100000
793.713867	1224.500000
793.749878	1222.900000
793.785950	1239.900000
793.822021	1244.800000
793.858032	1228.000000
793.894104	1241.300000
793.930176	1228.400000
793.966187	1230.900000
794.002258	1214.900000
794.038269	1220.700000
794.074280	1221.300000
794.110352	1245.900000
794.146423	1214.800000
794.182373	1205.200000
794.218445	1191.500000
794.254517	1189.500000
794.290466	1175.500000
794.326538	1181.400000
794.362549	1181.100000
794.398560	1187.200000
794.434631	1188.800000
794.470581	1158.600000
794.506653	1151.500000
794.542664	1154.700000
794.578674	1158.700000
794.614685	1157.700000
794.650757	1149.400000
794.686707	1142.400000
794.722778	1128.000000
794.758789	1139.600000
794.794739	1148.800000
794.830811	1172.000000
794.866821	1194.400000
794.902771	1179.600000
794.938843	1165.200000
794.974792	1164.500000
795.010803	1166.400000
795.046814	1167.000000
795.082825	1154.200000
795.118835	1170.300000
795.154846	1149.900000
795.190796	1154.600000
795.226807	1128.300000
795.262817	1137.600000
795.298767	1131.900000
795.334778	1139.600000
795.370850	1123.400000
795.406799	1126.400000
795.442810	1104.500000
795.478821	1105.100000
795.514709	1106.800000
795.550720	1126.900000
795.586670	1105.800000
795.622681	1111.100000
795.658691	1110.500000
795.694641	1102.500000
795.730652	1090.400000
795.766663	1097.000000
795.802551	1102.900000
795.838562	1112.200000
795.874573	1100.800000
795.910522	1099.800000
795.946472	1087.700000
795.982483	1095.100000
796.018433	1092.900000
796.054382	1102.500000
796.090393	1096.500000
796.126282	1085.200000
796.162292	1072.700000
796.198242	1062.300000
796.234192	1066.200000
796.270203	1064.800000
796.306091	1076.600000
796.342041	1088.400000
796.378052	1073.800000
796.413940	1066.400000
796.449951	1074.700000
796.485901	1070.800000
796.521790	1070.100000
796.557800	1081.100000
796.593689	1079.600000
796.629639	1065.100000
796.665649	1061.800000
796.701599	1061.100000
796.737488	1056.300000
796.773437	1071.100000
796.809387	1067.900000
796.845337	1060.000000
796.881287	1046.700000
796.917175	1031.300000
796.953125	1038.000000
796.989075	1046.200000
797.024963	1054.700000
797.060913	1052.400000
797.096863	1051.500000
797.132751	1034.700000
797.168701	1019.200000
797.204590	1025.000000
797.240540	1028.000000
797.276489	1035.000000
797.312439	1043.000000
797.348328	1032.800000
797.384277	1026.200000
797.420166	1012.500000
797.456055	1014.900000
797.492004	1013.500000
797.527893	1020.500000
797.563843	1023.400000
797.599731	1009.400000
797.635620	995.900000
797.671570	1006.700000
797.707520	1001.600000
797.743347	1003.500000
797.779297	1012.100000
797.815125	1011.700000
797.851074	998.600000
797.887024	987.600000
797.922913	984.100000
797.958801	996.900000
797.994690	998.600000
798.030579	1005.500000
798.066467	1002.100000
798.102356	989.600000
798.138245	981.700000
798.174133	979.200000
798.210083	989.000000
798.245911	997.000000
798.281799	1004.200000
798.317749	987.200000
798.353577	981.400000
798.389465	973.100000
798.425293	979.000000
798.461243	970.700000
798.497131	974.200000
798.532959	972.300000
798.568848	975.300000
798.604736	963.600000
798.640564	953.100000
798.676453	952.400000
798.712402	958.500000
798.748230	966.100000
798.784119	964.400000
798.820007	966.100000
798.855835	955.700000
798.891724	950.200000
798.927551	946.200000
798.963379	956.700000
798.999268	952.700000
799.035095	944.300000
799.070984	940.800000
799.106873	924.500000
799.142700	938.600000
799.178528	930.500000
799.214417	927.800000
799.250244	947.400000
799.286133	935.800000
799.321960	927.100000
799.357788	928.500000
799.393677	931.000000
799.429504	927.800000
799.465332	927.400000
799.501221	935.700000
799.537048	928.800000
799.572876	915.600000
799.608704	922.100000
799.644531	931.600000
799.680359	924.500000
799.716248	935.200000
799.752014	942.000000
799.787903	927.300000
799.823730	926.500000
799.859558	911.100000
799.895386	917.700000
799.931213	917.100000
799.967041	911.000000
800.002869	906.500000
800.038696	915.800000
800.074463	889.800000
800.110352	897.600000
800.146179	885.900000
800.181946	895.900000
800.217773	896.100000
800.253540	894.600000
800.289429	888.800000
800.325256	885.100000
800.361023	876.500000
800.396851	876.800000
800.432678	879.700000
800.468445	877.100000
800.504272	870.200000
800.540100	853.900000
800.575867	849.500000
800.611694	859.100000
800.647461	846.300000
800.683289	853.000000
800.719116	855.600000
800.754883	844.300000
800.790649	825.400000
800.826477	823.400000
800.862244	842.500000
800.898071	825.400000
800.933838	822.500000
800.969604	817.300000
801.005432	817.900000
801.041199	819.900000
801.076965	809.600000
801.112793	801.400000
801.148560	795.100000
801.184326	797.700000
801.220154	796.900000
801.255859	787.700000
801.291687	787.400000
801.327454	775.500000
801.363281	781.000000
801.398987	778.000000
801.434814	778.500000
801.470520	787.900000
801.506287	767.900000
801.542114	765.000000
801.577820	768.800000
801.613647	767.400000
801.649414	760.800000
801.685120	760.500000
801.720886	769.900000
801.756714	754.800000
801.792419	746.000000
801.828186	742.500000
801.863892	751.600000
801.899719	742.500000
801.935486	741.800000
801.971252	746.600000
802.006958	742.000000
802.042725	733.200000
802.078430	729.900000
802.114197	726.100000
802.149963	743.400000
802.185669	728.300000
802.221436	728.200000
802.257202	727.800000
802.292908	719.900000
802.328674	728.800000
802.364441	729.300000
802.400146	723.600000
802.435913	719.900000
802.471558	719.000000
802.507324	710.700000
802.543091	701.700000
802.578796	713.900000
802.614502	718.600000
802.650269	718.400000
802.685974	700.400000
802.721741	702.600000
802.757446	709.200000
802.793152	703.400000
802.828918	713.200000
802.864624	706.000000
802.900330	705.200000
802.936035	695.600000
802.971802	695.500000
803.007446	690.800000
803.043213	686.700000
803.078857	693.100000
803.114624	676.700000
803.150330	684.800000
803.185974	674.700000
803.221741	669.700000
803.257446	680.200000
803.293152	682.800000
803.328857	674.400000
803.364563	668.400000
803.400208	660.900000
803.435974	671.000000
803.471680	663.700000
803.507324	657.600000
803.543030	665.300000
803.578735	668.100000
803.614441	655.900000
803.650146	662.000000
803.685791	650.000000
803.721497	648.400000
803.757202	640.900000
803.792847	650.400000
803.828552	637.300000
803.864258	643.000000
803.899902	640.400000
803.935608	622.400000
803.971313	628.400000
804.006958	626.300000
804.042664	624.200000
804.078308	629.000000
804.113953	623.000000
804.149658	630.600000
804.185364	623.600000
804.221008	625.400000
804.256714	619.200000
804.292297	616.600000
804.328003	611.400000
804.363708	602.500000
804.399292	606.300000
804.434998	605.700000
804.470703	595.900000
804.506287	612.000000
804.541992	602.400000
804.577637	605.500000
804.613281	593.300000
804.648926	587.200000
804.684570	593.100000
804.720215	589.100000
804.755920	591.200000
804.791565	585.900000
804.827209	591.600000
804.862854	583.700000
804.898437	576.300000
804.934143	581.800000
804.969788	579.200000
805.005371	581.000000
805.041077	579.600000
805.076721	580.600000
805.112305	568.700000
805.147949	569.400000
805.183655	564.400000
805.219238	569.600000
805.254883	569.800000
805.290466	576.000000
805.326111	569.300000
805.361755	561.200000
805.397400	559.900000
805.432983	565.200000
805.468628	564.500000
805.504211	571.200000
805.539856	564.600000
805.575500	570.200000
805.611084	557.100000
805.646729	546.600000
805.682373	552.700000
805.717957	564.500000
805.753601	559.400000
805.789246	546.400000
805.824768	560.000000
805.860413	559.800000
805.895996	547.100000
805.931641	546.900000
805.967224	552.100000
806.002869	547.200000
806.038452	554.100000
806.074036	551.600000
806.109619	538.900000
806.145264	536.100000
806.180847	538.300000
806.216431	534.300000
806.252014	537.600000
806.287659	537.800000
806.323181	545.000000
806.358826	537.400000
806.394409	518.000000
806.429993	520.700000
806.465576	537.500000
806.501160	520.400000
806.536743	513.300000
806.572327	525.400000
806.607910	519.800000
806.643494	518.700000
806.679077	513.700000
806.714661	514.200000
806.750244	518.700000
806.785828	507.600000
806.821350	506.800000
806.856934	514.900000
806.892517	507.200000
806.928101	498.400000
806.963684	502.200000
806.999268	516.100000
807.034790	493.100000
807.070374	498.600000
807.105896	493.900000
807.141479	486.000000
807.177063	498.000000
807.212585	487.100000
807.248169	490.300000
807.283752	493.800000
807.319275	485.900000
807.354858	487.100000
807.390381	483.400000
807.425903	485.100000
807.461487	478.700000
807.497070	471.400000
807.532593	474.700000
807.568115	471.000000
807.603699	465.200000
807.639221	460.500000
807.674744	465.600000
807.710266	472.200000
807.745850	473.700000
807.781372	465.900000
807.816895	463.300000
807.852417	465.900000
807.888000	460.700000
807.923523	456.700000
807.959045	459.300000
807.994629	449.200000
808.030090	447.400000
808.065613	456.300000
808.101135	456.700000
808.136658	454.000000
808.172241	448.600000
808.207764	447.200000
808.243225	443.300000
808.278809	440.800000
808.314270	448.600000
808.349792	432.400000
808.385315	435.100000
808.420837	440.000000
808.456360	444.200000
808.491882	443.500000
808.527344	437.200000
808.562866	445.700000
808.598389	434.600000
808.633850	429.700000
808.669434	424.800000
808.704895	436.000000
808.740417	440.100000
808.775940	430.500000
808.811462	426.200000
808.846924	417.000000
808.882385	413.400000
808.917847	414.800000
808.953369	414.500000
808.988892	412.100000
809.024353	419.400000
809.059875	417.300000
809.095398	414.000000
809.130798	408.400000
809.166321	408.100000
809.201843	408.300000
809.237305	410.300000
809.272766	414.200000
809.308228	397.400000
809.343750	398.400000
809.379211	400.700000
809.414734	400.300000
809.450134	406.500000
809.485657	389.600000
809.521118	397.900000
809.556580	394.100000
809.592102	393.300000
809.627502	391.700000
809.663025	391.700000
809.698486	383.400000
809.733887	381.100000
809.769409	383.200000
809.804871	371.800000
809.840271	376.800000
809.875793	382.100000
809.911194	384.800000
809.946655	373.500000
809.982178	369.500000
810.017639	376.400000
810.053040	371.900000
810.088501	371.100000
810.123901	368.800000
810.159424	365.800000
810.194885	362.400000
810.230286	368.100000
810.265747	360.000000
810.301208	357.500000
810.336609	360.100000
810.372070	355.800000
810.407532	356.600000
810.442932	359.000000
810.478394	361.600000
810.513794	357.700000
810.549255	354.500000
810.584717	355.000000
810.620117	347.100000
810.655518	355.500000
810.690979	354.000000
810.726379	352.300000
810.761841	341.300000
810.797302	341.900000
810.832642	343.100000
810.868103	354.800000
810.903564	340.900000
810.938904	348.500000
810.974365	334.600000
811.009827	340.800000
811.045166	334.800000
811.080627	327.500000
811.115967	333.900000
811.151428	342.500000
811.186829	334.300000
811.222229	334.800000
811.257629	327.600000
811.293091	333.300000
811.328430	340.800000
811.363892	335.100000
811.399292	336.900000
811.434631	328.200000
811.470093	334.800000
811.505493	325.000000
811.540833	326.800000
811.576294	332.100000
811.611694	326.600000
811.647034	322.200000
811.682434	324.700000
811.717773	325.200000
811.753235	330.400000
811.788635	321.800000
811.823975	325.600000
811.859375	333.200000
811.894775	316.800000
811.930115	318.700000
811.965515	319.000000
812.000916	324.000000
812.036255	317.900000
812.071655	320.100000
812.106995	317.100000
812.142395	315.700000
812.177795	321.600000
812.213196	317.400000
812.248474	318.900000
812.283875	310.200000
812.319214	312.400000
812.354614	314.800000
812.390015	312.700000
812.425293	312.100000
812.460693	309.800000
812.496094	307.100000
812.531433	303.200000
812.566772	304.100000
812.602173	307.700000
812.637451	307.000000
812.672852	303.700000
812.708191	307.900000
812.743530	299.000000
812.778931	292.100000
812.814270	296.700000
812.849609	303.800000
812.884949	298.300000
812.920227	292.800000
812.955627	308.200000
812.990967	299.700000
813.026306	294.600000
813.061646	284.300000
813.096985	280.600000
813.132324	277.300000
813.167664	284.200000
813.203003	290.700000
813.238281	276.200000
813.273682	279.000000
813.308960	274.500000
813.344299	278.800000
813.379639	286.000000
813.414978	279.000000
813.450256	277.900000
813.485596	282.200000
813.520874	273.800000
813.556213	280.800000
813.591614	280.400000
813.626831	273.000000
813.662170	277.200000
813.697510	288.700000
813.732788	269.500000
813.768127	277.800000
813.803467	276.300000
813.838745	271.500000
813.874084	275.000000
813.909363	274.000000
813.944641	274.600000
813.979980	265.700000
814.015320	269.400000
814.050598	266.900000
814.085876	270.800000
814.121155	268.100000
814.156494	265.900000
814.191772	266.900000
814.227051	263.100000
814.262390	264.900000
814.297668	266.100000
814.332947	267.100000
814.368225	260.000000
814.403564	262.200000
814.438782	259.800000
814.474121	261.500000
814.509338	257.400000
814.544617	266.700000
814.579956	256.900000
814.615173	267.300000
814.650513	265.300000
814.685791	254.500000
814.721008	258.300000
814.756348	259.200000
814.791626	254.900000
814.826843	254.600000
814.862122	255.400000
814.897400	251.700000
814.932678	254.100000
814.967957	254.400000
815.003235	254.100000
815.038452	247.700000
815.073730	244.900000
815.108948	255.700000
815.144226	252.300000
815.179504	256.800000
815.214722	243.200000
815.250000	239.600000
815.285278	249.500000
815.320496	243.400000
815.355774	246.400000
815.391052	247.700000
815.426270	245.300000
815.461487	242.700000
815.496765	239.700000
815.531982	235.500000
815.567261	243.400000
815.602539	251.000000
815.637695	244.400000
815.672974	245.400000
815.708191	244.900000
815.743408	246.900000
815.778687	239.800000
815.813904	249.800000
815.849121	230.100000
815.884399	233.600000
815.919556	233.100000
815.954834	234.700000
815.990051	239.200000
816.025269	241.500000
816.060486	232.000000
816.095703	233.800000
816.130920	235.000000
816.166199	231.800000
816.201416	236.400000
816.236572	241.400000
816.271851	231.600000
816.307007	238.800000
816.342224	227.800000
816.377441	232.200000
816.412659	222.400000
816.447876	236.400000
816.483093	229.400000
816.518250	230.500000
816.553467	227.600000
816.588745	232.600000
816.623901	224.400000
816.659119	221.800000
816.694275	224.900000
816.729492	222.100000
816.764709	258.600000
816.799927	218.600000
816.835083	224.300000
816.870300	219.200000
816.905457	222.400000
816.940674	226.700000
816.975830	220.700000
817.010986	217.000000
817.046204	220.200000
817.081421	218.000000
817.116577	216.500000
817.151733	225.500000
817.186951	225.100000
817.222107	223.400000
817.257324	223.200000
817.292419	222.100000
817.327637	213.900000
817.362854	218.700000
817.398010	213.000000
817.433167	215.900000
817.468323	214.800000
817.503479	215.400000
817.538635	224.200000
817.573853	217.600000
817.608948	218.300000
817.644165	212.400000
817.679321	213.100000
817.714478	211.900000
817.749634	216.000000
817.784790	227.400000
817.819946	222.400000
817.855103	203.100000
817.890198	214.300000
817.925415	205.700000
817.960571	214.300000
817.995667	212.800000
818.030823	217.100000
818.066040	207.700000
818.101135	212.200000
818.136292	210.500000
818.171448	205.900000
818.206543	210.800000
818.241699	214.000000
818.276855	210.500000
818.311951	209.600000
818.347107	205.300000
818.382263	212.600000
818.417358	218.800000
818.452515	218.000000
818.487610	217.400000
818.522766	208.000000
818.557922	217.000000
818.593018	213.300000
818.628113	211.200000
818.663269	205.900000
818.698364	210.500000
818.733521	207.200000
818.768677	212.300000
818.803711	203.300000
818.838867	203.400000
818.874023	207.200000
818.909058	204.600000
818.944214	203.300000
818.979370	210.800000
819.014404	209.500000
819.049561	203.400000
819.084595	209.000000
819.119751	199.000000
819.154846	208.500000
819.189941	204.500000
819.225037	200.800000
819.260193	194.500000
819.295227	197.900000
819.330322	194.000000
819.365479	193.600000
819.400513	228.400000
819.435608	193.900000
819.470764	191.800000
819.505798	194.900000
819.540894	199.200000
819.575989	195.500000
819.611084	206.000000
819.646179	207.000000
819.681213	200.300000
819.716309	197.600000
819.751404	198.400000
819.786438	202.000000
819.821533	195.000000
819.856628	200.500000
819.891663	203.900000
819.926758	209.800000
819.961853	206.100000
819.996887	194.600000
820.031982	203.800000
820.067017	197.000000
820.102112	228.300000
820.137207	197.200000
820.172302	215.400000
820.207275	195.100000
820.242371	195.900000
820.277405	194.200000
820.312500	198.700000
820.347534	200.400000
820.382568	203.900000
820.417664	195.900000
820.452759	197.200000
820.487732	194.500000
820.522827	197.700000
820.557861	192.200000
820.592896	196.500000
820.627930	195.100000
820.662964	193.000000
820.698059	198.400000
820.733093	197.600000
820.768127	200.100000
820.803162	197.100000
820.838196	194.400000
820.873230	197.800000
820.908264	197.400000
820.943298	193.700000
820.978333	201.800000
821.013367	196.900000
821.048401	201.100000
821.083435	201.400000
821.118469	188.400000
821.153503	200.900000
821.188477	197.100000
821.223511	189.300000
821.258484	195.800000
821.293579	197.800000
821.328613	188.600000
821.363647	194.500000
821.398621	190.600000
821.433655	191.800000
821.468628	209.000000
821.503662	193.700000
821.538696	198.200000
821.573669	189.700000
821.608704	199.300000
821.643677	192.900000
821.678650	201.500000
821.713684	204.400000
821.748718	193.500000
821.783691	193.200000
821.818726	196.300000
821.853638	196.300000
821.888672	195.000000
821.923706	195.500000
821.958618	192.900000
821.993652	191.700000
822.028687	200.800000
822.063599	201.200000
822.098633	197.400000
822.133667	192.000000
822.168579	193.500000
822.203613	195.100000
822.238586	192.200000
822.273560	197.000000
822.308533	190.700000
822.343567	193.100000
822.378479	193.700000
822.413452	193.300000
822.448425	190.600000
822.483398	200.000000
822.518372	199.100000
822.553345	191.500000
822.588318	203.000000
822.623291	192.700000
822.658203	193.000000
822.693237	194.500000
822.728210	189.100000
822.763123	195.000000
822.798096	190.600000
822.833069	195.400000
822.867981	193.800000
822.902954	196.600000
822.937927	197.300000
822.972900	206.900000
823.007874	186.200000
823.042725	197.900000
823.077698	206.600000
823.112671	190.400000
823.147583	192.600000
823.182556	196.600000
823.217529	198.600000
823.252441	191.900000
823.287415	207.400000
823.322388	197.400000
823.357239	194.500000
823.392212	203.500000
823.427185	197.000000
823.462097	190.300000
823.497009	197.000000
823.531982	194.100000
823.566895	196.000000
823.601807	191.000000
823.636719	192.300000
823.671631	197.500000
823.706604	192.000000
823.741455	198.300000
823.776428	188.100000
823.811340	200.300000
823.846252	200.700000
823.881165	202.300000
823.916138	195.800000
823.950989	203.700000
823.985901	191.100000
824.020813	194.800000
824.055725	191.500000
824.090637	190.700000
824.125610	196.600000
824.160461	195.700000
824.195374	196.000000
824.230225	199.100000
824.265198	186.600000
824.300110	191.700000
824.334961	205.600000
824.369873	184.300000
824.404785	198.000000
824.439636	200.800000
824.474548	186.100000
824.509460	183.100000
824.544312	200.200000
824.579224	196.700000
824.614075	197.200000
824.648987	193.600000
824.683899	193.000000
824.718811	190.700000
824.753662	201.400000
824.788574	198.400000
824.823364	195.300000
824.858276	190.500000
824.893188	200.400000
824.928040	201.200000
824.962952	197.600000
824.997803	197.800000
825.032654	196.500000
825.067566	198.000000
825.102417	193.300000
825.137268	193.600000
825.172119	195.800000
825.206970	191.000000
825.241882	194.000000
825.276733	191.200000
825.311646	190.900000
825.346436	188.400000
825.381348	189.600000
825.416138	194.100000
825.450989	189.800000
825.485901	184.800000
825.520691	187.400000
825.555542	189.000000
825.590454	194.400000
825.625244	186.100000
825.660095	200.700000
825.695007	198.000000
825.729797	193.300000
825.764648	190.300000
825.799438	192.300000
825.834290	194.200000
825.869202	186.900000
825.903992	194.600000
825.938843	189.500000
825.973694	188.400000
826.008484	204.700000
826.043335	187.600000
826.078186	184.500000
826.112976	200.000000
826.147827	199.000000
826.182678	203.400000
826.217468	185.100000
826.252319	198.500000
826.287109	189.100000
826.321899	202.200000
826.356750	190.500000
826.391541	187.900000
826.426392	199.000000
826.461182	193.300000
826.495972	187.800000
826.530823	185.100000
826.565613	194.500000
826.600403	187.200000
826.635254	195.300000
826.670044	185.000000
826.704834	185.700000
826.739685	190.100000
826.774475	193.800000
826.809265	193.300000
826.844055	190.100000
826.878906	198.800000
826.913635	195.000000
826.948425	195.900000
826.983215	192.600000
827.018005	197.800000
827.052856	191.000000
827.087585	197.100000
827.122375	184.700000
827.157227	193.100000
827.191956	205.200000
827.226746	189.300000
827.261536	197.800000
827.296265	187.000000
827.331116	191.000000
827.365906	196.700000
827.400635	189.000000
827.435425	184.400000
827.470215	199.500000
827.504944	191.300000
827.539734	197.200000
827.574463	191.800000
827.609253	200.200000
827.644043	192.900000
827.678772	198.700000
827.713562	190.700000
827.748352	190.300000
827.783081	189.400000
827.817871	194.300000
827.852600	188.400000
827.887329	193.200000
827.922119	182.700000
827.956848	196.900000
827.991638	207.000000
828.026367	196.400000
828.061157	193.200000
828.095886	193.200000
828.130615	208.500000
828.165344	184.100000
828.200073	194.500000
828.234863	191.000000
828.269592	192.500000
828.304321	199.000000
828.339111	193.700000
828.373779	190.600000
828.408569	198.300000
828.443298	199.100000
828.477966	191.000000
828.512756	194.600000
828.547424	189.200000
828.582214	190.100000
828.616943	190.400000
828.651672	192.900000
828.686340	196.800000
828.721130	191.300000
828.755798	192.700000
828.790527	192.400000
828.825256	194.300000
828.859924	194.800000
828.894714	199.100000
828.929443	200.400000
828.964111	188.300000
828.998840	194.800000
829.033569	191.100000
829.068237	189.600000
829.102966	190.100000
829.137634	194.700000
829.172363	195.200000
829.207092	193.300000
829.241821	188.500000
829.276489	183.400000
829.311157	193.000000
829.345825	190.500000
829.380554	197.100000
829.415283	188.200000
829.449951	187.400000
829.484619	200.600000
829.519348	199.600000
829.554016	192.700000
829.588745	192.100000
829.623413	186.700000
829.658081	205.200000
829.692749	186.900000
829.727417	198.900000
829.762146	194.600000
829.796814	189.900000
829.831482	189.700000
829.866150	195.300000
829.900879	190.200000
829.935486	196.300000
829.970154	191.300000
830.004883	203.800000
830.039490	193.700000
830.074219	190.400000
830.108887	193.100000
830.143494	192.200000
830.178223	187.600000
830.212891	192.000000
830.247498	192.100000
830.282166	201.600000
830.316772	197.600000
830.351501	191.000000
830.386169	190.900000
830.420776	191.800000
830.455444	191.500000
830.490112	189.500000
830.524719	184.000000
830.559387	195.000000
830.594055	195.400000
830.628662	192.300000
830.663330	191.200000
830.697998	202.300000
830.732605	191.200000
830.767273	195.000000
830.801941	192.500000
830.836487	202.100000
830.871155	194.500000
830.905762	195.100000
830.940430	185.300000
830.975098	190.100000
831.009644	193.000000
831.044312	200.500000
831.078979	196.000000
831.113525	185.000000
831.148193	192.400000
831.182861	190.000000
831.217407	195.500000
831.252075	210.400000
831.286621	189.600000
831.321289	189.000000
831.355896	191.700000
831.390564	199.700000
831.425110	194.100000
831.459778	199.000000
831.494324	207.400000
831.528931	195.500000
831.563599	197.700000
831.598145	186.000000
831.632751	193.000000
831.667419	190.000000
831.701965	195.600000
831.736572	196.200000
831.771179	185.900000
831.805786	191.000000
831.840393	199.500000
831.874939	183.600000
831.909546	197.400000
831.944153	184.600000
831.978760	192.100000
832.013306	187.600000
832.047913	201.000000
832.082458	199.700000
832.117065	189.800000
832.151672	201.700000
832.186218	193.900000
832.220825	196.400000
832.255432	185.400000
832.289978	188.900000
832.324585	195.300000
832.359192	195.500000
832.393677	190.500000
832.428284	192.500000
832.462830	190.300000
832.497437	191.000000
832.531982	196.500000
832.566589	191.300000
832.601135	192.700000
832.635681	184.300000
832.670227	192.600000
832.704773	200.100000
832.739380	194.000000
832.773926	192.800000
832.808472	187.600000
832.843079	192.400000
832.877563	195.300000
832.912170	190.300000
832.946716	184.700000
832.981201	198.100000
833.015808	195.700000
833.050293	192.500000
833.084839	188.800000
833.119446	191.400000
833.153992	196.600000
833.188477	193.300000
833.223022	187.900000
833.257568	194.100000
833.292114	198.700000
833.326660	204.000000
833.361145	189.600000
833.395691	185.900000
833.430237	191.900000
833.464783	196.300000
833.499329	189.000000
833.533875	188.000000
833.568359	195.900000
833.602905	198.600000
833.637390	197.800000
833.671875	189.900000
833.706421	190.400000
833.740906	190.200000
833.775452	182.000000
833.809998	189.800000
833.844482	199.600000
833.879028	192.100000
833.913513	190.900000
833.947998	195.600000
833.982544	187.400000
834.017090	189.400000
834.051514	181.700000
834.086060	196.700000
834.120544	191.400000
834.155029	193.400000
834.189575	190.500000
834.223999	194.200000
834.258545	193.700000
834.293030	194.100000
834.327515	193.500000
834.362000	189.200000
834.396545	196.300000
834.430969	191.100000
834.465454	197.300000
834.500000	184.100000
834.534424	195.800000
834.568970	183.000000
834.603455	184.000000
834.637878	188.100000
834.672363	193.500000
834.706909	191.900000
834.741333	193.500000
834.775818	184.800000
834.810242	189.000000
834.844727	192.100000
834.879211	190.400000
834.913635	191.800000
834.948181	195.900000
834.982666	192.900000
835.017090	191.200000
835.051575	195.300000
835.086060	190.300000
835.120483	195.700000
835.154907	198.000000
835.189331	190.900000
835.223816	195.500000
835.258301	186.700000
835.292786	187.900000
835.327209	196.900000
835.361694	189.400000
835.396057	188.900000
835.430542	195.500000
835.465027	193.000000
835.499390	187.400000
835.533875	212.100000
835.568359	190.800000
835.602722	184.600000
835.637207	194.100000
835.671692	187.700000
835.706055	209.100000
835.740540	193.500000
835.774902	195.800000
835.809387	192.600000
835.843811	186.300000
835.878235	201.400000
835.912659	186.600000
835.947083	189.000000
835.981506	192.300000
836.015930	186.900000
836.050354	197.100000
836.084778	201.600000
836.119202	196.900000
836.153625	205.200000
836.187988	188.000000
836.222473	188.700000
836.256897	193.900000
836.291260	192.100000
836.325684	194.500000
836.360046	190.100000
836.394470	190.600000
836.428894	198.900000
836.463318	189.100000
836.497681	197.700000
836.532104	199.700000
836.566467	195.200000
836.600891	191.500000
836.635315	198.900000
836.669678	194.800000
836.704102	198.600000
836.738525	194.100000
836.772888	184.700000
836.807251	189.700000
836.841675	195.300000
836.876038	187.900000
836.910461	189.200000
836.944763	196.600000
836.979187	188.600000
837.013611	198.600000
837.047974	184.600000
837.082336	203.000000
837.116699	195.600000
837.151062	191.000000
837.185486	186.300000
837.219849	191.500000
837.254211	196.100000
837.288574	191.800000
837.322937	187.300000
837.357300	179.900000
837.391663	206.600000
837.426086	197.000000
837.460388	193.100000
837.494751	197.500000
837.529114	190.700000
837.563477	197.200000
837.597839	195.100000
837.632141	193.300000
837.666565	189.600000
837.700928	193.400000
837.735229	196.600000
837.769592	194.100000
837.803955	198.400000
837.838257	190.600000
837.872620	189.700000
837.906982	200.500000
837.941284	192.800000
837.975647	193.300000
838.010010	199.300000
838.044312	190.800000
838.078674	189.800000
838.112976	195.300000
838.147339	197.300000
838.181702	193.200000
838.216003	202.500000
838.250366	195.000000
838.284668	196.100000
838.318970	185.400000
838.353333	192.200000
838.387634	190.800000
838.421936	192.300000
838.456299	195.300000
838.490601	200.700000
838.524902	195.900000
838.559265	196.700000
838.593567	196.100000
838.627869	187.500000
838.662170	193.700000
838.696472	184.700000
838.730774	189.300000
838.765137	197.900000
838.799377	177.600000
838.833740	193.400000
838.868042	197.900000
838.902283	184.000000
838.936646	198.100000
838.970947	192.700000
839.005188	197.800000
839.039551	186.100000
839.073792	198.900000
839.108093	189.900000
839.142395	202.200000
839.176697	185.000000
839.210937	193.200000
839.245300	204.400000
839.279541	186.500000
839.313843	191.700000
839.348145	195.600000
839.382385	198.400000
839.416687	196.800000
839.450989	196.400000
839.485229	191.900000
839.519531	187.900000
839.553833	198.000000
839.588013	193.900000
839.622314	192.800000
839.656555	195.000000
839.690857	192.800000
839.725159	187.100000
839.759460	192.100000
839.793640	189.600000
839.827942	191.400000
839.862183	189.900000
839.896423	194.100000
839.930725	202.800000
839.964966	201.100000
839.999207	200.900000
840.033508	199.100000
840.067688	191.500000
840.101990	201.400000
840.136230	193.200000
840.170471	200.600000
840.204712	189.400000
840.238953	188.700000
840.273193	194.300000
840.307434	197.100000
840.341736	188.600000
840.375916	186.600000
840.410217	190.000000
840.444397	197.300000
840.478638	196.700000
840.512878	199.600000
840.547119	193.600000
840.581360	195.100000
840.615601	202.900000
840.649780	201.300000
840.684021	191.500000
840.718262	200.900000
840.752441	197.500000
840.786682	194.300000
840.820862	194.700000
840.855103	199.700000
840.889343	192.600000
840.923584	198.300000
840.957764	194.400000
840.992004	195.600000
841.026184	207.200000
841.060425	191.200000
841.094666	190.100000
841.128845	196.600000
841.163025	195.000000
841.197266	196.300000
841.231445	193.800000
841.265686	193.300000
841.299866	187.900000
841.334045	201.300000
841.368286	193.400000
841.402405	203.300000
841.436646	196.300000
841.470825	190.400000
841.505005	192.100000
841.539185	190.200000
841.573425	190.200000
841.607544	193.500000
841.641785	193.300000
841.675964	189.200000
841.710144	193.600000
841.744324	191.200000
841.778503	191.700000
841.812683	190.100000
841.846863	202.100000
841.881042	201.200000
841.915222	190.600000
841.949402	209.100000
841.983521	183.600000
842.017700	192.500000
842.051880	195.100000
842.086060	197.000000
842.120239	193.900000
842.154419	192.400000
842.188538	193.700000
842.222717	189.600000
842.256897	203.600000
842.291016	192.300000
842.325195	196.400000
842.359375	204.500000
842.393494	201.700000
842.427673	194.000000
842.461853	197.400000
842.495911	200.900000
842.530090	196.600000
842.564209	192.200000
842.598389	195.400000
842.632568	195.200000
842.666626	197.900000
842.700806	189.700000
842.734985	192.400000
842.769043	197.400000
842.803223	192.200000
842.837402	191.300000
842.871460	191.000000
842.905640	200.600000
842.939697	189.800000
842.973877	195.800000
843.007996	198.900000
843.042175	201.100000
843.076233	191.100000
843.110413	194.100000
843.144470	202.200000
843.178589	197.200000
843.212769	191.900000
843.246826	197.700000
843.280945	193.000000
843.315125	191.800000
843.349182	190.600000
843.383301	201.200000
843.417419	207.100000
843.451538	193.000000
843.485657	191.200000
843.519714	191.400000
843.553833	194.400000
843.587952	191.600000
843.622070	189.300000
843.656128	196.400000
843.690247	191.800000
843.724304	191.600000
843.758423	195.800000
843.792542	192.100000
843.826599	193.700000
843.860718	191.600000
843.894836	186.400000
843.928894	193.800000
843.963013	195.700000
843.997070	189.800000
844.031128	186.500000
844.065247	199.800000
844.099304	198.200000
844.133362	194.400000
844.167480	196.500000
844.201599	201.800000
844.235596	196.400000
844.269714	196.700000
844.303711	196.100000
844.337830	185.300000
844.371948	197.100000
844.405945	193.200000
844.440063	188.800000
844.474121	209.300000
844.508118	192.500000
844.542236	193.200000
844.576294	193.500000
844.610352	189.100000
844.644409	192.900000
844.678406	186.300000
844.712524	198.000000
844.746582	201.100000
844.780640	194.200000
844.814636	195.800000
844.848755	203.000000
844.882751	193.500000
844.916809	199.200000
844.950867	196.500000
844.984863	202.800000
845.018921	193.800000
845.052979	189.500000
845.086975	196.000000
845.121033	187.000000
845.155090	189.700000
845.189087	202.200000
845.223145	191.100000
845.257141	193.600000
845.291199	196.500000
845.325256	202.300000
845.359253	194.500000
845.393250	204.300000
845.427307	191.900000
845.461304	195.900000
845.495361	194.100000
845.529358	204.800000
845.563354	192.000000
845.597412	190.200000
845.631409	201.700000
845.665405	201.800000
845.699463	198.200000
845.733459	191.600000
845.767456	200.500000
845.801453	192.800000
845.835449	199.900000
845.869446	198.100000
845.903503	198.600000
845.937439	189.900000
845.971497	200.000000
846.005493	188.900000
846.039429	197.800000
846.073486	203.800000
846.107483	191.900000
846.141418	194.200000
846.175476	191.900000
846.209473	201.300000
846.243408	189.500000
846.277405	195.600000
846.311401	187.900000
846.345337	195.500000
846.379395	199.600000
846.413330	191.700000
846.447327	203.000000
846.481323	188.800000
846.515259	190.800000
846.549255	194.800000
846.583252	195.900000
846.617187	190.500000
846.651184	196.000000
846.685120	192.500000
846.719055	201.200000
846.753052	198.300000
846.786987	198.300000
846.820984	187.100000
846.854980	200.800000
846.888916	189.300000
846.922852	196.900000
846.956848	202.000000
846.990723	188.400000
847.024719	194.000000
847.058716	192.500000
847.092590	201.100000
847.126587	195.300000
847.160522	191.000000
847.194458	198.900000
847.228455	189.500000
847.262390	187.800000
847.296265	192.400000
847.330261	201.600000
847.364136	192.200000
847.398132	190.200000
847.432068	194.000000
847.466003	193.800000
847.499939	193.600000
847.533875	198.000000
847.567749	192.300000
847.601746	192.400000
847.635681	198.000000
847.669556	186.900000
847.703491	199.500000
847.737427	209.000000
847.771301	189.200000
847.805237	195.800000
847.839233	193.900000
847.873108	195.300000
847.907043	192.700000
847.940918	201.100000
847.974854	195.800000
848.008789	199.200000
848.042664	193.300000
848.076538	197.900000
848.110474	194.100000
848.144348	197.300000
848.178284	188.300000
848.212219	195.700000
848.246094	192.700000
848.279968	196.200000
848.313904	197.400000
848.347778	195.200000
848.381653	193.600000
848.415588	189.800000
848.449463	190.800000
848.483337	198.300000
848.517212	199.600000
848.551086	194.600000
848.585022	189.600000
848.618835	201.700000
848.652771	192.500000
848.686646	188.800000
848.720520	202.400000
848.754395	192.900000
848.788330	200.500000
848.822144	198.600000
848.856018	192.000000
848.889954	203.800000
848.923767	190.200000
848.957642	191.100000
848.991577	197.900000
849.025391	191.400000
849.059265	194.200000
849.093079	191.400000
849.126953	189.600000
849.160828	199.700000
849.194641	195.300000
849.228577	192.200000
849.262451	193.500000
849.296265	192.600000
849.330139	189.400000
849.364014	194.700000
849.397827	199.100000
849.431702	195.000000
849.465515	201.400000
849.499329	185.100000
849.533203	189.500000
849.567078	184.100000
849.600891	198.000000
849.634766	192.900000
849.668518	199.500000
849.702393	194.000000
849.736267	189.300000
849.770020	205.900000
849.803894	197.900000
849.837769	194.900000
849.871521	194.500000
849.905396	200.000000
849.939270	190.300000
849.973022	192.000000
850.006897	197.000000
850.040710	197.000000
850.074524	198.100000
850.108337	193.900000
850.142151	198.300000
850.175964	201.000000
850.209778	195.100000
850.243530	181.900000
850.277405	200.200000
850.311218	193.200000
850.344971	189.400000
850.378845	202.400000
850.412659	191.300000
850.446411	195.000000
850.480225	193.700000
850.514038	199.500000
850.547791	196.200000
850.581665	195.000000
850.615417	191.800000
850.649231	195.100000
850.683044	192.700000
850.716858	194.400000
850.750610	194.100000
850.784424	198.500000
850.818176	192.300000
850.851929	192.000000
850.885742	191.600000
850.919495	194.000000
850.953308	199.700000
850.987122	202.300000
851.020874	188.100000
851.054626	187.700000
851.088440	197.000000
851.122192	199.300000
851.156006	194.600000
851.189697	193.700000
851.223511	188.000000
851.257263	199.700000
851.291077	198.000000
851.324829	193.000000
851.358582	191.600000
851.392334	192.100000
851.426086	191.700000
851.459900	202.500000
851.493591	194.100000
851.527344	194.600000
851.561157	193.000000
851.594849	197.400000
851.628662	196.300000
851.662415	202.700000
851.696106	197.600000
851.729858	197.800000
851.763611	188.400000
851.797363	195.600000
851.831116	189.700000
851.864868	197.200000
851.898560	196.800000
851.932312	192.000000
851.966064	196.000000
851.999817	194.300000
852.033569	194.900000
852.067261	198.000000
852.101013	191.300000
852.134766	195.100000
852.168457	184.200000
852.202209	198.600000
852.235901	191.800000
852.269592	198.100000
852.303345	204.900000
852.337036	197.400000
852.370789	193.700000
852.404541	197.600000
852.438171	191.600000
852.471924	192.300000
852.505676	187.900000
852.539307	196.800000
852.573059	191.200000
852.606812	192.200000
852.640442	195.500000
852.674194	200.400000
852.707886	205.600000
852.741577	202.200000
852.775269	190.400000
852.809021	193.800000
852.842651	196.600000
852.876404	199.700000
852.910034	196.700000
852.943787	199.700000
852.977478	197.200000
853.011108	191.100000
853.044861	190.000000
853.078552	201.300000
853.112183	197.000000
853.145874	196.000000
853.179626	185.400000
853.213257	196.100000
853.246948	193.400000
853.280640	202.800000
853.314270	193.100000
853.347961	201.100000
853.381653	197.100000
853.415283	197.900000
853.448975	192.200000
853.482605	194.900000
853.516296	192.400000
853.549988	190.100000
853.583618	196.000000
853.617310	195.100000
853.651001	196.400000
853.684631	189.500000
853.718323	191.800000
853.751953	203.900000
853.785583	186.200000
853.819275	199.600000
853.852966	195.700000
853.886536	185.000000
853.920227	189.700000
853.953918	200.300000
853.987488	192.500000
854.021179	199.800000
854.054749	202.400000
854.088440	197.500000
854.122131	190.000000
854.155701	199.000000
854.189331	190.900000
854.223022	199.700000
854.256592	196.900000
854.290283	191.800000
854.323914	198.700000
854.357483	195.800000
854.391174	197.400000
854.424744	204.800000
854.458374	196.600000
854.492065	206.600000
854.525696	198.400000
854.559265	200.700000
854.592896	205.300000
854.626465	195.500000
854.660095	195.900000
854.693787	195.600000
854.727356	192.500000
854.760986	200.600000
854.794617	195.800000
854.828186	194.600000
854.861816	197.300000
854.895447	195.300000
854.929016	195.200000
854.962585	197.700000
854.996155	201.500000
855.029785	196.000000
855.063416	197.400000
855.097046	200.300000
855.130615	188.500000
855.164185	202.500000
855.197754	195.000000
855.231384	197.200000
855.264954	193.300000
855.298523	197.800000
855.332153	195.000000
855.365723	204.600000
855.399292	190.600000
855.432922	193.200000
855.466492	196.900000
855.500061	189.300000
855.533630	192.200000
855.567200	198.900000
855.600769	200.400000
855.634338	199.100000
855.667969	197.000000
855.701477	190.400000
855.735046	193.700000
855.768616	186.900000
855.802185	197.400000
855.835754	209.700000
855.869324	187.400000
855.902893	193.100000
855.936401	203.500000
855.969971	195.600000
856.003540	187.400000
856.037109	198.800000
856.070618	195.000000
856.104187	189.100000
856.137695	192.200000
856.171265	184.700000
856.204834	195.000000
856.238403	199.700000
856.271912	190.800000
856.305481	195.000000
856.338989	187.800000
856.372559	197.300000
856.406128	195.200000
856.439636	198.800000
856.473145	192.700000
856.506653	202.700000
856.540222	195.500000
856.573792	203.000000
856.607300	198.200000
856.640808	188.100000
856.674377	196.500000
856.707825	224.100000
856.741394	198.600000
856.774902	191.400000
856.808472	185.800000
856.841980	198.400000
856.875488	204.700000
856.908936	186.800000
856.942505	193.500000
856.976013	194.200000
857.009521	188.900000
857.043030	195.400000
857.076477	194.000000
857.110046	199.600000
857.143555	196.300000
857.177063	200.400000
857.210571	191.400000
857.244080	188.600000
857.277527	196.900000
857.311035	194.600000
857.344543	198.500000
857.378052	194.400000
857.411499	200.200000
857.445068	204.400000
857.478516	194.700000
857.512024	188.800000
857.545532	192.500000
857.578979	197.400000
857.612427	194.400000
857.645874	191.300000
857.679382	194.800000
857.712891	198.600000
857.746399	193.600000
857.779846	200.400000
857.813354	198.900000
857.846741	195.000000
857.880249	190.800000
857.913757	195.500000
857.947266	196.400000
857.980652	198.600000
858.014160	191.800000
858.047546	192.200000
858.081055	192.700000
858.114563	202.400000
858.147949	187.600000
858.181458	198.600000
858.214844	192.800000
858.248352	185.300000
858.281799	200.500000
858.315308	207.400000
858.348694	198.500000
858.382141	202.800000
858.415588	197.400000
858.449036	200.600000
858.482483	198.700000
858.515930	191.500000
858.549377	195.300000
858.582825	202.100000
858.616211	198.600000
858.649658	195.900000
858.683105	190.500000
858.716553	190.700000
858.750000	188.700000
858.783386	192.400000
858.816833	186.700000
858.850281	196.100000
858.883728	198.700000
858.917114	193.200000
858.950562	205.000000
858.983948	203.700000
859.017395	200.600000
859.050781	192.300000
859.084167	191.100000
859.117615	187.600000
859.151062	198.300000
859.184448	191.500000
859.217834	193.700000
859.251282	193.500000
859.284668	190.900000
859.318054	185.000000
859.351440	192.100000
859.384888	202.600000
859.418274	186.000000
859.451721	185.700000
859.485046	196.700000
859.518494	196.100000
859.551819	189.900000
859.585266	197.400000
859.618652	196.500000
859.652039	189.300000
859.685425	190.100000
859.718811	187.800000
859.752197	183.300000
859.785583	201.200000
859.819031	204.500000
859.852356	196.700000
859.885742	191.400000
859.919067	193.600000
859.952454	191.200000
859.985901	200.000000
860.019287	193.400000
860.052612	0.000000
860.085999	0.000000
860.119324	0.000000
860.152710	0.000000
860.186096	0.000000
860.219421	0.000000
860.252808	0.000000
860.286133	0.000000
860.319519	0.000000
860.352905	0.000000
860.386292	0.000000
860.419617	0.000000
860.452942	0.000000
860.486267	0.000000
860.519653	0.000000
860.553040	0.000000
860.586365	0.000000
860.619690	0.000000
860.653076	0.000000
860.686340	0.000000
860.719727	0.000000
860.753113	0.000000
860.786377	0.000000
860.819763	0.000000
860.853027	0.000000
860.886414	0.000000
860.919739	0.000000
860.953125	0.000000
860.986389	0.000000
861.019714	0.000000
861.053040	0.000000
861.086365	0.000000
861.119690	0.000000
861.153076	0.000000
861.186340	0.000000
861.219666	0.000000
861.252930	0.000000
861.286316	0.000000
861.319641	0.000000
861.352905	0.000000
861.386230	0.000000
861.419495	0.000000
861.452820	0.000000
861.486145	0.000000
861.519470	0.000000
861.552734	0.000000
861.586060	0.000000
861.619324	0.000000
861.652649	0.000000
861.685974	0.000000
861.719238	0.000000
861.752563	0.000000
861.785828	0.000000
861.819092	0.000000
861.852417	0.000000
861.885742	0.000000
861.918945	0.000000
861.952271	0.000000
861.985535	0.000000
862.018799	0.000000
862.052124	0.000000
862.085449	0.000000
862.118652	0.000000
862.151978	0.000000
862.185181	0.000000
862.218506	0.000000
862.251770	0.000000
862.285034	0.000000
862.318298	0.000000
862.351562	0.000000
862.384827	0.000000
862.418091	0.000000
862.451355	0.000000
862.484619	0.000000
862.517883	0.000000
862.551086	0.000000
862.584351	0.000000
862.617676	0.000000
862.650940	0.000000
862.684143	0.000000
862.717407	0.000000
862.750610	0.000000
862.783875	0.000000
862.817139	0.000000
862.850342	0.000000
862.883606	0.000000
862.916870	0.000000
862.950073	0.000000
862.983337	0.000000
863.016602	0.000000
863.049805	0.000000
863.083069	0.000000
863.116211	0.000000
863.149475	0.000000
863.182739	0.000000
863.216003	0.000000
863.249146	0.000000
863.282410	0.000000
863.315613	0.000000
863.348816	0.000000
863.382080	0.000000
863.415222	0.000000
863.448486	0.000000
863.481689	0.000000
863.514893	0.000000
863.548157	0.000000
863.581360	0.000000
863.614502	0.000000
863.647766	0.000000
863.680908	0.000000
863.714172	0.000000
863.747375	0.000000
863.780579	0.000000
863.813721	0.000000
863.846985	0.000000
863.880127	0.000000
863.913330	0.000000
863.946533	0.000000
863.979675	0.000000
864.012939	0.000000
