Model Number: SPM-001-M   
Serial Number: 10090201
Firmware Version: 004.17.6
Exposure Time: 500000.000000us
Data Taken on: 10-03-2021 12:00:01.466
Wavelength	Amplitude
733.770752	0.000000
733.808716	0.000000
733.846619	0.000000
733.884583	0.000000
733.922546	0.000000
733.960449	0.000000
733.998413	0.000000
734.036377	0.000000
734.074219	0.000000
734.112183	0.000000
734.150085	0.000000
734.188049	0.000000
734.226013	0.000000
734.263916	0.000000
734.301819	0.000000
734.339783	0.000000
734.377686	0.000000
734.415588	0.000000
734.453552	0.000000
734.491455	0.000000
734.529419	0.000000
734.567322	0.000000
734.605225	0.000000
734.643127	0.000000
734.681091	0.000000
734.718994	0.000000
734.756897	0.000000
734.794800	0.000000
734.832703	0.000000
734.870667	0.000000
734.908508	0.000000
734.946472	0.000000
734.984375	0.000000
735.022278	0.000000
735.060181	0.000000
735.098083	0.000000
735.135986	0.000000
735.173889	0.000000
735.211792	0.000000
735.249695	0.000000
735.287598	0.000000
735.325439	0.000000
735.363403	0.000000
735.401306	0.000000
735.439148	0.000000
735.477051	0.000000
735.515015	0.000000
735.552856	0.000000
735.590759	0.000000
735.628662	0.000000
735.666504	0.000000
735.704407	0.000000
735.742310	0.000000
735.780212	0.000000
735.818115	0.000000
735.856018	0.000000
735.893860	0.000000
735.931763	0.000000
735.969604	0.000000
736.007507	0.000000
736.045410	0.000000
736.083252	0.000000
736.121094	0.000000
736.158997	0.000000
736.196838	0.000000
736.234741	0.000000
736.272644	0.000000
736.310486	0.000000
736.348389	0.000000
736.386230	0.000000
736.424072	0.000000
736.461975	0.000000
736.499878	0.000000
736.537720	0.000000
736.575562	0.000000
736.613403	0.000000
736.651306	0.000000
736.689148	0.000000
736.726990	0.000000
736.764893	0.000000
736.802734	0.000000
736.840576	0.000000
736.878418	0.000000
736.916321	0.000000
736.954102	0.000000
736.992004	0.000000
737.029846	0.000000
737.067688	0.000000
737.105530	0.000000
737.143372	0.000000
737.181213	0.000000
737.219116	0.000000
737.256897	0.000000
737.294739	0.000000
737.332642	0.000000
737.370422	0.000000
737.408325	0.000000
737.446167	0.000000
737.483948	0.000000
737.521790	0.000000
737.559692	0.000000
737.597473	0.000000
737.635315	0.000000
737.673157	0.000000
737.710999	0.000000
737.748840	0.000000
737.786621	0.000000
737.824463	0.000000
737.862305	0.000000
737.900085	0.000000
737.937927	0.000000
737.975769	0.000000
738.013550	0.000000
738.051392	0.000000
738.089233	0.000000
738.127014	0.000000
738.164856	0.000000
738.202698	0.000000
738.240479	0.000000
738.278320	0.000000
738.316162	0.000000
738.353943	0.000000
738.391785	0.000000
738.429565	0.000000
738.467407	0.000000
738.505188	0.000000
738.542969	0.000000
738.580811	0.000000
738.618652	0.000000
738.656372	0.000000
738.694214	0.000000
738.732056	0.000000
738.769836	0.000000
738.807617	0.000000
738.845459	0.000000
738.883240	0.000000
738.921021	0.000000
738.958862	0.000000
738.996582	0.000000
739.034424	0.000000
739.072205	0.000000
739.109985	0.000000
739.147827	0.000000
739.185547	0.000000
739.223389	0.000000
739.261169	0.000000
739.298889	0.000000
739.336731	0.000000
739.374512	0.000000
739.412292	0.000000
739.450073	0.000000
739.487854	0.000000
739.525635	0.000000
739.563416	0.000000
739.601135	0.000000
739.638977	0.000000
739.676758	0.000000
739.714478	0.000000
739.752258	0.000000
739.790100	0.000000
739.827820	0.000000
739.865601	0.000000
739.903381	0.000000
739.941101	0.000000
739.978882	195.600000
740.016724	191.900000
740.054443	197.300000
740.092224	190.600000
740.130005	190.000000
740.167725	189.900000
740.205505	188.000000
740.243225	199.300000
740.281006	193.200000
740.318787	185.400000
740.356506	198.300000
740.394287	196.500000
740.432068	188.200000
740.469727	186.900000
740.507507	196.800000
740.545288	192.100000
740.583008	195.900000
740.620789	195.000000
740.658569	183.800000
740.696228	192.200000
740.734009	199.300000
740.771790	180.600000
740.809509	196.800000
740.847229	187.100000
740.884949	188.600000
740.922729	186.400000
740.960449	191.100000
740.998169	188.400000
741.035950	189.600000
741.073669	194.500000
741.111389	193.300000
741.149170	203.500000
741.186890	203.800000
741.224609	197.000000
741.262329	194.900000
741.300110	202.400000
741.337769	187.800000
741.375549	186.500000
741.413208	193.700000
741.450989	187.800000
741.488708	189.900000
741.526367	189.900000
741.564148	196.500000
741.601868	197.600000
741.639526	193.000000
741.677307	192.600000
741.715027	195.400000
741.752686	188.400000
741.790466	200.500000
741.828186	195.200000
741.865845	187.700000
741.903564	183.400000
741.941345	193.400000
741.979004	188.500000
742.016724	196.600000
742.054382	192.700000
742.092102	198.300000
742.129822	185.300000
742.167480	190.900000
742.205200	191.400000
742.242920	193.700000
742.280640	197.400000
742.318359	187.800000
742.356079	187.900000
742.393738	196.300000
742.431396	192.000000
742.469116	197.000000
742.506775	183.100000
742.544495	194.300000
742.582214	197.800000
742.619873	192.200000
742.657593	199.600000
742.695251	197.300000
742.732971	191.500000
742.770630	194.700000
742.808289	192.100000
742.846008	193.200000
742.883728	196.400000
742.921326	192.900000
742.959045	190.200000
742.996765	191.400000
743.034424	193.400000
743.072083	191.700000
743.109802	191.700000
743.147400	186.700000
743.185120	193.900000
743.222839	191.800000
743.260437	200.600000
743.298157	195.400000
743.335754	185.300000
743.373474	189.800000
743.411133	184.400000
743.448792	193.600000
743.486450	192.100000
743.524170	183.500000
743.561768	194.700000
743.599487	199.200000
743.637146	204.100000
743.674744	190.800000
743.712463	190.200000
743.750122	194.900000
743.787720	195.400000
743.825439	188.500000
743.863037	190.700000
743.900696	192.100000
743.938416	217.900000
743.976013	190.900000
744.013672	201.000000
744.051331	198.200000
744.088928	201.500000
744.126587	200.800000
744.164307	193.800000
744.201904	190.000000
744.239563	196.300000
744.277222	193.100000
744.314819	192.600000
744.352478	200.000000
744.390137	194.900000
744.427734	195.200000
744.465393	190.100000
744.502991	187.500000
744.540649	196.000000
744.578308	193.800000
744.615906	188.100000
744.653564	182.900000
744.691223	196.300000
744.728821	185.400000
744.766418	191.800000
744.804077	196.000000
744.841675	189.900000
744.879333	185.500000
744.916992	191.600000
744.954529	189.700000
744.992187	200.100000
745.029785	191.400000
745.067444	189.500000
745.105042	193.400000
745.142639	196.200000
745.180298	201.900000
745.217896	191.100000
745.255493	193.600000
745.293152	197.500000
745.330750	196.500000
745.368347	200.900000
745.405945	196.100000
745.443604	193.400000
745.481140	197.300000
745.518799	191.600000
745.556396	197.400000
745.593994	197.000000
745.631592	192.900000
745.669189	186.600000
745.706787	196.400000
745.744385	188.800000
745.781982	195.900000
745.819580	190.400000
745.857178	191.500000
745.894775	191.700000
745.932373	195.300000
745.969971	194.700000
746.007568	184.200000
746.045166	203.200000
746.082764	198.200000
746.120300	196.500000
746.157898	196.200000
746.195557	193.200000
746.233093	187.100000
746.270691	196.900000
746.308228	195.400000
746.345825	198.700000
746.383423	196.100000
746.420959	188.500000
746.458557	191.000000
746.496155	191.400000
746.533691	192.300000
746.571289	187.700000
746.608887	193.600000
746.646423	192.600000
746.684021	195.000000
746.721619	190.500000
746.759155	193.400000
746.796753	185.900000
746.834351	186.500000
746.871826	188.900000
746.909424	199.400000
746.946960	194.600000
746.984558	191.100000
747.022156	191.000000
747.059631	200.700000
747.097229	194.100000
747.134827	191.200000
747.172363	200.900000
747.209900	194.000000
747.247498	187.000000
747.285034	199.300000
747.322571	201.000000
747.360168	191.200000
747.397644	186.200000
747.435242	197.000000
747.472778	199.200000
747.510315	190.200000
747.547913	191.500000
747.585388	200.300000
747.622925	193.700000
747.660522	184.500000
747.697998	189.600000
747.735596	191.700000
747.773132	190.200000
747.810669	192.900000
747.848206	196.000000
747.885742	187.400000
747.923279	187.700000
747.960815	196.100000
747.998352	193.600000
748.035889	197.700000
748.073425	198.700000
748.110901	190.200000
748.148437	189.300000
748.185974	193.200000
748.223511	202.500000
748.261047	193.800000
748.298584	195.400000
748.336060	192.500000
748.373596	195.200000
748.411133	210.700000
748.448608	189.900000
748.486145	197.400000
748.523682	200.000000
748.561218	198.700000
748.598755	194.400000
748.636292	197.900000
748.673706	190.600000
748.711243	200.000000
748.748718	195.100000
748.786255	192.400000
748.823792	192.500000
748.861267	188.600000
748.898804	194.700000
748.936340	195.100000
748.973816	191.000000
749.011292	199.600000
749.048828	195.700000
749.086304	198.000000
749.123840	206.700000
749.161316	186.800000
749.198792	202.200000
749.236328	199.400000
749.273743	194.800000
749.311279	192.300000
749.348816	194.800000
749.386230	195.600000
749.423767	181.900000
749.461304	195.100000
749.498718	193.700000
749.536255	200.300000
749.573730	206.200000
749.611206	200.900000
749.648682	193.500000
749.686218	193.500000
749.723633	198.900000
749.761169	191.900000
749.798645	189.000000
749.836060	191.500000
749.873596	189.600000
749.911011	194.000000
749.948547	200.200000
749.986023	193.400000
750.023437	192.500000
750.060913	186.800000
750.098450	187.700000
750.135864	192.400000
750.173340	194.000000
750.210815	197.300000
750.248291	186.900000
750.285767	192.100000
750.323242	200.600000
750.360657	195.000000
750.398132	188.600000
750.435608	197.200000
750.473022	188.600000
750.510498	188.700000
750.547974	189.200000
750.585449	190.500000
750.622925	182.100000
750.660339	201.400000
750.697815	194.400000
750.735291	191.600000
750.772644	193.900000
750.810120	193.100000
750.847595	196.300000
750.885010	188.100000
750.922485	202.100000
750.959961	192.700000
750.997375	201.600000
751.034851	198.000000
751.072266	197.400000
751.109680	187.100000
751.147156	198.400000
751.184570	195.000000
751.221985	193.900000
751.259460	184.300000
751.296875	194.100000
751.334290	193.400000
751.371765	199.000000
751.409180	197.700000
751.446594	200.300000
751.484070	197.100000
751.521423	196.100000
751.558899	195.000000
751.596375	202.400000
751.633728	200.200000
751.671204	207.000000
751.708618	190.100000
751.746033	193.800000
751.783447	187.200000
751.820801	188.800000
751.858276	194.900000
751.895691	193.100000
751.933105	191.400000
751.970520	187.300000
752.007935	191.700000
752.045349	197.700000
752.082764	194.200000
752.120178	191.600000
752.157532	188.500000
752.195007	191.200000
752.232422	197.900000
752.269775	199.100000
752.307190	196.000000
752.344543	189.300000
752.382019	193.200000
752.419434	192.000000
752.456787	196.400000
752.494202	197.500000
752.531616	195.400000
752.568970	198.400000
752.606384	195.000000
752.643799	194.600000
752.681152	202.100000
752.718567	196.800000
752.755981	186.000000
752.793335	196.100000
752.830750	184.900000
752.868164	200.800000
752.905518	190.800000
752.942932	197.100000
752.980225	188.900000
753.017639	198.900000
753.055054	192.900000
753.092407	196.100000
753.129822	199.600000
753.167175	204.300000
753.204529	193.400000
753.241943	191.400000
753.279358	187.900000
753.316650	198.500000
753.354065	195.900000
753.391479	199.100000
753.428772	201.600000
753.466187	197.200000
753.503479	187.400000
753.540894	192.800000
753.578308	187.900000
753.615601	188.600000
753.653015	193.800000
753.690369	191.000000
753.727722	189.300000
753.765076	187.300000
753.802490	188.200000
753.839783	185.500000
753.877136	190.800000
753.914551	208.500000
753.951843	188.200000
753.989258	197.800000
754.026611	195.600000
754.063904	195.500000
754.101257	189.500000
754.138611	187.300000
754.175964	194.400000
754.213318	206.900000
754.250610	187.300000
754.288025	191.400000
754.325378	188.500000
754.362671	199.100000
754.400024	191.900000
754.437378	204.000000
754.474670	204.300000
754.512085	189.200000
754.549438	193.900000
754.586731	192.400000
754.624084	193.300000
754.661438	189.400000
754.698730	201.200000
754.736084	191.000000
754.773376	192.500000
754.810730	197.100000
754.848083	191.500000
754.885315	199.400000
754.922668	186.800000
754.960022	189.400000
754.997314	200.700000
755.034668	195.800000
755.072021	196.400000
755.109253	193.200000
755.146606	202.000000
755.183960	194.500000
755.221252	205.100000
755.258545	201.700000
755.295898	202.400000
755.333191	202.800000
755.370544	199.700000
755.407776	195.500000
755.445129	196.600000
755.482422	201.700000
755.519714	191.900000
755.557068	187.900000
755.594360	187.700000
755.631653	201.700000
755.668945	204.800000
755.706299	198.400000
755.743530	209.100000
755.780884	205.400000
755.818176	202.500000
755.855408	202.800000
755.892761	198.900000
755.930054	197.800000
755.967346	199.400000
756.004639	202.500000
756.041870	199.300000
756.079224	203.500000
756.116516	194.700000
756.153748	201.800000
756.191040	206.500000
756.228394	201.800000
756.265625	195.300000
756.302917	199.200000
756.340210	196.000000
756.377441	205.700000
756.414795	206.600000
756.452087	198.500000
756.489319	193.500000
756.526611	202.600000
756.563843	200.500000
756.601135	211.100000
756.638428	209.200000
756.675659	200.200000
756.712952	205.200000
756.750244	204.300000
756.787476	202.300000
756.824768	209.600000
756.862061	200.400000
756.899292	246.900000
756.936584	206.400000
756.973816	212.300000
757.011047	214.600000
757.048340	204.100000
757.085632	201.700000
757.122864	218.500000
757.160156	200.200000
757.197327	204.600000
757.234619	207.500000
757.271912	202.600000
757.309082	208.700000
757.346375	200.400000
757.383667	210.700000
757.420837	204.500000
757.458130	204.600000
757.495422	202.600000
757.532593	206.300000
757.569885	197.100000
757.607117	199.700000
757.644348	205.800000
757.681580	218.200000
757.718811	192.200000
757.756042	206.200000
757.793335	202.800000
757.830505	212.500000
757.867798	202.500000
757.905029	202.600000
757.942200	208.100000
757.979492	202.500000
758.016724	205.400000
758.053894	203.600000
758.091187	226.700000
758.128418	208.200000
758.165588	205.000000
758.202820	218.400000
758.240112	209.800000
758.277283	218.900000
758.314514	208.900000
758.351685	205.500000
758.388916	217.600000
758.426147	216.100000
758.463379	218.700000
758.500610	213.000000
758.537842	210.400000
758.575012	216.900000
758.612244	204.100000
758.649475	223.000000
758.686646	203.900000
758.723877	217.200000
758.761108	220.600000
758.798279	209.800000
758.835510	213.200000
758.872742	218.500000
758.909851	212.800000
758.947083	215.700000
758.984253	213.900000
759.021484	219.300000
759.058716	216.700000
759.095886	217.100000
759.133057	212.600000
759.170288	215.700000
759.207458	210.200000
759.244690	224.400000
759.281860	222.900000
759.319031	212.700000
759.356262	211.200000
759.393433	212.000000
759.430603	213.300000
759.467773	213.700000
759.505005	221.200000
759.542175	219.200000
759.579346	213.200000
759.616516	215.900000
759.653687	217.300000
759.690918	211.300000
759.728027	217.300000
759.765259	217.500000
759.802429	219.600000
759.839539	217.100000
759.876770	221.900000
759.913940	226.000000
759.951111	219.300000
759.988281	216.400000
760.025452	214.100000
760.062561	214.500000
760.099792	227.400000
760.136963	221.400000
760.174072	217.000000
760.211243	212.200000
760.248413	214.400000
760.285583	213.500000
760.322754	229.600000
760.359863	223.900000
760.397034	227.100000
760.434204	217.800000
760.471375	220.500000
760.508545	217.300000
760.545715	219.200000
760.582825	215.100000
760.619995	226.300000
760.657166	213.300000
760.694275	226.800000
760.731445	222.200000
760.768555	223.500000
760.805664	224.900000
760.842834	224.000000
760.879944	226.200000
760.917114	225.600000
760.954285	222.600000
760.991394	216.200000
761.028564	228.300000
761.065674	226.800000
761.102783	220.000000
761.139954	229.200000
761.177124	229.500000
761.214172	231.600000
761.251343	225.000000
761.288452	226.300000
761.325562	230.200000
761.362732	224.100000
761.399841	226.900000
761.436951	229.600000
761.474121	224.300000
761.511169	230.700000
761.548340	233.200000
761.585449	234.200000
761.622559	233.800000
761.659668	231.200000
761.696838	239.400000
761.733887	234.200000
761.771057	230.900000
761.808167	232.800000
761.845276	237.200000
761.882385	246.300000
761.919434	236.200000
761.956604	255.400000
761.993713	233.000000
762.030762	244.500000
762.067871	236.300000
762.105042	236.100000
762.142090	246.600000
762.179199	239.600000
762.216309	244.300000
762.253418	256.800000
762.290527	250.300000
762.327637	244.500000
762.364685	236.900000
762.401794	247.600000
762.438904	244.000000
762.475952	238.900000
762.513062	237.800000
762.550110	237.500000
762.587219	252.700000
762.624329	252.900000
762.661377	247.100000
762.698486	245.600000
762.735596	246.600000
762.772644	239.700000
762.809753	239.100000
762.846863	244.200000
762.883911	250.400000
762.921021	250.400000
762.958069	248.700000
762.995117	257.300000
763.032227	255.600000
763.069336	249.300000
763.106323	243.800000
763.143433	241.500000
763.180481	252.600000
763.217590	251.400000
763.254639	248.500000
763.291687	252.300000
763.328735	258.300000
763.365845	251.100000
763.402893	250.500000
763.439941	254.700000
763.477051	257.700000
763.514038	259.300000
763.551147	250.300000
763.588196	254.000000
763.625244	253.200000
763.662292	263.200000
763.699402	266.000000
763.736389	262.100000
763.773499	273.000000
763.810486	264.700000
763.847534	260.700000
763.884644	263.600000
763.921631	258.700000
763.958679	271.700000
763.995728	260.800000
764.032776	271.500000
764.069824	255.600000
764.106873	265.300000
764.143860	273.000000
764.180969	264.700000
764.218018	274.600000
764.255005	266.400000
764.292053	268.500000
764.329102	278.300000
764.366089	276.700000
764.403137	274.200000
764.440125	266.500000
764.477173	270.200000
764.514221	272.200000
764.551208	271.300000
764.588257	264.400000
764.625305	277.800000
764.662292	281.900000
764.699341	285.500000
764.736389	278.800000
764.773376	293.700000
764.810425	281.100000
764.847473	288.400000
764.884399	282.900000
764.921448	291.700000
764.958435	290.200000
764.995483	278.800000
765.032532	294.200000
765.069458	282.100000
765.106506	281.600000
765.143555	279.900000
765.180481	286.500000
765.217529	293.600000
765.254578	279.500000
765.291504	288.900000
765.328552	285.800000
765.365540	283.400000
765.402527	299.400000
765.439575	284.400000
765.476501	279.300000
765.513550	280.300000
765.550537	286.600000
765.587463	293.700000
765.624512	284.900000
765.661499	277.900000
765.698486	295.900000
765.735474	284.600000
765.772461	288.600000
765.809448	298.100000
765.846436	294.800000
765.883423	299.200000
765.920410	292.500000
765.957397	288.000000
765.994385	297.000000
766.031311	303.600000
766.068359	297.000000
766.105286	298.200000
766.142273	305.000000
766.179260	298.100000
766.216187	292.000000
766.253174	288.600000
766.290161	299.100000
766.327148	303.000000
766.364136	303.300000
766.401123	317.800000
766.438049	296.500000
766.475037	311.300000
766.512024	308.700000
766.548950	322.200000
766.585937	315.600000
766.622864	313.700000
766.659790	310.000000
766.696777	301.000000
766.733704	319.100000
766.770691	310.800000
766.807678	327.100000
766.844604	319.600000
766.881531	319.200000
766.918518	326.300000
766.955444	329.200000
766.992432	323.200000
767.029358	325.700000
767.066284	329.400000
767.103271	326.300000
767.140198	354.300000
767.177124	344.600000
767.214050	334.900000
767.251038	335.800000
767.287964	332.600000
767.324890	329.700000
767.361816	337.900000
767.398743	342.200000
767.435730	336.300000
767.472595	340.400000
767.509583	346.900000
767.546509	336.000000
767.583374	343.400000
767.620361	334.600000
767.657288	343.700000
767.694214	342.600000
767.731140	344.000000
767.768066	344.000000
767.804993	350.900000
767.841919	340.700000
767.878845	349.100000
767.915710	357.800000
767.952698	351.600000
767.989563	353.300000
768.026489	356.100000
768.063416	349.200000
768.100281	350.000000
768.137207	361.700000
768.174133	361.700000
768.211060	361.500000
768.247986	361.200000
768.284912	361.800000
768.321777	362.300000
768.358704	360.700000
768.395630	367.400000
768.432495	359.600000
768.469421	366.100000
768.506348	371.900000
768.543152	379.300000
768.580078	376.300000
768.616943	379.500000
768.653870	380.700000
768.690796	380.200000
768.727661	377.500000
768.764587	379.800000
768.801453	375.600000
768.838318	385.300000
768.875244	382.600000
768.912109	389.800000
768.948975	381.500000
768.985901	384.600000
769.022766	385.600000
769.059631	391.100000
769.096558	386.300000
769.133362	389.200000
769.170288	389.700000
769.207214	389.300000
769.244019	397.300000
769.280945	395.100000
769.317810	404.000000
769.354675	402.100000
769.391541	406.200000
769.428406	404.900000
769.465271	415.000000
769.502136	405.100000
769.539062	407.400000
769.575867	406.500000
769.612732	409.600000
769.649597	416.000000
769.686462	421.400000
769.723328	415.400000
769.760193	411.200000
769.797058	414.000000
769.833923	425.100000
769.870728	420.300000
769.907593	425.300000
769.944519	424.900000
769.981323	426.600000
770.018188	429.800000
770.055054	424.600000
770.091858	423.400000
770.128723	437.100000
770.165588	444.800000
770.202393	426.100000
770.239258	438.800000
770.276062	433.300000
770.312927	437.600000
770.349792	443.600000
770.386597	442.400000
770.423462	448.500000
770.460327	455.800000
770.497131	442.800000
770.533997	434.000000
770.570862	451.800000
770.607605	453.400000
770.644470	446.800000
770.681335	450.500000
770.718140	448.700000
770.754944	440.400000
770.791809	441.400000
770.828613	447.000000
770.865479	446.300000
770.902222	458.800000
770.939087	449.300000
770.975952	440.400000
771.012695	444.400000
771.049561	461.800000
771.086365	448.800000
771.123169	445.900000
771.159973	453.700000
771.196838	451.100000
771.233582	453.900000
771.270447	456.400000
771.307251	458.900000
771.344055	456.400000
771.380859	462.000000
771.417664	452.400000
771.454468	463.200000
771.491272	462.600000
771.528076	463.200000
771.564880	461.700000
771.601685	473.300000
771.638428	462.900000
771.675293	470.400000
771.712097	458.900000
771.748840	478.200000
771.785645	470.700000
771.822449	474.100000
771.859253	479.700000
771.896057	475.400000
771.932861	486.700000
771.969604	476.200000
772.006409	470.200000
772.043213	488.300000
772.079956	480.300000
772.116760	474.900000
772.153503	480.200000
772.190308	491.200000
772.227112	481.700000
772.263855	478.100000
772.300659	486.700000
772.337463	494.200000
772.374207	484.200000
772.411011	482.900000
772.447754	486.100000
772.484497	505.000000
772.521301	499.900000
772.558105	499.300000
772.594849	498.900000
772.631592	504.600000
772.668396	505.200000
772.705139	513.800000
772.741882	511.100000
772.778625	523.700000
772.815430	530.500000
772.852173	522.300000
772.888916	528.600000
772.925720	533.000000
772.962463	542.800000
772.999207	536.400000
773.035950	542.600000
773.072754	545.200000
773.109436	538.700000
773.146240	539.100000
773.182922	539.000000
773.219727	553.300000
773.256470	549.200000
773.293152	536.600000
773.329956	544.100000
773.366699	548.600000
773.403381	540.400000
773.440186	553.800000
773.476929	554.700000
773.513611	548.500000
773.550354	553.100000
773.587158	551.900000
773.623840	547.300000
773.660583	559.100000
773.697327	576.100000
773.734009	563.000000
773.770813	562.200000
773.807495	558.200000
773.844238	563.700000
773.880981	583.000000
773.917664	582.800000
773.954407	584.500000
773.991150	573.500000
774.027832	581.500000
774.064575	574.100000
774.101318	582.300000
774.138000	592.300000
774.174744	587.200000
774.211487	593.000000
774.248108	582.300000
774.284851	583.200000
774.321594	593.400000
774.358276	600.300000
774.395020	610.200000
774.431702	605.700000
774.468384	602.500000
774.505127	594.000000
774.541809	608.300000
774.578491	622.400000
774.615234	624.600000
774.651917	616.400000
774.688599	622.900000
774.725342	630.200000
774.762024	627.900000
774.798706	632.500000
774.835449	634.900000
774.872070	643.200000
774.908813	636.100000
774.945496	636.200000
774.982178	634.200000
775.018860	644.400000
775.055542	644.200000
775.092224	646.800000
775.128967	653.000000
775.165588	649.000000
775.202271	642.800000
775.239014	657.800000
775.275635	658.900000
775.312317	655.800000
775.349060	660.500000
775.385681	658.800000
775.422363	651.600000
775.459045	664.600000
775.495667	668.900000
775.532410	672.200000
775.569092	675.600000
775.605713	674.700000
775.642395	669.200000
775.679016	673.300000
775.715698	677.700000
775.752380	683.000000
775.789001	678.500000
775.825684	674.100000
775.862366	677.400000
775.898987	685.700000
775.935669	676.300000
775.972351	702.000000
776.008972	700.300000
776.045654	695.000000
776.082336	689.100000
776.118958	689.900000
776.155640	693.700000
776.192322	707.900000
776.228882	708.800000
776.265564	703.600000
776.302185	701.200000
776.338867	704.900000
776.375488	691.100000
776.412109	707.900000
776.448792	717.000000
776.485413	721.900000
776.522034	708.500000
776.558716	699.700000
776.595337	703.400000
776.631958	710.200000
776.668579	712.800000
776.705261	716.500000
776.741882	708.900000
776.778503	709.100000
776.815186	699.200000
776.851746	716.100000
776.888367	713.500000
776.924988	727.300000
776.961609	711.300000
776.998291	709.600000
777.034851	703.300000
777.071472	719.800000
777.108154	720.000000
777.144714	727.500000
777.181335	727.000000
777.218018	720.000000
777.254578	726.600000
777.291199	725.500000
777.327759	733.700000
777.364380	740.000000
777.401062	748.200000
777.437622	757.000000
777.474243	742.600000
777.510864	756.000000
777.547424	752.100000
777.584045	751.400000
777.620667	755.300000
777.657227	763.500000
777.693848	763.800000
777.730469	777.500000
777.767029	768.500000
777.803650	771.500000
777.840271	763.900000
777.876831	765.600000
777.913452	773.600000
777.950012	753.800000
777.986633	757.300000
778.023193	756.400000
778.059753	757.600000
778.096375	760.000000
778.132996	774.700000
778.169556	761.500000
778.206116	766.300000
778.242737	765.800000
778.279297	774.100000
778.315857	762.300000
778.352478	772.400000
778.389038	786.400000
778.425598	786.400000
778.462219	799.700000
778.498718	796.000000
778.535339	801.200000
778.571838	801.500000
778.608459	807.700000
778.645020	804.300000
778.681580	820.300000
778.718140	822.100000
778.754761	816.200000
778.791260	824.500000
778.827881	836.600000
778.864441	832.400000
778.900940	835.400000
778.937561	833.700000
778.974121	833.800000
779.010620	820.700000
779.047241	830.800000
779.083801	843.800000
779.120300	839.800000
779.156860	847.900000
779.193359	848.600000
779.229980	845.400000
779.266541	852.900000
779.303040	858.200000
779.339600	847.200000
779.376160	843.700000
779.412659	853.900000
779.449219	846.900000
779.485779	856.500000
779.522278	856.500000
779.558838	865.800000
779.595398	867.900000
779.631897	865.600000
779.668457	859.100000
779.705017	874.200000
779.741516	860.600000
779.778076	854.700000
779.814575	867.900000
779.851074	877.700000
779.887634	869.900000
779.924133	876.100000
779.960693	863.100000
779.997253	880.200000
780.033691	882.800000
780.070251	889.300000
780.106812	902.500000
780.143250	891.800000
780.179810	888.200000
780.216370	896.500000
780.252808	908.500000
780.289368	921.300000
780.325867	923.000000
780.362366	915.900000
780.398865	931.400000
780.435364	920.300000
780.471863	939.300000
780.508423	933.300000
780.544861	940.500000
780.581421	949.800000
780.617920	936.600000
780.654419	937.700000
780.690918	945.800000
780.727417	955.000000
780.763916	955.400000
780.800415	961.300000
780.836914	941.000000
780.873352	945.800000
780.909912	939.200000
780.946411	948.400000
780.982849	960.000000
781.019348	980.900000
781.055786	969.800000
781.092346	964.300000
781.128845	972.900000
781.165283	980.700000
781.201782	985.200000
781.238281	993.600000
781.274719	997.400000
781.311218	984.300000
781.347717	997.500000
781.384155	985.200000
781.420654	986.600000
781.457092	1001.900000
781.493591	1002.700000
781.530090	989.800000
781.566528	993.600000
781.602966	998.900000
781.639465	997.500000
781.675903	988.400000
781.712402	1007.700000
781.748901	1012.300000
781.785278	999.800000
781.821777	1004.400000
781.858276	999.900000
781.894714	1015.200000
781.931152	1009.200000
781.967651	1014.100000
782.004089	1005.900000
782.040527	1018.200000
782.076965	1025.600000
782.113403	1022.000000
782.149902	1026.000000
782.186340	1017.500000
782.222778	1033.500000
782.259277	1011.800000
782.295654	1008.200000
782.332092	1019.800000
782.368591	1019.400000
782.404968	1008.300000
782.441467	1012.000000
782.477905	1017.800000
782.514282	1013.000000
782.550781	1034.700000
782.587219	1030.700000
782.623596	1027.900000
782.660095	1038.100000
782.696472	1040.100000
782.732910	1045.200000
782.769348	1050.500000
782.805786	1065.200000
782.842224	1059.400000
782.878662	1051.500000
782.915039	1052.500000
782.951477	1057.700000
782.987915	1050.600000
783.024292	1065.400000
783.060730	1058.300000
783.097168	1047.000000
783.133545	1035.900000
783.169983	1035.000000
783.206421	1025.300000
783.242798	1027.400000
783.279236	1016.900000
783.315613	1008.500000
783.352051	999.300000
783.388489	991.100000
783.424866	983.300000
783.461304	988.000000
783.497681	991.300000
783.534058	986.200000
783.570496	983.100000
783.606934	977.400000
783.643250	982.100000
783.679687	993.700000
783.716125	987.800000
783.752441	1001.600000
783.788879	1028.400000
783.825317	1027.100000
783.861633	1032.000000
783.898071	1025.700000
783.934448	1034.100000
783.970825	1014.000000
784.007263	946.900000
784.043579	813.400000
784.080017	653.400000
784.116394	482.800000
784.152710	370.200000
784.189148	326.200000
784.225525	320.500000
784.261902	350.700000
784.298279	434.500000
784.334656	579.500000
784.371033	744.100000
784.407410	901.200000
784.443787	989.200000
784.480164	1021.700000
784.516541	1014.100000
784.552856	1027.400000
784.589233	1021.000000
784.625610	1017.500000
784.661987	1056.300000
784.698364	1042.000000
784.734741	1032.600000
784.771057	1030.800000
784.807434	1042.500000
784.843811	1063.700000
784.880127	1059.800000
784.916504	1096.300000
784.952881	1099.800000
784.989197	1089.600000
785.025574	1082.300000
785.061951	1096.700000
785.098267	1130.700000
785.134644	1126.900000
785.170959	1123.800000
785.207275	1127.500000
785.243652	1130.500000
785.279968	1115.800000
785.316345	1124.000000
785.352722	1132.900000
785.388977	1132.700000
785.425354	1116.300000
785.461731	1095.600000
785.498047	1088.000000
785.534363	1077.000000
785.570679	1076.200000
785.606995	1080.900000
785.643372	1083.400000
785.679687	1074.400000
785.716003	1061.700000
785.752380	1059.000000
785.788635	1073.100000
785.825012	1092.800000
785.861328	1103.200000
785.897644	1081.800000
785.933960	1100.400000
785.970337	1112.800000
786.006592	1127.300000
786.042908	1135.100000
786.079285	1157.900000
786.115540	1163.500000
786.151855	1162.100000
786.188171	1155.700000
786.224487	1157.600000
786.260803	1158.900000
786.297119	1177.100000
786.333435	1179.700000
786.369751	1173.700000
786.406006	1174.800000
786.442322	1154.300000
786.478638	1143.500000
786.514954	1163.800000
786.551270	1160.700000
786.587585	1171.300000
786.623840	1151.600000
786.660156	1142.800000
786.696472	1130.500000
786.732727	1132.300000
786.769043	1136.600000
786.805298	1129.000000
786.841614	1131.400000
786.877930	1134.900000
786.914124	1118.900000
786.950439	1127.000000
786.986755	1139.100000
787.023010	1161.500000
787.059326	1170.500000
787.095642	1165.100000
787.131836	1177.900000
787.168152	1165.800000
787.204468	1170.300000
787.240723	1200.800000
787.276978	1219.800000
787.313293	1226.700000
787.349548	1221.400000
787.385803	1218.900000
787.422058	1211.400000
787.458313	1216.000000
787.494629	1217.500000
787.530823	1215.600000
787.567139	1202.800000
787.603455	1192.600000
787.639648	1176.500000
787.675903	1178.900000
787.712219	1182.500000
787.748413	1180.500000
787.784729	1183.200000
787.820984	1177.400000
787.857178	1162.100000
787.893494	1150.300000
787.929749	1147.200000
787.965942	1157.900000
788.002258	1167.500000
788.038452	1176.400000
788.074707	1163.700000
788.110962	1167.800000
788.147217	1162.400000
788.183472	1177.500000
788.219727	1189.900000
788.255920	1206.200000
788.292175	1210.700000
788.328430	1208.800000
788.364624	1184.600000
788.400879	1178.400000
788.437134	1184.800000
788.473328	1185.200000
788.509583	1179.300000
788.545837	1174.600000
788.582031	1170.300000
788.618286	1157.300000
788.654480	1156.100000
788.690735	1164.900000
788.726990	1185.600000
788.763184	1185.300000
788.799377	1191.400000
788.835632	1181.400000
788.871826	1202.800000
788.908081	1201.600000
788.944336	1200.000000
788.980469	1219.200000
789.016724	1208.600000
789.052979	1204.900000
789.089111	1187.000000
789.125366	1191.600000
789.161621	1171.200000
789.197754	1183.500000
789.234009	1171.400000
789.270142	1160.100000
789.306396	1153.700000
789.342590	1137.500000
789.378784	1112.300000
789.414978	1113.900000
789.451233	1131.900000
789.487366	1131.200000
789.523621	1141.600000
789.559814	1129.800000
789.595947	1121.600000
789.632202	1128.500000
789.668335	1141.000000
789.704529	1160.900000
789.740784	1182.900000
789.776917	1179.500000
789.813110	1167.800000
789.849304	1186.800000
789.885498	1189.200000
789.921692	1204.900000
789.957886	1209.100000
789.994019	1210.000000
790.030212	1203.200000
790.066406	1201.800000
790.102539	1196.200000
790.138733	1201.900000
790.174927	1202.000000
790.211060	1217.800000
790.247253	1198.600000
790.283386	1187.500000
790.319580	1173.600000
790.355774	1155.200000
790.391907	1161.100000
790.428101	1187.600000
790.464294	1192.900000
790.500427	1189.500000
790.536621	1172.400000
790.572754	1156.100000
790.608887	1159.600000
790.645081	1173.300000
790.681274	1184.900000
790.717346	1181.300000
790.753540	1143.300000
790.789734	1065.600000
790.825867	1009.300000
790.862000	1018.400000
790.898132	1062.700000
790.934265	1123.200000
790.970459	1184.100000
791.006592	1200.700000
791.042725	1204.500000
791.078918	1198.200000
791.114990	1204.000000
791.151184	1215.600000
791.187317	1241.100000
791.223389	1232.800000
791.259583	1218.000000
791.295715	1216.500000
791.331848	1226.000000
791.367981	1238.100000
791.404114	1245.200000
791.440247	1240.800000
791.476379	1244.200000
791.512451	1223.600000
791.548584	1221.500000
791.584778	1212.400000
791.620850	1245.300000
791.656982	1245.500000
791.693115	1240.800000
791.729187	1235.300000
791.765381	1224.900000
791.801514	1222.900000
791.837585	1219.300000
791.873718	1234.700000
791.909851	1245.400000
791.945923	1258.100000
791.982056	1222.300000
792.018188	1218.300000
792.054260	1220.600000
792.090393	1223.300000
792.126465	1219.700000
792.162598	1232.200000
792.198669	1216.100000
792.234741	1203.100000
792.270874	1197.400000
792.307007	1183.400000
792.343079	1190.700000
792.379150	1209.800000
792.415283	1185.900000
792.451355	1194.600000
792.487488	1171.300000
792.523560	1171.700000
792.559631	1170.600000
792.595764	1170.700000
792.631836	1174.700000
792.667908	1187.600000
792.703979	1162.300000
792.740051	1161.900000
792.776184	1166.300000
792.812256	1169.300000
792.848328	1180.200000
792.884399	1186.900000
792.920471	1182.700000
792.956543	1171.700000
792.992615	1172.800000
793.028748	1172.600000
793.064758	1177.700000
793.100830	1200.200000
793.136963	1213.800000
793.172974	1201.100000
793.209045	1194.700000
793.245178	1209.500000
793.281189	1192.400000
793.317261	1201.200000
793.353271	1202.100000
793.389404	1205.900000
793.425476	1197.500000
793.461487	1185.900000
793.497559	1180.900000
793.533630	1186.400000
793.569641	1190.000000
793.605713	1194.300000
793.641785	1201.900000
793.677795	1202.800000
793.713867	1193.200000
793.749878	1195.500000
793.785950	1211.000000
793.822021	1216.500000
793.858032	1200.100000
793.894104	1212.100000
793.930176	1197.200000
793.966187	1200.700000
794.002258	1185.000000
794.038269	1186.200000
794.074280	1185.600000
794.110352	1208.300000
794.146423	1181.500000
794.182373	1172.700000
794.218445	1164.900000
794.254517	1153.700000
794.290466	1141.100000
794.326538	1155.600000
794.362549	1156.500000
794.398560	1163.000000
794.434631	1162.500000
794.470581	1126.700000
794.506653	1116.700000
794.542664	1123.200000
794.578674	1126.500000
794.614685	1124.100000
794.650757	1122.400000
794.686707	1115.600000
794.722778	1104.600000
794.758789	1114.200000
794.794739	1117.600000
794.830811	1143.200000
794.866821	1162.700000
794.902771	1151.400000
794.938843	1137.500000
794.974792	1136.200000
795.010803	1137.500000
795.046814	1138.600000
795.082825	1127.300000
795.118835	1142.000000
795.154846	1120.700000
795.190796	1125.700000
795.226807	1100.700000
795.262817	1102.100000
795.298767	1105.300000
795.334778	1110.000000
795.370850	1096.700000
795.406799	1092.900000
795.442810	1069.400000
795.478821	1069.100000
795.514709	1074.000000
795.550720	1097.400000
795.586670	1077.700000
795.622681	1084.500000
795.658691	1079.400000
795.694641	1076.200000
795.730652	1060.400000
795.766663	1059.500000
795.802551	1069.100000
795.838562	1090.300000
795.874573	1075.000000
795.910522	1069.600000
795.946472	1058.700000
795.982483	1062.600000
796.018433	1067.600000
796.054382	1073.800000
796.090393	1059.800000
796.126282	1054.500000
796.162292	1042.300000
796.198242	1037.000000
796.234192	1041.600000
796.270203	1041.100000
796.306091	1046.400000
796.342041	1060.200000
796.378052	1046.400000
796.413940	1039.000000
796.449951	1041.400000
796.485901	1041.700000
796.521790	1041.400000
796.557800	1057.400000
796.593689	1054.900000
796.629639	1041.200000
796.665649	1033.900000
796.701599	1035.600000
796.737488	1034.600000
796.773437	1037.600000
796.809387	1033.200000
796.845337	1037.500000
796.881287	1023.400000
796.917175	1006.900000
796.953125	1005.700000
796.989075	1017.700000
797.024963	1027.400000
797.060913	1021.500000
797.096863	1023.200000
797.132751	1009.000000
797.168701	993.800000
797.204590	995.900000
797.240540	999.700000
797.276489	1009.100000
797.312439	1018.900000
797.348328	1003.700000
797.384277	997.900000
797.420166	990.700000
797.456055	989.000000
797.492004	981.800000
797.527893	987.900000
797.563843	1002.400000
797.599731	988.800000
797.635620	973.800000
797.671570	977.900000
797.707520	971.900000
797.743347	978.100000
797.779297	992.900000
797.815125	982.800000
797.851074	969.500000
797.887024	959.000000
797.922913	955.000000
797.958801	969.300000
797.994690	969.300000
798.030579	972.800000
798.066467	977.000000
798.102356	965.000000
798.138245	955.000000
798.174133	950.900000
798.210083	963.300000
798.245911	967.500000
798.281799	968.000000
798.317749	964.900000
798.353577	951.900000
798.389465	953.100000
798.425293	945.500000
798.461243	943.000000
798.497131	950.000000
798.532959	947.600000
798.568848	948.600000
798.604736	939.200000
798.640564	925.900000
798.676453	924.000000
798.712402	931.000000
798.748230	940.400000
798.784119	937.300000
798.820007	936.100000
798.855835	931.900000
798.891724	925.900000
798.927551	922.800000
798.963379	928.600000
798.999268	923.200000
799.035095	926.000000
799.070984	914.500000
799.106873	900.400000
799.142700	913.100000
799.178528	902.300000
799.214417	905.500000
799.250244	922.300000
799.286133	913.200000
799.321960	899.200000
799.357788	900.100000
799.393677	904.500000
799.429504	899.700000
799.465332	902.900000
799.501221	915.400000
799.537048	905.200000
799.572876	895.000000
799.608704	896.400000
799.644531	901.900000
799.680359	901.900000
799.716248	915.200000
799.752014	917.600000
799.787903	901.400000
799.823730	899.700000
799.859558	891.800000
799.895386	894.500000
799.931213	894.900000
799.967041	888.500000
800.002869	881.900000
800.038696	889.600000
800.074463	869.000000
800.110352	871.100000
800.146179	863.200000
800.181946	874.300000
800.217773	874.000000
800.253540	867.200000
800.289429	865.200000
800.325256	857.300000
800.361023	845.200000
800.396851	854.400000
800.432678	860.300000
800.468445	858.000000
800.504272	851.400000
800.540100	833.400000
800.575867	829.400000
800.611694	835.000000
800.647461	826.300000
800.683289	829.800000
800.719116	833.700000
800.754883	830.400000
800.790649	811.200000
800.826477	804.000000
800.862244	822.200000
800.898071	806.300000
800.933838	800.700000
800.969604	799.100000
801.005432	795.400000
801.041199	800.000000
801.076965	792.300000
801.112793	780.500000
801.148560	775.600000
801.184326	779.200000
801.220154	781.100000
801.255859	768.900000
801.291687	765.200000
801.327454	758.400000
801.363281	754.900000
801.398987	755.300000
801.434814	764.500000
801.470520	768.900000
801.506287	752.700000
801.542114	746.400000
801.577820	748.800000
801.613647	749.900000
801.649414	741.900000
801.685120	744.300000
801.720886	752.200000
801.756714	739.500000
801.792419	727.400000
801.828186	726.000000
801.863892	735.000000
801.899719	724.800000
801.935486	724.300000
801.971252	728.800000
802.006958	721.300000
802.042725	713.100000
802.078430	717.300000
802.114197	710.300000
802.149963	728.300000
802.185669	713.000000
802.221436	709.100000
802.257202	711.300000
802.292908	707.300000
802.328674	711.700000
802.364441	711.600000
802.400146	707.600000
802.435913	700.100000
802.471558	698.500000
802.507324	697.700000
802.543091	686.000000
802.578796	698.200000
802.614502	700.600000
802.650269	703.900000
802.685974	685.000000
802.721741	683.300000
802.757446	690.700000
802.793152	686.500000
802.828918	696.400000
802.864624	692.500000
802.900330	688.600000
802.936035	684.900000
802.971802	680.300000
803.007446	677.500000
803.043213	669.200000
803.078857	674.500000
803.114624	660.800000
803.150330	666.800000
803.185974	659.100000
803.221741	656.300000
803.257446	668.500000
803.293152	666.500000
803.328857	657.600000
803.364563	651.800000
803.400208	648.400000
803.435974	657.400000
803.471680	649.700000
803.507324	642.200000
803.543030	648.000000
803.578735	652.600000
803.614441	638.800000
803.650146	648.500000
803.685791	635.100000
803.721497	635.400000
803.757202	627.400000
803.792847	634.600000
803.828552	625.000000
803.864258	623.000000
803.899902	627.400000
803.935608	609.300000
803.971313	616.100000
804.006958	614.600000
804.042664	611.300000
804.078308	618.800000
804.113953	611.400000
804.149658	616.000000
804.185364	604.400000
804.221008	613.700000
804.256714	603.500000
804.292297	604.400000
804.328003	597.100000
804.363708	591.500000
804.399292	592.200000
804.434998	593.000000
804.470703	583.100000
804.506287	596.800000
804.541992	591.300000
804.577637	593.900000
804.613281	583.300000
804.648926	577.800000
804.684570	582.900000
804.720215	581.100000
804.755920	577.700000
804.791565	569.100000
804.827209	578.300000
804.862854	573.800000
804.898437	564.000000
804.934143	565.900000
804.969788	564.800000
805.005371	566.400000
805.041077	569.200000
805.076721	567.000000
805.112305	557.300000
805.147949	556.100000
805.183655	552.700000
805.219238	558.000000
805.254883	555.500000
805.290466	560.200000
805.326111	554.700000
805.361755	541.800000
805.397400	548.300000
805.432983	556.100000
805.468628	551.500000
805.504211	555.200000
805.539856	554.700000
805.575500	558.100000
805.611084	551.000000
805.646729	536.400000
805.682373	540.100000
805.717957	553.400000
805.753601	551.300000
805.789246	533.200000
805.824768	547.700000
805.860413	547.700000
805.895996	537.400000
805.931641	535.800000
805.967224	544.100000
806.002869	535.100000
806.038452	544.900000
806.074036	542.000000
806.109619	526.800000
806.145264	524.300000
806.180847	526.100000
806.216431	523.400000
806.252014	528.600000
806.287659	526.500000
806.323181	534.500000
806.358826	528.400000
806.394409	508.300000
806.429993	513.100000
806.465576	524.900000
806.501160	510.100000
806.536743	503.100000
806.572327	513.300000
806.607910	509.100000
806.643494	512.300000
806.679077	506.400000
806.714661	506.500000
806.750244	507.600000
806.785828	495.400000
806.821350	499.300000
806.856934	503.400000
806.892517	497.900000
806.928101	490.600000
806.963684	491.200000
806.999268	500.900000
807.034790	482.800000
807.070374	491.700000
807.105896	482.600000
807.141479	482.100000
807.177063	487.400000
807.212585	477.800000
807.248169	477.700000
807.283752	483.200000
807.319275	478.400000
807.354858	478.600000
807.390381	473.500000
807.425903	472.500000
807.461487	467.100000
807.497070	462.200000
807.532593	466.300000
807.568115	462.600000
807.603699	460.400000
807.639221	455.500000
807.674744	459.100000
807.710266	464.400000
807.745850	464.700000
807.781372	456.300000
807.816895	452.500000
807.852417	456.100000
807.888000	454.300000
807.923523	450.000000
807.959045	455.400000
807.994629	443.600000
808.030090	441.000000
808.065613	446.900000
808.101135	449.000000
808.136658	445.300000
808.172241	442.300000
808.207764	439.800000
808.243225	433.800000
808.278809	430.400000
808.314270	438.100000
808.349792	425.800000
808.385315	425.700000
808.420837	431.600000
808.456360	436.000000
808.491882	433.100000
808.527344	427.100000
808.562866	439.000000
808.598389	427.400000
808.633850	421.100000
808.669434	420.800000
808.704895	430.100000
808.740417	432.900000
808.775940	421.700000
808.811462	417.400000
808.846924	410.300000
808.882385	407.000000
808.917847	405.900000
808.953369	408.500000
808.988892	400.900000
809.024353	410.000000
809.059875	410.300000
809.095398	406.900000
809.130798	401.100000
809.166321	399.000000
809.201843	399.600000
809.237305	400.400000
809.272766	408.600000
809.308228	390.800000
809.343750	393.900000
809.379211	391.900000
809.414734	391.900000
809.450134	402.200000
809.485657	383.300000
809.521118	391.100000
809.556580	388.900000
809.592102	387.600000
809.627502	385.100000
809.663025	382.400000
809.698486	379.100000
809.733887	375.100000
809.769409	379.300000
809.804871	367.100000
809.840271	370.700000
809.875793	374.900000
809.911194	377.700000
809.946655	369.100000
809.982178	363.500000
810.017639	365.500000
810.053040	366.400000
810.088501	363.700000
810.123901	363.000000
810.159424	360.200000
810.194885	356.300000
810.230286	360.500000
810.265747	354.900000
810.301208	353.600000
810.336609	355.500000
810.372070	347.600000
810.407532	354.300000
810.442932	352.900000
810.478394	356.700000
810.513794	354.700000
810.549255	349.200000
810.584717	346.800000
810.620117	342.200000
810.655518	349.900000
810.690979	346.400000
810.726379	347.200000
810.761841	335.200000
810.797302	337.600000
810.832642	334.500000
810.868103	347.700000
810.903564	336.500000
810.938904	344.400000
810.974365	329.100000
811.009827	337.100000
811.045166	331.900000
811.080627	323.400000
811.115967	331.400000
811.151428	336.800000
811.186829	330.300000
811.222229	329.400000
811.257629	323.300000
811.293091	329.100000
811.328430	336.800000
811.363892	329.000000
811.399292	331.500000
811.434631	326.700000
811.470093	329.500000
811.505493	322.000000
811.540833	323.400000
811.576294	328.900000
811.611694	323.100000
811.647034	319.300000
811.682434	320.200000
811.717773	320.600000
811.753235	326.700000
811.788635	317.700000
811.823975	319.100000
811.859375	327.900000
811.894775	313.000000
811.930115	314.300000
811.965515	316.200000
812.000916	319.600000
812.036255	312.500000
812.071655	318.500000
812.106995	310.100000
812.142395	311.900000
812.177795	317.400000
812.213196	314.800000
812.248474	315.100000
812.283875	307.000000
812.319214	310.200000
812.354614	310.700000
812.390015	307.400000
812.425293	308.200000
812.460693	308.100000
812.496094	303.600000
812.531433	296.200000
812.566772	297.000000
812.602173	302.100000
812.637451	303.400000
812.672852	297.400000
812.708191	304.700000
812.743530	296.500000
812.778931	289.600000
812.814270	295.100000
812.849609	302.200000
812.884949	294.800000
812.920227	287.800000
812.955627	305.200000
812.990967	295.200000
813.026306	290.900000
813.061646	279.600000
813.096985	277.200000
813.132324	275.700000
813.167664	282.700000
813.203003	286.900000
813.238281	273.000000
813.273682	274.500000
813.308960	272.600000
813.344299	274.100000
813.379639	282.900000
813.414978	275.200000
813.450256	274.400000
813.485596	280.200000
813.520874	270.600000
813.556213	273.400000
813.591614	277.700000
813.626831	269.300000
813.662170	274.100000
813.697510	284.700000
813.732788	267.900000
813.768127	273.300000
813.803467	274.100000
813.838745	267.200000
813.874084	272.500000
813.909363	270.700000
813.944641	270.700000
813.979980	260.400000
814.015320	267.000000
814.050598	264.000000
814.085876	269.100000
814.121155	265.600000
814.156494	263.900000
814.191772	264.900000
814.227051	261.400000
814.262390	263.500000
814.297668	263.300000
814.332947	264.800000
814.368225	256.500000
814.403564	260.600000
814.438782	257.200000
814.474121	259.300000
814.509338	256.200000
814.544617	263.600000
814.579956	253.400000
814.615173	266.600000
814.650513	261.200000
814.685791	252.900000
814.721008	257.200000
814.756348	256.800000
814.791626	252.100000
814.826843	253.200000
814.862122	252.100000
814.897400	250.300000
814.932678	253.700000
814.967957	252.700000
815.003235	251.200000
815.038452	246.100000
815.073730	243.000000
815.108948	254.500000
815.144226	251.700000
815.179504	255.700000
815.214722	238.900000
815.250000	237.600000
815.285278	246.700000
815.320496	239.900000
815.355774	245.400000
815.391052	247.100000
815.426270	243.700000
815.461487	240.700000
815.496765	238.200000
815.531982	233.100000
815.567261	239.400000
815.602539	248.900000
815.637695	241.900000
815.672974	243.500000
815.708191	243.500000
815.743408	244.800000
815.778687	236.900000
815.813904	247.800000
815.849121	229.200000
815.884399	230.600000
815.919556	231.900000
815.954834	233.000000
815.990051	237.500000
816.025269	241.000000
816.060486	231.700000
816.095703	230.600000
816.130920	236.000000
816.166199	229.100000
816.201416	235.100000
816.236572	240.200000
816.271851	230.200000
816.307007	236.700000
816.342224	226.500000
816.377441	229.200000
816.412659	221.400000
816.447876	232.600000
816.483093	229.100000
816.518250	229.000000
816.553467	226.900000
816.588745	231.400000
816.623901	223.300000
816.659119	217.800000
816.694275	224.000000
816.729492	219.800000
816.764709	258.100000
816.799927	216.200000
816.835083	223.800000
816.870300	216.900000
816.905457	221.500000
816.940674	224.600000
816.975830	218.100000
817.010986	215.900000
817.046204	218.300000
817.081421	214.900000
817.116577	215.400000
817.151733	223.600000
817.186951	223.300000
817.222107	220.600000
817.257324	221.400000
817.292419	220.200000
817.327637	212.500000
817.362854	218.900000
817.398010	211.900000
817.433167	214.200000
817.468323	213.300000
817.503479	214.900000
817.538635	223.100000
817.573853	219.300000
817.608948	216.000000
817.644165	210.900000
817.679321	210.500000
817.714478	212.100000
817.749634	214.800000
817.784790	226.600000
817.819946	221.100000
817.855103	203.100000
817.890198	213.200000
817.925415	205.800000
817.960571	213.700000
817.995667	211.500000
818.030823	214.800000
818.066040	208.800000
818.101135	210.900000
818.136292	211.600000
818.171448	204.800000
818.206543	210.800000
818.241699	214.900000
818.276855	211.300000
818.311951	209.600000
818.347107	206.200000
818.382263	212.500000
818.417358	217.700000
818.452515	217.100000
818.487610	216.400000
818.522766	206.400000
818.557922	218.000000
818.593018	212.100000
818.628113	211.400000
818.663269	204.800000
818.698364	209.000000
818.733521	205.700000
818.768677	210.800000
818.803711	201.000000
818.838867	204.200000
818.874023	208.800000
818.909058	203.100000
818.944214	202.100000
818.979370	209.500000
819.014404	207.000000
819.049561	201.700000
819.084595	208.200000
819.119751	197.800000
819.154846	207.800000
819.189941	204.800000
819.225037	200.000000
819.260193	194.700000
819.295227	198.900000
819.330322	194.000000
819.365479	193.600000
819.400513	226.600000
819.435608	192.400000
819.470764	189.800000
819.505798	193.400000
819.540894	197.500000
819.575989	196.000000
819.611084	206.200000
819.646179	205.400000
819.681213	201.700000
819.716309	198.400000
819.751404	197.700000
819.786438	203.500000
819.821533	194.900000
819.856628	200.300000
819.891663	203.500000
819.926758	208.500000
819.961853	205.500000
819.996887	193.900000
820.031982	202.000000
820.067017	196.900000
820.102112	226.000000
820.137207	195.700000
820.172302	214.000000
820.207275	193.900000
820.242371	194.200000
820.277405	194.600000
820.312500	198.600000
820.347534	199.100000
820.382568	201.900000
820.417664	195.100000
820.452759	195.800000
820.487732	193.200000
820.522827	194.800000
820.557861	192.100000
820.592896	195.000000
820.627930	194.200000
820.662964	194.300000
820.698059	198.700000
820.733093	194.100000
820.768127	200.500000
820.803162	196.300000
820.838196	193.400000
820.873230	197.500000
820.908264	196.500000
820.943298	192.900000
820.978333	200.000000
821.013367	196.500000
821.048401	201.700000
821.083435	201.500000
821.118469	188.200000
821.153503	201.900000
821.188477	197.600000
821.223511	189.000000
821.258484	195.200000
821.293579	196.200000
821.328613	189.500000
821.363647	194.300000
821.398621	190.100000
821.433655	191.900000
821.468628	208.000000
821.503662	193.500000
821.538696	197.700000
821.573669	189.000000
821.608704	197.400000
821.643677	192.300000
821.678650	198.400000
821.713684	206.100000
821.748718	193.400000
821.783691	194.300000
821.818726	195.300000
821.853638	196.100000
821.888672	193.900000
821.923706	194.400000
821.958618	191.800000
821.993652	190.700000
822.028687	199.300000
822.063599	201.500000
822.098633	195.100000
822.133667	189.100000
822.168579	191.900000
822.203613	193.600000
822.238586	190.800000
822.273560	196.500000
822.308533	190.900000
822.343567	192.600000
822.378479	193.000000
822.413452	192.600000
822.448425	190.100000
822.483398	198.900000
822.518372	198.700000
822.553345	190.500000
822.588318	202.300000
822.623291	192.400000
822.658203	192.100000
822.693237	192.900000
822.728210	190.000000
822.763123	195.900000
822.798096	187.800000
822.833069	194.000000
822.867981	193.800000
822.902954	195.200000
822.937927	197.800000
822.972900	205.800000
823.007874	185.100000
823.042725	198.700000
823.077698	205.400000
823.112671	189.000000
823.147583	193.000000
823.182556	197.900000
823.217529	198.400000
823.252441	191.900000
823.287415	206.700000
823.322388	197.000000
823.357239	194.300000
823.392212	201.200000
823.427185	197.800000
823.462097	190.100000
823.497009	198.200000
823.531982	192.200000
823.566895	194.400000
823.601807	189.100000
823.636719	191.500000
823.671631	196.900000
823.706604	191.100000
823.741455	197.200000
823.776428	186.300000
823.811340	197.700000
823.846252	199.500000
823.881165	201.800000
823.916138	194.200000
823.950989	203.900000
823.985901	190.400000
824.020813	194.900000
824.055725	192.700000
824.090637	189.200000
824.125610	195.600000
824.160461	195.300000
824.195374	196.000000
824.230225	199.600000
824.265198	185.800000
824.300110	190.900000
824.334961	203.700000
824.369873	183.600000
824.404785	195.900000
824.439636	201.500000
824.474548	185.200000
824.509460	184.400000
824.544312	199.300000
824.579224	196.900000
824.614075	196.900000
824.648987	192.800000
824.683899	192.900000
824.718811	191.600000
824.753662	201.300000
824.788574	198.800000
824.823364	195.200000
824.858276	191.400000
824.893188	199.800000
824.928040	199.600000
824.962952	196.900000
824.997803	199.200000
825.032654	194.800000
825.067566	198.000000
825.102417	191.400000
825.137268	192.800000
825.172119	194.100000
825.206970	189.800000
825.241882	190.700000
825.276733	189.200000
825.311646	190.100000
825.346436	188.100000
825.381348	188.900000
825.416138	194.700000
825.450989	190.000000
825.485901	184.500000
825.520691	185.000000
825.555542	187.100000
825.590454	193.500000
825.625244	184.800000
825.660095	201.100000
825.695007	197.100000
825.729797	191.000000
825.764648	189.300000
825.799438	192.500000
825.834290	193.500000
825.869202	187.200000
825.903992	194.400000
825.938843	189.900000
825.973694	188.700000
826.008484	204.900000
826.043335	187.100000
826.078186	186.000000
826.112976	199.700000
826.147827	199.100000
826.182678	202.800000
826.217468	185.700000
826.252319	197.600000
826.287109	188.300000
826.321899	200.900000
826.356750	191.600000
826.391541	189.300000
826.426392	200.100000
826.461182	192.600000
826.495972	187.200000
826.530823	185.000000
826.565613	192.800000
826.600403	187.600000
826.635254	196.600000
826.670044	183.900000
826.704834	185.200000
826.739685	188.500000
826.774475	194.000000
826.809265	191.500000
826.844055	189.900000
826.878906	199.000000
826.913635	193.500000
826.948425	194.200000
826.983215	195.100000
827.018005	197.800000
827.052856	189.000000
827.087585	194.700000
827.122375	184.300000
827.157227	193.300000
827.191956	204.600000
827.226746	188.000000
827.261536	197.500000
827.296265	185.200000
827.331116	190.100000
827.365906	195.400000
827.400635	189.800000
827.435425	184.500000
827.470215	199.900000
827.504944	190.100000
827.539734	196.900000
827.574463	193.600000
827.609253	199.200000
827.644043	192.900000
827.678772	198.600000
827.713562	192.300000
827.748352	190.700000
827.783081	189.200000
827.817871	194.300000
827.852600	188.400000
827.887329	193.700000
827.922119	183.200000
827.956848	197.200000
827.991638	206.200000
828.026367	193.800000
828.061157	193.900000
828.095886	191.900000
828.130615	206.800000
828.165344	183.100000
828.200073	193.400000
828.234863	189.700000
828.269592	191.700000
828.304321	197.500000
828.339111	192.900000
828.373779	187.700000
828.408569	197.600000
828.443298	197.900000
828.477966	189.000000
828.512756	192.600000
828.547424	187.800000
828.582214	189.600000
828.616943	191.000000
828.651672	192.000000
828.686340	197.500000
828.721130	189.700000
828.755798	190.700000
828.790527	192.500000
828.825256	192.900000
828.859924	192.400000
828.894714	198.300000
828.929443	200.400000
828.964111	188.800000
828.998840	195.100000
829.033569	190.400000
829.068237	190.600000
829.102966	189.600000
829.137634	194.500000
829.172363	194.300000
829.207092	193.100000
829.241821	188.200000
829.276489	183.900000
829.311157	192.800000
829.345825	190.100000
829.380554	197.100000
829.415283	189.100000
829.449951	186.000000
829.484619	201.500000
829.519348	200.900000
829.554016	194.600000
829.588745	192.200000
829.623413	186.100000
829.658081	203.000000
829.692749	184.900000
829.727417	197.800000
829.762146	193.400000
829.796814	189.800000
829.831482	190.100000
829.866150	195.200000
829.900879	189.300000
829.935486	196.400000
829.970154	190.700000
830.004883	203.700000
830.039490	194.000000
830.074219	189.300000
830.108887	194.000000
830.143494	190.800000
830.178223	185.700000
830.212891	191.600000
830.247498	191.700000
830.282166	200.600000
830.316772	197.200000
830.351501	189.400000
830.386169	192.800000
830.420776	190.400000
830.455444	191.700000
830.490112	189.600000
830.524719	183.000000
830.559387	195.100000
830.594055	195.100000
830.628662	192.200000
830.663330	192.400000
830.697998	201.700000
830.732605	190.600000
830.767273	195.500000
830.801941	192.100000
830.836487	202.500000
830.871155	194.500000
830.905762	193.800000
830.940430	185.100000
830.975098	189.200000
831.009644	192.500000
831.044312	201.500000
831.078979	195.600000
831.113525	184.200000
831.148193	191.500000
831.182861	191.300000
831.217407	196.500000
831.252075	210.900000
831.286621	188.700000
831.321289	188.700000
831.355896	191.000000
831.390564	199.400000
831.425110	193.100000
831.459778	199.500000
831.494324	206.100000
831.528931	196.200000
831.563599	196.900000
831.598145	185.700000
831.632751	192.700000
831.667419	191.000000
831.701965	194.300000
831.736572	195.900000
831.771179	185.300000
831.805786	189.700000
831.840393	199.500000
831.874939	183.800000
831.909546	197.700000
831.944153	183.200000
831.978760	191.600000
832.013306	186.300000
832.047913	199.900000
832.082458	199.800000
832.117065	188.600000
832.151672	200.400000
832.186218	193.600000
832.220825	194.800000
832.255432	185.200000
832.289978	187.400000
832.324585	195.100000
832.359192	194.000000
832.393677	190.500000
832.428284	192.000000
832.462830	190.300000
832.497437	189.900000
832.531982	196.800000
832.566589	192.400000
832.601135	193.000000
832.635681	185.300000
832.670227	192.200000
832.704773	201.000000
832.739380	195.200000
832.773926	191.900000
832.808472	188.100000
832.843079	192.600000
832.877563	195.300000
832.912170	189.300000
832.946716	184.400000
832.981201	198.600000
833.015808	194.400000
833.050293	191.600000
833.084839	188.600000
833.119446	191.400000
833.153992	195.000000
833.188477	190.900000
833.223022	188.400000
833.257568	193.800000
833.292114	197.300000
833.326660	204.400000
833.361145	189.800000
833.395691	184.000000
833.430237	190.800000
833.464783	195.100000
833.499329	189.200000
833.533875	187.100000
833.568359	193.500000
833.602905	199.300000
833.637390	198.000000
833.671875	189.300000
833.706421	191.500000
833.740906	188.300000
833.775452	182.600000
833.809998	189.800000
833.844482	199.700000
833.879028	192.100000
833.913513	190.100000
833.947998	194.600000
833.982544	188.800000
834.017090	189.800000
834.051514	179.600000
834.086060	195.200000
834.120544	192.600000
834.155029	194.000000
834.189575	190.300000
834.223999	195.700000
834.258545	192.900000
834.293030	194.700000
834.327515	192.700000
834.362000	189.500000
834.396545	196.400000
834.430969	191.600000
834.465454	197.100000
834.500000	185.000000
834.534424	195.300000
834.568970	183.200000
834.603455	184.700000
834.637878	189.200000
834.672363	193.000000
834.706909	194.300000
834.741333	192.500000
834.775818	184.600000
834.810242	188.000000
834.844727	191.700000
834.879211	190.700000
834.913635	194.100000
834.948181	193.000000
834.982666	192.500000
835.017090	190.400000
835.051575	194.700000
835.086060	189.000000
835.120483	196.400000
835.154907	196.500000
835.189331	191.700000
835.223816	195.600000
835.258301	187.000000
835.292786	186.200000
835.327209	197.100000
835.361694	188.500000
835.396057	188.800000
835.430542	196.100000
835.465027	192.800000
835.499390	186.000000
835.533875	211.400000
835.568359	190.800000
835.602722	184.900000
835.637207	194.200000
835.671692	186.200000
835.706055	209.500000
835.740540	193.100000
835.774902	195.000000
835.809387	193.200000
835.843811	187.000000
835.878235	200.400000
835.912659	186.200000
835.947083	189.400000
835.981506	191.700000
836.015930	184.100000
836.050354	197.400000
836.084778	200.700000
836.119202	197.200000
836.153625	204.700000
836.187988	188.300000
836.222473	188.800000
836.256897	193.900000
836.291260	192.300000
836.325684	193.100000
836.360046	190.000000
836.394470	190.200000
836.428894	199.100000
836.463318	189.400000
836.497681	196.500000
836.532104	200.500000
836.566467	194.400000
836.600891	191.000000
836.635315	198.900000
836.669678	196.000000
836.704102	196.800000
836.738525	192.500000
836.772888	184.300000
836.807251	189.000000
836.841675	193.600000
836.876038	187.400000
836.910461	188.400000
836.944763	196.200000
836.979187	188.700000
837.013611	198.600000
837.047974	185.800000
837.082336	203.400000
837.116699	195.600000
837.151062	190.800000
837.185486	185.500000
837.219849	188.800000
837.254211	196.400000
837.288574	192.200000
837.322937	186.500000
837.357300	180.100000
837.391663	205.700000
837.426086	198.000000
837.460388	193.800000
837.494751	196.600000
837.529114	191.400000
837.563477	197.700000
837.597839	194.300000
837.632141	191.900000
837.666565	189.700000
837.700928	195.500000
837.735229	196.400000
837.769592	195.500000
837.803955	198.100000
837.838257	191.000000
837.872620	189.500000
837.906982	199.700000
837.941284	192.800000
837.975647	193.400000
838.010010	199.400000
838.044312	190.900000
838.078674	190.000000
838.112976	193.900000
838.147339	195.500000
838.181702	194.200000
838.216003	202.000000
838.250366	194.100000
838.284668	194.500000
838.318970	184.100000
838.353333	193.000000
838.387634	190.800000
838.421936	192.800000
838.456299	193.900000
838.490601	201.000000
838.524902	195.600000
838.559265	196.400000
838.593567	196.200000
838.627869	186.600000
838.662170	195.200000
838.696472	185.400000
838.730774	188.500000
838.765137	196.900000
838.799377	179.300000
838.833740	192.600000
838.868042	199.800000
838.902283	183.600000
838.936646	199.000000
838.970947	193.100000
839.005188	197.800000
839.039551	184.900000
839.073792	200.600000
839.108093	189.500000
839.142395	202.400000
839.176697	185.200000
839.210937	193.500000
839.245300	203.500000
839.279541	186.700000
839.313843	189.900000
839.348145	195.900000
839.382385	197.800000
839.416687	198.000000
839.450989	195.400000
839.485229	191.000000
839.519531	187.700000
839.553833	198.300000
839.588013	193.100000
839.622314	194.000000
839.656555	195.200000
839.690857	192.400000
839.725159	186.800000
839.759460	191.200000
839.793640	191.200000
839.827942	192.100000
839.862183	187.300000
839.896423	193.700000
839.930725	200.600000
839.964966	199.100000
839.999207	200.100000
840.033508	199.900000
840.067688	188.800000
840.101990	201.600000
840.136230	192.100000
840.170471	200.400000
840.204712	188.000000
840.238953	187.400000
840.273193	193.600000
840.307434	197.600000
840.341736	187.700000
840.375916	185.100000
840.410217	190.600000
840.444397	196.800000
840.478638	195.100000
840.512878	199.600000
840.547119	194.600000
840.581360	193.800000
840.615601	203.200000
840.649780	201.400000
840.684021	194.600000
840.718262	200.000000
840.752441	198.700000
840.786682	194.000000
840.820862	195.900000
840.855103	200.300000
840.889343	193.400000
840.923584	198.000000
840.957764	194.400000
840.992004	194.900000
841.026184	206.900000
841.060425	191.400000
841.094666	189.300000
841.128845	197.000000
841.163025	194.000000
841.197266	196.700000
841.231445	194.000000
841.265686	193.800000
841.299866	189.000000
841.334045	200.900000
841.368286	191.200000
841.402405	201.300000
841.436646	198.100000
841.470825	189.800000
841.505005	192.200000
841.539185	188.900000
841.573425	187.800000
841.607544	192.600000
841.641785	192.900000
841.675964	187.400000
841.710144	193.300000
841.744324	190.800000
841.778503	190.400000
841.812683	188.300000
841.846863	203.400000
841.881042	199.800000
841.915222	188.400000
841.949402	207.600000
841.983521	183.100000
842.017700	191.500000
842.051880	193.800000
842.086060	195.500000
842.120239	194.600000
842.154419	191.400000
842.188538	193.200000
842.222717	189.600000
842.256897	203.100000
842.291016	191.700000
842.325195	194.500000
842.359375	204.500000
842.393494	200.900000
842.427673	193.700000
842.461853	195.800000
842.495911	201.700000
842.530090	195.200000
842.564209	192.200000
842.598389	195.100000
842.632568	194.500000
842.666626	198.000000
842.700806	190.000000
842.734985	191.300000
842.769043	197.300000
842.803223	190.800000
842.837402	191.900000
842.871460	190.200000
842.905640	202.300000
842.939697	189.200000
842.973877	194.900000
843.007996	199.000000
843.042175	202.600000
843.076233	190.600000
843.110413	195.000000
843.144470	202.800000
843.178589	198.100000
843.212769	189.700000
843.246826	196.900000
843.280945	192.400000
843.315125	191.500000
843.349182	190.100000
843.383301	200.800000
843.417419	206.300000
843.451538	192.200000
843.485657	191.700000
843.519714	191.000000
843.553833	195.100000
843.587952	190.100000
843.622070	188.000000
843.656128	196.100000
843.690247	192.100000
843.724304	190.700000
843.758423	193.600000
843.792542	191.300000
843.826599	192.700000
843.860718	191.100000
843.894836	186.400000
843.928894	193.600000
843.963013	195.900000
843.997070	190.400000
844.031128	188.100000
844.065247	198.400000
844.099304	197.700000
844.133362	194.200000
844.167480	196.300000
844.201599	201.000000
844.235596	196.400000
844.269714	195.700000
844.303711	195.500000
844.337830	185.700000
844.371948	196.200000
844.405945	191.200000
844.440063	187.700000
844.474121	208.100000
844.508118	192.800000
844.542236	192.200000
844.576294	191.300000
844.610352	187.500000
844.644409	192.500000
844.678406	184.100000
844.712524	197.100000
844.746582	199.900000
844.780640	192.800000
844.814636	193.900000
844.848755	202.200000
844.882751	191.600000
844.916809	198.300000
844.950867	194.600000
844.984863	201.100000
845.018921	191.700000
845.052979	189.000000
845.086975	195.100000
845.121033	185.900000
845.155090	188.400000
845.189087	200.600000
845.223145	192.500000
845.257141	192.800000
845.291199	197.700000
845.325256	201.100000
845.359253	194.400000
845.393250	204.100000
845.427307	193.200000
845.461304	195.700000
845.495361	194.600000
845.529358	203.100000
845.563354	191.300000
845.597412	190.200000
845.631409	201.700000
845.665405	202.000000
845.699463	199.100000
845.733459	192.800000
845.767456	200.300000
845.801453	192.800000
845.835449	201.100000
845.869446	198.300000
845.903503	198.200000
845.937439	190.000000
845.971497	201.800000
846.005493	187.800000
846.039429	196.800000
846.073486	203.000000
846.107483	192.500000
846.141418	193.200000
846.175476	193.000000
846.209473	200.300000
846.243408	188.900000
846.277405	195.500000
846.311401	188.000000
846.345337	194.500000
846.379395	200.600000
846.413330	191.400000
846.447327	201.200000
846.481323	188.700000
846.515259	191.700000
846.549255	195.200000
846.583252	196.400000
846.617187	187.900000
846.651184	195.600000
846.685120	191.400000
846.719055	200.900000
846.753052	198.300000
846.786987	198.600000
846.820984	187.700000
846.854980	200.200000
846.888916	187.900000
846.922852	195.000000
846.956848	201.700000
846.990723	188.300000
847.024719	195.400000
847.058716	192.400000
847.092590	200.700000
847.126587	195.500000
847.160522	191.900000
847.194458	197.300000
847.228455	190.100000
847.262390	187.400000
847.296265	192.600000
847.330261	202.200000
847.364136	192.200000
847.398132	190.000000
847.432068	194.900000
847.466003	192.800000
847.499939	192.100000
847.533875	197.200000
847.567749	191.400000
847.601746	191.700000
847.635681	197.600000
847.669556	185.300000
847.703491	200.100000
847.737427	209.200000
847.771301	188.200000
847.805237	194.600000
847.839233	195.800000
847.873108	193.400000
847.907043	192.500000
847.940918	201.400000
847.974854	194.900000
848.008789	197.300000
848.042664	193.800000
848.076538	197.600000
848.110474	193.600000
848.144348	196.100000
848.178284	187.700000
848.212219	193.600000
848.246094	189.800000
848.279968	195.100000
848.313904	196.600000
848.347778	194.200000
848.381653	192.600000
848.415588	189.600000
848.449463	191.600000
848.483337	197.100000
848.517212	199.400000
848.551086	194.000000
848.585022	188.200000
848.618835	201.700000
848.652771	190.600000
848.686646	188.500000
848.720520	202.900000
848.754395	193.800000
848.788330	198.000000
848.822144	199.300000
848.856018	193.000000
848.889954	204.500000
848.923767	190.100000
848.957642	190.900000
848.991577	198.800000
849.025391	191.700000
849.059265	192.900000
849.093079	190.200000
849.126953	188.600000
849.160828	199.600000
849.194641	194.700000
849.228577	192.800000
849.262451	193.600000
849.296265	193.000000
849.330139	187.500000
849.364014	193.500000
849.397827	197.100000
849.431702	194.400000
849.465515	197.800000
849.499329	185.700000
849.533203	189.300000
849.567078	183.500000
849.600891	196.400000
849.634766	192.800000
849.668518	199.100000
849.702393	194.100000
849.736267	187.300000
849.770020	205.100000
849.803894	197.000000
849.837769	194.900000
849.871521	194.300000
849.905396	199.300000
849.939270	190.700000
849.973022	191.900000
850.006897	198.600000
850.040710	196.600000
850.074524	196.800000
850.108337	191.700000
850.142151	198.800000
850.175964	199.900000
850.209778	194.400000
850.243530	181.400000
850.277405	199.600000
850.311218	194.700000
850.344971	191.000000
850.378845	202.000000
850.412659	190.800000
850.446411	193.800000
850.480225	192.500000
850.514038	200.800000
850.547791	197.000000
850.581665	193.300000
850.615417	191.000000
850.649231	194.800000
850.683044	192.900000
850.716858	193.800000
850.750610	194.100000
850.784424	197.600000
850.818176	190.700000
850.851929	193.100000
850.885742	190.500000
850.919495	193.200000
850.953308	201.100000
850.987122	201.900000
851.020874	188.800000
851.054626	185.900000
851.088440	196.900000
851.122192	197.100000
851.156006	193.600000
851.189697	193.300000
851.223511	187.100000
851.257263	197.200000
851.291077	197.300000
851.324829	191.900000
851.358582	191.400000
851.392334	191.300000
851.426086	191.500000
851.459900	202.600000
851.493591	193.600000
851.527344	195.100000
851.561157	193.100000
851.594849	197.100000
851.628662	194.600000
851.662415	201.800000
851.696106	196.400000
851.729858	197.500000
851.763611	187.900000
851.797363	195.200000
851.831116	189.100000
851.864868	197.500000
851.898560	198.000000
851.932312	190.700000
851.966064	196.000000
851.999817	194.500000
852.033569	193.800000
852.067261	198.400000
852.101013	190.200000
852.134766	192.900000
852.168457	183.500000
852.202209	197.900000
852.235901	189.900000
852.269592	196.800000
852.303345	204.600000
852.337036	197.100000
852.370789	194.000000
852.404541	197.800000
852.438171	190.700000
852.471924	192.800000
852.505676	187.100000
852.539307	195.400000
852.573059	189.900000
852.606812	192.700000
852.640442	192.200000
852.674194	198.800000
852.707886	205.000000
852.741577	200.600000
852.775269	188.300000
852.809021	194.600000
852.842651	195.800000
852.876404	199.500000
852.910034	195.300000
852.943787	199.300000
852.977478	196.900000
853.011108	188.700000
853.044861	191.900000
853.078552	201.300000
853.112183	197.200000
853.145874	196.700000
853.179626	184.600000
853.213257	195.000000
853.246948	191.400000
853.280640	200.800000
853.314270	193.300000
853.347961	200.300000
853.381653	196.700000
853.415283	198.100000
853.448975	191.700000
853.482605	195.800000
853.516296	192.800000
853.549988	188.700000
853.583618	196.300000
853.617310	195.800000
853.651001	197.600000
853.684631	190.000000
853.718323	192.100000
853.751953	202.400000
853.785583	185.300000
853.819275	199.400000
853.852966	194.900000
853.886536	185.900000
853.920227	188.000000
853.953918	199.600000
853.987488	193.200000
854.021179	198.200000
854.054749	203.100000
854.088440	196.800000
854.122131	190.100000
854.155701	197.600000
854.189331	190.000000
854.223022	198.500000
854.256592	196.000000
854.290283	189.800000
854.323914	197.900000
854.357483	196.100000
854.391174	196.700000
854.424744	204.000000
854.458374	195.300000
854.492065	204.900000
854.525696	196.500000
854.559265	201.500000
854.592896	204.300000
854.626465	195.500000
854.660095	195.100000
854.693787	195.700000
854.727356	191.900000
854.760986	199.500000
854.794617	194.800000
854.828186	191.800000
854.861816	196.900000
854.895447	195.800000
854.929016	195.500000
854.962585	196.700000
854.996155	201.200000
855.029785	195.900000
855.063416	196.700000
855.097046	199.200000
855.130615	189.900000
855.164185	200.400000
855.197754	195.300000
855.231384	197.400000
855.264954	193.600000
855.298523	198.300000
855.332153	195.000000
855.365723	202.900000
855.399292	190.300000
855.432922	192.200000
855.466492	196.600000
855.500061	189.200000
855.533630	189.500000
855.567200	197.600000
855.600769	199.700000
855.634338	198.300000
855.667969	196.300000
855.701477	189.900000
855.735046	190.900000
855.768616	185.400000
855.802185	196.800000
855.835754	208.700000
855.869324	184.700000
855.902893	192.100000
855.936401	201.700000
855.969971	195.900000
856.003540	187.100000
856.037109	198.500000
856.070618	194.500000
856.104187	187.400000
856.137695	192.400000
856.171265	184.500000
856.204834	194.400000
856.238403	200.000000
856.271912	191.700000
856.305481	195.800000
856.338989	188.200000
856.372559	196.100000
856.406128	195.300000
856.439636	199.000000
856.473145	192.100000
856.506653	201.600000
856.540222	194.600000
856.573792	201.200000
856.607300	198.200000
856.640808	188.600000
856.674377	195.500000
856.707825	222.500000
856.741394	197.900000
856.774902	190.500000
856.808472	186.100000
856.841980	197.700000
856.875488	203.300000
856.908936	186.300000
856.942505	192.700000
856.976013	194.000000
857.009521	189.600000
857.043030	196.100000
857.076477	193.500000
857.110046	200.700000
857.143555	196.200000
857.177063	201.200000
857.210571	191.800000
857.244080	188.400000
857.277527	197.400000
857.311035	192.800000
857.344543	197.500000
857.378052	194.000000
857.411499	199.100000
857.445068	203.700000
857.478516	193.400000
857.512024	188.400000
857.545532	191.200000
857.578979	195.000000
857.612427	194.000000
857.645874	191.400000
857.679382	195.700000
857.712891	198.500000
857.746399	193.800000
857.779846	198.800000
857.813354	199.600000
857.846741	193.700000
857.880249	190.300000
857.913757	196.500000
857.947266	195.900000
857.980652	199.100000
858.014160	190.700000
858.047546	193.300000
858.081055	193.700000
858.114563	203.600000
858.147949	188.400000
858.181458	198.100000
858.214844	193.100000
858.248352	185.400000
858.281799	200.900000
858.315308	207.600000
858.348694	197.900000
858.382141	202.900000
858.415588	197.900000
858.449036	199.200000
858.482483	196.600000
858.515930	190.700000
858.549377	196.500000
858.582825	202.500000
858.616211	198.800000
858.649658	196.000000
858.683105	188.200000
858.716553	191.200000
858.750000	187.500000
858.783386	192.400000
858.816833	186.400000
858.850281	195.900000
858.883728	196.400000
858.917114	193.300000
858.950562	203.500000
858.983948	202.600000
859.017395	199.000000
859.050781	192.100000
859.084167	189.400000
859.117615	187.700000
859.151062	197.800000
859.184448	190.500000
859.217834	193.100000
859.251282	192.300000
859.284668	190.700000
859.318054	184.500000
859.351440	192.500000
859.384888	202.000000
859.418274	184.900000
859.451721	186.300000
859.485046	196.700000
859.518494	194.700000
859.551819	190.300000
859.585266	196.600000
859.618652	196.700000
859.652039	188.800000
859.685425	189.200000
859.718811	187.600000
859.752197	183.300000
859.785583	201.900000
859.819031	202.700000
859.852356	197.200000
859.885742	189.800000
859.919067	193.800000
859.952454	190.500000
859.985901	198.800000
860.019287	191.200000
860.052612	0.000000
860.085999	0.000000
860.119324	0.000000
860.152710	0.000000
860.186096	0.000000
860.219421	0.000000
860.252808	0.000000
860.286133	0.000000
860.319519	0.000000
860.352905	0.000000
860.386292	0.000000
860.419617	0.000000
860.452942	0.000000
860.486267	0.000000
860.519653	0.000000
860.553040	0.000000
860.586365	0.000000
860.619690	0.000000
860.653076	0.000000
860.686340	0.000000
860.719727	0.000000
860.753113	0.000000
860.786377	0.000000
860.819763	0.000000
860.853027	0.000000
860.886414	0.000000
860.919739	0.000000
860.953125	0.000000
860.986389	0.000000
861.019714	0.000000
861.053040	0.000000
861.086365	0.000000
861.119690	0.000000
861.153076	0.000000
861.186340	0.000000
861.219666	0.000000
861.252930	0.000000
861.286316	0.000000
861.319641	0.000000
861.352905	0.000000
861.386230	0.000000
861.419495	0.000000
861.452820	0.000000
861.486145	0.000000
861.519470	0.000000
861.552734	0.000000
861.586060	0.000000
861.619324	0.000000
861.652649	0.000000
861.685974	0.000000
861.719238	0.000000
861.752563	0.000000
861.785828	0.000000
861.819092	0.000000
861.852417	0.000000
861.885742	0.000000
861.918945	0.000000
861.952271	0.000000
861.985535	0.000000
862.018799	0.000000
862.052124	0.000000
862.085449	0.000000
862.118652	0.000000
862.151978	0.000000
862.185181	0.000000
862.218506	0.000000
862.251770	0.000000
862.285034	0.000000
862.318298	0.000000
862.351562	0.000000
862.384827	0.000000
862.418091	0.000000
862.451355	0.000000
862.484619	0.000000
862.517883	0.000000
862.551086	0.000000
862.584351	0.000000
862.617676	0.000000
862.650940	0.000000
862.684143	0.000000
862.717407	0.000000
862.750610	0.000000
862.783875	0.000000
862.817139	0.000000
862.850342	0.000000
862.883606	0.000000
862.916870	0.000000
862.950073	0.000000
862.983337	0.000000
863.016602	0.000000
863.049805	0.000000
863.083069	0.000000
863.116211	0.000000
863.149475	0.000000
863.182739	0.000000
863.216003	0.000000
863.249146	0.000000
863.282410	0.000000
863.315613	0.000000
863.348816	0.000000
863.382080	0.000000
863.415222	0.000000
863.448486	0.000000
863.481689	0.000000
863.514893	0.000000
863.548157	0.000000
863.581360	0.000000
863.614502	0.000000
863.647766	0.000000
863.680908	0.000000
863.714172	0.000000
863.747375	0.000000
863.780579	0.000000
863.813721	0.000000
863.846985	0.000000
863.880127	0.000000
863.913330	0.000000
863.946533	0.000000
863.979675	0.000000
864.012939	0.000000
