Model Number: SPM-001-M   
Serial Number: 10090201
Firmware Version: 004.17.6
Exposure Time: 500000.000000us
Data Taken on: 10-03-2021 12:01:00.966
Wavelength	Amplitude
733.770752	0.000000
733.808716	0.000000
733.846619	0.000000
733.884583	0.000000
733.922546	0.000000
733.960449	0.000000
733.998413	0.000000
734.036377	0.000000
734.074219	0.000000
734.112183	0.000000
734.150085	0.000000
734.188049	0.000000
734.226013	0.000000
734.263916	0.000000
734.301819	0.000000
734.339783	0.000000
734.377686	0.000000
734.415588	0.000000
734.453552	0.000000
734.491455	0.000000
734.529419	0.000000
734.567322	0.000000
734.605225	0.000000
734.643127	0.000000
734.681091	0.000000
734.718994	0.000000
734.756897	0.000000
734.794800	0.000000
734.832703	0.000000
734.870667	0.000000
734.908508	0.000000
734.946472	0.000000
734.984375	0.000000
735.022278	0.000000
735.060181	0.000000
735.098083	0.000000
735.135986	0.000000
735.173889	0.000000
735.211792	0.000000
735.249695	0.000000
735.287598	0.000000
735.325439	0.000000
735.363403	0.000000
735.401306	0.000000
735.439148	0.000000
735.477051	0.000000
735.515015	0.000000
735.552856	0.000000
735.590759	0.000000
735.628662	0.000000
735.666504	0.000000
735.704407	0.000000
735.742310	0.000000
735.780212	0.000000
735.818115	0.000000
735.856018	0.000000
735.893860	0.000000
735.931763	0.000000
735.969604	0.000000
736.007507	0.000000
736.045410	0.000000
736.083252	0.000000
736.121094	0.000000
736.158997	0.000000
736.196838	0.000000
736.234741	0.000000
736.272644	0.000000
736.310486	0.000000
736.348389	0.000000
736.386230	0.000000
736.424072	0.000000
736.461975	0.000000
736.499878	0.000000
736.537720	0.000000
736.575562	0.000000
736.613403	0.000000
736.651306	0.000000
736.689148	0.000000
736.726990	0.000000
736.764893	0.000000
736.802734	0.000000
736.840576	0.000000
736.878418	0.000000
736.916321	0.000000
736.954102	0.000000
736.992004	0.000000
737.029846	0.000000
737.067688	0.000000
737.105530	0.000000
737.143372	0.000000
737.181213	0.000000
737.219116	0.000000
737.256897	0.000000
737.294739	0.000000
737.332642	0.000000
737.370422	0.000000
737.408325	0.000000
737.446167	0.000000
737.483948	0.000000
737.521790	0.000000
737.559692	0.000000
737.597473	0.000000
737.635315	0.000000
737.673157	0.000000
737.710999	0.000000
737.748840	0.000000
737.786621	0.000000
737.824463	0.000000
737.862305	0.000000
737.900085	0.000000
737.937927	0.000000
737.975769	0.000000
738.013550	0.000000
738.051392	0.000000
738.089233	0.000000
738.127014	0.000000
738.164856	0.000000
738.202698	0.000000
738.240479	0.000000
738.278320	0.000000
738.316162	0.000000
738.353943	0.000000
738.391785	0.000000
738.429565	0.000000
738.467407	0.000000
738.505188	0.000000
738.542969	0.000000
738.580811	0.000000
738.618652	0.000000
738.656372	0.000000
738.694214	0.000000
738.732056	0.000000
738.769836	0.000000
738.807617	0.000000
738.845459	0.000000
738.883240	0.000000
738.921021	0.000000
738.958862	0.000000
738.996582	0.000000
739.034424	0.000000
739.072205	0.000000
739.109985	0.000000
739.147827	0.000000
739.185547	0.000000
739.223389	0.000000
739.261169	0.000000
739.298889	0.000000
739.336731	0.000000
739.374512	0.000000
739.412292	0.000000
739.450073	0.000000
739.487854	0.000000
739.525635	0.000000
739.563416	0.000000
739.601135	0.000000
739.638977	0.000000
739.676758	0.000000
739.714478	0.000000
739.752258	0.000000
739.790100	0.000000
739.827820	0.000000
739.865601	0.000000
739.903381	0.000000
739.941101	0.000000
739.978882	197.000000
740.016724	192.100000
740.054443	197.800000
740.092224	188.500000
740.130005	188.800000
740.167725	189.200000
740.205505	188.500000
740.243225	199.200000
740.281006	194.700000
740.318787	185.200000
740.356506	199.300000
740.394287	197.900000
740.432068	188.300000
740.469727	185.400000
740.507507	196.900000
740.545288	191.800000
740.583008	195.400000
740.620789	193.700000
740.658569	184.700000
740.696228	192.500000
740.734009	200.200000
740.771790	180.600000
740.809509	196.800000
740.847229	188.100000
740.884949	190.000000
740.922729	186.500000
740.960449	191.600000
740.998169	188.700000
741.035950	189.400000
741.073669	194.400000
741.111389	194.000000
741.149170	202.800000
741.186890	203.200000
741.224609	196.900000
741.262329	193.900000
741.300110	203.600000
741.337769	188.600000
741.375549	186.100000
741.413208	194.600000
741.450989	189.500000
741.488708	190.500000
741.526367	191.000000
741.564148	197.500000
741.601868	199.700000
741.639526	193.400000
741.677307	193.400000
741.715027	195.500000
741.752686	189.000000
741.790466	201.400000
741.828186	194.900000
741.865845	189.500000
741.903564	185.100000
741.941345	193.000000
741.979004	188.900000
742.016724	195.500000
742.054382	194.400000
742.092102	199.000000
742.129822	185.300000
742.167480	188.600000
742.205200	191.100000
742.242920	193.900000
742.280640	197.500000
742.318359	189.500000
742.356079	189.900000
742.393738	197.200000
742.431396	192.300000
742.469116	195.700000
742.506775	182.800000
742.544495	195.600000
742.582214	196.400000
742.619873	193.300000
742.657593	202.200000
742.695251	198.100000
742.732971	192.100000
742.770630	196.000000
742.808289	193.100000
742.846008	194.100000
742.883728	197.700000
742.921326	193.400000
742.959045	191.200000
742.996765	192.700000
743.034424	193.500000
743.072083	191.600000
743.109802	193.400000
743.147400	186.700000
743.185120	195.800000
743.222839	193.000000
743.260437	198.700000
743.298157	195.600000
743.335754	185.200000
743.373474	191.300000
743.411133	184.600000
743.448792	192.200000
743.486450	192.500000
743.524170	184.200000
743.561768	193.000000
743.599487	201.100000
743.637146	205.000000
743.674744	191.000000
743.712463	190.700000
743.750122	192.900000
743.787720	195.700000
743.825439	188.700000
743.863037	189.800000
743.900696	192.700000
743.938416	216.600000
743.976013	191.700000
744.013672	201.600000
744.051331	197.800000
744.088928	201.100000
744.126587	200.400000
744.164307	193.100000
744.201904	190.700000
744.239563	197.200000
744.277222	195.100000
744.314819	192.700000
744.352478	200.900000
744.390137	195.400000
744.427734	195.100000
744.465393	191.700000
744.502991	187.900000
744.540649	196.600000
744.578308	193.300000
744.615906	187.300000
744.653564	183.700000
744.691223	197.100000
744.728821	185.100000
744.766418	193.300000
744.804077	195.900000
744.841675	191.400000
744.879333	186.700000
744.916992	192.400000
744.954529	190.200000
744.992187	201.000000
745.029785	192.100000
745.067444	190.600000
745.105042	194.700000
745.142639	195.500000
745.180298	202.300000
745.217896	191.500000
745.255493	191.100000
745.293152	198.100000
745.330750	197.800000
745.368347	202.400000
745.405945	196.900000
745.443604	193.200000
745.481140	197.000000
745.518799	191.200000
745.556396	197.400000
745.593994	196.200000
745.631592	192.900000
745.669189	186.800000
745.706787	195.700000
745.744385	188.500000
745.781982	194.800000
745.819580	190.100000
745.857178	191.800000
745.894775	191.900000
745.932373	193.300000
745.969971	193.800000
746.007568	185.300000
746.045166	202.100000
746.082764	200.000000
746.120300	196.300000
746.157898	196.100000
746.195557	194.000000
746.233093	187.800000
746.270691	198.100000
746.308228	196.100000
746.345825	200.300000
746.383423	197.000000
746.420959	189.700000
746.458557	191.800000
746.496155	191.600000
746.533691	193.600000
746.571289	188.500000
746.608887	194.100000
746.646423	194.700000
746.684021	195.500000
746.721619	190.900000
746.759155	195.100000
746.796753	187.100000
746.834351	187.500000
746.871826	189.800000
746.909424	202.600000
746.946960	195.700000
746.984558	192.600000
747.022156	191.500000
747.059631	199.700000
747.097229	195.900000
747.134827	191.700000
747.172363	201.100000
747.209900	194.900000
747.247498	188.200000
747.285034	200.800000
747.322571	200.700000
747.360168	191.300000
747.397644	186.300000
747.435242	197.200000
747.472778	201.100000
747.510315	190.700000
747.547913	190.700000
747.585388	200.300000
747.622925	193.500000
747.660522	184.800000
747.697998	188.700000
747.735596	192.500000
747.773132	190.400000
747.810669	193.000000
747.848206	198.200000
747.885742	188.700000
747.923279	188.600000
747.960815	196.300000
747.998352	195.100000
748.035889	198.900000
748.073425	200.000000
748.110901	189.600000
748.148437	190.500000
748.185974	194.300000
748.223511	204.200000
748.261047	195.300000
748.298584	194.800000
748.336060	192.800000
748.373596	198.600000
748.411133	212.800000
748.448608	190.900000
748.486145	197.000000
748.523682	200.700000
748.561218	200.300000
748.598755	195.700000
748.636292	197.100000
748.673706	190.900000
748.711243	200.600000
748.748718	196.400000
748.786255	194.600000
748.823792	192.600000
748.861267	187.900000
748.898804	195.900000
748.936340	195.300000
748.973816	192.800000
749.011292	199.700000
749.048828	195.700000
749.086304	197.700000
749.123840	205.200000
749.161316	189.000000
749.198792	203.500000
749.236328	199.600000
749.273743	192.700000
749.311279	192.400000
749.348816	194.800000
749.386230	194.000000
749.423767	182.500000
749.461304	196.300000
749.498718	194.500000
749.536255	202.400000
749.573730	207.200000
749.611206	201.600000
749.648682	192.100000
749.686218	194.000000
749.723633	199.500000
749.761169	191.100000
749.798645	188.700000
749.836060	193.200000
749.873596	190.800000
749.911011	195.100000
749.948547	200.700000
749.986023	194.100000
750.023437	193.400000
750.060913	187.800000
750.098450	188.700000
750.135864	194.800000
750.173340	194.200000
750.210815	199.400000
750.248291	188.500000
750.285767	195.300000
750.323242	200.700000
750.360657	196.700000
750.398132	190.600000
750.435608	198.200000
750.473022	189.700000
750.510498	188.300000
750.547974	190.000000
750.585449	192.000000
750.622925	182.200000
750.660339	202.200000
750.697815	194.500000
750.735291	193.000000
750.772644	194.700000
750.810120	195.900000
750.847595	197.400000
750.885010	189.900000
750.922485	203.100000
750.959961	193.400000
750.997375	201.700000
751.034851	198.100000
751.072266	199.500000
751.109680	186.900000
751.147156	199.100000
751.184570	195.000000
751.221985	195.400000
751.259460	183.500000
751.296875	194.800000
751.334290	194.500000
751.371765	201.100000
751.409180	197.100000
751.446594	200.400000
751.484070	196.200000
751.521423	196.500000
751.558899	195.900000
751.596375	202.600000
751.633728	201.800000
751.671204	207.900000
751.708618	190.200000
751.746033	196.400000
751.783447	188.900000
751.820801	190.600000
751.858276	196.900000
751.895691	194.000000
751.933105	192.500000
751.970520	190.400000
752.007935	191.600000
752.045349	199.500000
752.082764	193.900000
752.120178	194.000000
752.157532	191.000000
752.195007	190.800000
752.232422	197.800000
752.269775	199.300000
752.307190	197.000000
752.344543	190.000000
752.382019	192.700000
752.419434	192.600000
752.456787	194.600000
752.494202	197.900000
752.531616	196.100000
752.568970	198.600000
752.606384	195.700000
752.643799	195.300000
752.681152	202.100000
752.718567	196.700000
752.755981	186.500000
752.793335	195.700000
752.830750	184.900000
752.868164	200.800000
752.905518	189.400000
752.942932	198.100000
752.980225	189.200000
753.017639	199.300000
753.055054	191.700000
753.092407	196.100000
753.129822	200.000000
753.167175	204.800000
753.204529	193.800000
753.241943	190.800000
753.279358	188.600000
753.316650	198.500000
753.354065	197.900000
753.391479	198.100000
753.428772	203.900000
753.466187	197.100000
753.503479	188.700000
753.540894	192.700000
753.578308	189.500000
753.615601	188.800000
753.653015	194.500000
753.690369	192.600000
753.727722	190.000000
753.765076	188.100000
753.802490	189.100000
753.839783	184.900000
753.877136	192.600000
753.914551	209.200000
753.951843	190.000000
753.989258	198.500000
754.026611	195.700000
754.063904	194.600000
754.101257	190.600000
754.138611	185.900000
754.175964	194.600000
754.213318	206.300000
754.250610	185.900000
754.288025	191.000000
754.325378	187.700000
754.362671	200.100000
754.400024	192.700000
754.437378	203.000000
754.474670	203.500000
754.512085	190.200000
754.549438	196.000000
754.586731	192.700000
754.624084	193.200000
754.661438	188.300000
754.698730	203.400000
754.736084	191.400000
754.773376	192.400000
754.810730	197.900000
754.848083	193.400000
754.885315	197.900000
754.922668	186.900000
754.960022	190.500000
754.997314	198.800000
755.034668	197.100000
755.072021	196.300000
755.109253	193.000000
755.146606	202.900000
755.183960	193.200000
755.221252	206.200000
755.258545	200.300000
755.295898	201.600000
755.333191	203.400000
755.370544	198.800000
755.407776	195.900000
755.445129	196.500000
755.482422	201.100000
755.519714	193.500000
755.557068	190.200000
755.594360	187.700000
755.631653	202.100000
755.668945	205.200000
755.706299	200.500000
755.743530	209.500000
755.780884	205.900000
755.818176	201.800000
755.855408	202.000000
755.892761	199.800000
755.930054	199.400000
755.967346	200.100000
756.004639	203.100000
756.041870	198.000000
756.079224	204.500000
756.116516	193.700000
756.153748	203.500000
756.191040	206.000000
756.228394	201.200000
756.265625	196.000000
756.302917	199.400000
756.340210	196.100000
756.377441	204.600000
756.414795	207.000000
756.452087	199.400000
756.489319	193.800000
756.526611	202.100000
756.563843	202.300000
756.601135	211.600000
756.638428	208.300000
756.675659	199.300000
756.712952	205.800000
756.750244	205.400000
756.787476	202.000000
756.824768	208.200000
756.862061	200.000000
756.899292	248.800000
756.936584	205.600000
756.973816	214.100000
757.011047	215.100000
757.048340	205.400000
757.085632	202.900000
757.122864	218.700000
757.160156	202.700000
757.197327	206.700000
757.234619	208.800000
757.271912	201.300000
757.309082	209.600000
757.346375	202.500000
757.383667	211.200000
757.420837	205.800000
757.458130	205.900000
757.495422	201.800000
757.532593	209.200000
757.569885	196.900000
757.607117	200.400000
757.644348	206.800000
757.681580	218.400000
757.718811	192.200000
757.756042	206.100000
757.793335	202.100000
757.830505	213.200000
757.867798	203.500000
757.905029	203.000000
757.942200	208.400000
757.979492	202.800000
758.016724	204.800000
758.053894	203.200000
758.091187	226.100000
758.128418	208.100000
758.165588	207.600000
758.202820	218.700000
758.240112	209.500000
758.277283	221.000000
758.314514	209.500000
758.351685	206.000000
758.388916	219.800000
758.426147	217.000000
758.463379	219.500000
758.500610	213.000000
758.537842	209.900000
758.575012	218.400000
758.612244	205.700000
758.649475	223.300000
758.686646	204.100000
758.723877	218.100000
758.761108	218.900000
758.798279	212.300000
758.835510	215.800000
758.872742	216.800000
758.909851	214.500000
758.947083	215.600000
758.984253	214.700000
759.021484	217.300000
759.058716	216.100000
759.095886	216.200000
759.133057	212.300000
759.170288	216.700000
759.207458	211.200000
759.244690	225.200000
759.281860	224.400000
759.319031	213.900000
759.356262	213.400000
759.393433	213.200000
759.430603	213.700000
759.467773	214.500000
759.505005	221.900000
759.542175	219.000000
759.579346	213.000000
759.616516	215.100000
759.653687	218.500000
759.690918	211.000000
759.728027	217.300000
759.765259	216.600000
759.802429	219.600000
759.839539	218.600000
759.876770	222.700000
759.913940	226.800000
759.951111	218.400000
759.988281	218.400000
760.025452	215.500000
760.062561	214.600000
760.099792	227.000000
760.136963	220.600000
760.174072	217.900000
760.211243	211.700000
760.248413	213.900000
760.285583	214.900000
760.322754	230.400000
760.359863	227.500000
760.397034	227.600000
760.434204	219.600000
760.471375	220.800000
760.508545	219.500000
760.545715	219.500000
760.582825	215.300000
760.619995	225.100000
760.657166	214.500000
760.694275	227.100000
760.731445	223.800000
760.768555	223.900000
760.805664	225.200000
760.842834	223.100000
760.879944	226.700000
760.917114	223.600000
760.954285	222.100000
760.991394	215.300000
761.028564	229.800000
761.065674	226.800000
761.102783	219.700000
761.139954	228.800000
761.177124	229.700000
761.214172	231.000000
761.251343	225.300000
761.288452	224.800000
761.325562	229.800000
761.362732	223.500000
761.399841	226.000000
761.436951	229.900000
761.474121	223.900000
761.511169	230.500000
761.548340	233.100000
761.585449	234.400000
761.622559	234.200000
761.659668	232.100000
761.696838	237.600000
761.733887	234.500000
761.771057	230.800000
761.808167	233.800000
761.845276	238.300000
761.882385	245.100000
761.919434	236.000000
761.956604	256.600000
761.993713	231.500000
762.030762	245.500000
762.067871	236.200000
762.105042	237.000000
762.142090	244.700000
762.179199	240.600000
762.216309	243.100000
762.253418	257.300000
762.290527	250.500000
762.327637	245.200000
762.364685	235.200000
762.401794	247.600000
762.438904	244.100000
762.475952	237.400000
762.513062	238.500000
762.550110	240.300000
762.587219	255.600000
762.624329	254.800000
762.661377	247.300000
762.698486	246.400000
762.735596	247.100000
762.772644	241.900000
762.809753	237.700000
762.846863	246.400000
762.883911	250.300000
762.921021	250.700000
762.958069	246.600000
762.995117	256.600000
763.032227	256.900000
763.069336	248.900000
763.106323	244.500000
763.143433	243.000000
763.180481	252.100000
763.217590	251.600000
763.254639	248.700000
763.291687	249.300000
763.328735	259.000000
763.365845	250.700000
763.402893	250.900000
763.439941	254.500000
763.477051	256.900000
763.514038	258.800000
763.551147	251.100000
763.588196	255.400000
763.625244	254.300000
763.662292	262.700000
763.699402	267.200000
763.736389	261.700000
763.773499	270.600000
763.810486	264.500000
763.847534	261.800000
763.884644	263.600000
763.921631	259.200000
763.958679	272.900000
763.995728	262.300000
764.032776	272.300000
764.069824	258.300000
764.106873	266.000000
764.143860	272.500000
764.180969	266.400000
764.218018	274.200000
764.255005	266.400000
764.292053	270.100000
764.329102	278.200000
764.366089	279.300000
764.403137	276.200000
764.440125	266.300000
764.477173	270.500000
764.514221	272.600000
764.551208	270.800000
764.588257	265.800000
764.625305	277.100000
764.662292	283.200000
764.699341	286.700000
764.736389	276.900000
764.773376	294.400000
764.810425	281.000000
764.847473	289.600000
764.884399	284.800000
764.921448	291.800000
764.958435	288.800000
764.995483	279.000000
765.032532	295.800000
765.069458	281.700000
765.106506	282.800000
765.143555	282.300000
765.180481	286.700000
765.217529	294.200000
765.254578	278.900000
765.291504	290.400000
765.328552	286.100000
765.365540	284.800000
765.402527	300.000000
765.439575	284.200000
765.476501	280.100000
765.513550	281.200000
765.550537	285.900000
765.587463	294.100000
765.624512	285.500000
765.661499	279.500000
765.698486	296.300000
765.735474	283.700000
765.772461	287.800000
765.809448	294.900000
765.846436	294.500000
765.883423	300.000000
765.920410	292.600000
765.957397	287.700000
765.994385	293.800000
766.031311	303.600000
766.068359	295.800000
766.105286	297.300000
766.142273	303.800000
766.179260	300.100000
766.216187	293.400000
766.253174	289.500000
766.290161	299.300000
766.327148	302.400000
766.364136	302.500000
766.401123	318.300000
766.438049	298.400000
766.475037	309.800000
766.512024	304.000000
766.548950	322.000000
766.585937	316.700000
766.622864	313.600000
766.659790	311.300000
766.696777	302.300000
766.733704	317.100000
766.770691	309.400000
766.807678	325.000000
766.844604	320.400000
766.881531	318.700000
766.918518	328.400000
766.955444	328.900000
766.992432	321.100000
767.029358	326.000000
767.066284	329.100000
767.103271	326.400000
767.140198	354.100000
767.177124	342.000000
767.214050	333.000000
767.251038	334.600000
767.287964	331.400000
767.324890	330.500000
767.361816	336.900000
767.398743	341.500000
767.435730	335.900000
767.472595	340.900000
767.509583	349.500000
767.546509	337.700000
767.583374	344.500000
767.620361	338.200000
767.657288	342.600000
767.694214	345.400000
767.731140	344.100000
767.768066	344.200000
767.804993	349.300000
767.841919	341.300000
767.878845	348.900000
767.915710	356.300000
767.952698	349.300000
767.989563	354.300000
768.026489	353.600000
768.063416	349.600000
768.100281	350.300000
768.137207	363.900000
768.174133	360.200000
768.211060	359.500000
768.247986	359.500000
768.284912	360.200000
768.321777	363.700000
768.358704	359.600000
768.395630	365.400000
768.432495	357.700000
768.469421	366.400000
768.506348	374.400000
768.543152	379.200000
768.580078	376.100000
768.616943	378.900000
768.653870	379.100000
768.690796	378.700000
768.727661	375.500000
768.764587	381.500000
768.801453	376.200000
768.838318	389.000000
768.875244	383.800000
768.912109	387.200000
768.948975	381.500000
768.985901	386.200000
769.022766	384.500000
769.059631	390.200000
769.096558	386.500000
769.133362	389.100000
769.170288	389.900000
769.207214	391.200000
769.244019	396.200000
769.280945	395.500000
769.317810	403.900000
769.354675	398.700000
769.391541	408.300000
769.428406	404.100000
769.465271	415.600000
769.502136	404.600000
769.539062	406.900000
769.575867	406.800000
769.612732	408.500000
769.649597	415.000000
769.686462	418.200000
769.723328	411.800000
769.760193	411.000000
769.797058	416.100000
769.833923	423.000000
769.870728	417.900000
769.907593	422.800000
769.944519	422.300000
769.981323	425.400000
770.018188	428.100000
770.055054	422.300000
770.091858	422.700000
770.128723	436.900000
770.165588	442.900000
770.202393	426.800000
770.239258	440.100000
770.276062	436.800000
770.312927	436.800000
770.349792	444.000000
770.386597	441.700000
770.423462	446.900000
770.460327	457.200000
770.497131	441.200000
770.533997	433.200000
770.570862	451.900000
770.607605	453.000000
770.644470	448.500000
770.681335	450.300000
770.718140	451.800000
770.754944	438.400000
770.791809	441.700000
770.828613	444.800000
770.865479	443.700000
770.902222	458.300000
770.939087	450.600000
770.975952	440.100000
771.012695	446.100000
771.049561	463.800000
771.086365	451.500000
771.123169	449.600000
771.159973	452.000000
771.196838	450.500000
771.233582	453.600000
771.270447	457.600000
771.307251	458.400000
771.344055	454.700000
771.380859	457.700000
771.417664	453.400000
771.454468	461.700000
771.491272	462.100000
771.528076	461.200000
771.564880	461.800000
771.601685	473.300000
771.638428	462.000000
771.675293	470.100000
771.712097	459.700000
771.748840	477.100000
771.785645	471.700000
771.822449	474.400000
771.859253	474.200000
771.896057	470.800000
771.932861	485.100000
771.969604	477.400000
772.006409	469.900000
772.043213	485.800000
772.079956	481.900000
772.116760	475.100000
772.153503	481.200000
772.190308	490.700000
772.227112	483.300000
772.263855	477.300000
772.300659	486.600000
772.337463	497.900000
772.374207	485.900000
772.411011	481.500000
772.447754	488.200000
772.484497	505.200000
772.521301	498.800000
772.558105	496.000000
772.594849	501.400000
772.631592	504.000000
772.668396	504.800000
772.705139	514.000000
772.741882	511.200000
772.778625	522.400000
772.815430	527.900000
772.852173	522.100000
772.888916	532.000000
772.925720	534.100000
772.962463	540.400000
772.999207	538.200000
773.035950	542.400000
773.072754	539.800000
773.109436	538.900000
773.146240	539.900000
773.182922	538.000000
773.219727	551.800000
773.256470	544.700000
773.293152	530.100000
773.329956	543.100000
773.366699	550.200000
773.403381	541.300000
773.440186	550.200000
773.476929	553.400000
773.513611	546.100000
773.550354	548.800000
773.587158	548.700000
773.623840	548.100000
773.660583	560.500000
773.697327	576.700000
773.734009	564.800000
773.770813	566.000000
773.807495	564.300000
773.844238	566.900000
773.880981	580.500000
773.917664	579.600000
773.954407	585.600000
773.991150	575.700000
774.027832	583.600000
774.064575	576.200000
774.101318	587.100000
774.138000	594.700000
774.174744	588.000000
774.211487	589.900000
774.248108	579.900000
774.284851	579.600000
774.321594	596.000000
774.358276	597.900000
774.395020	610.600000
774.431702	606.000000
774.468384	598.000000
774.505127	596.000000
774.541809	613.100000
774.578491	625.200000
774.615234	626.500000
774.651917	616.700000
774.688599	622.200000
774.725342	626.500000
774.762024	624.000000
774.798706	631.300000
774.835449	632.700000
774.872070	642.200000
774.908813	636.600000
774.945496	633.700000
774.982178	633.700000
775.018860	641.900000
775.055542	644.500000
775.092224	647.600000
775.128967	652.600000
775.165588	648.500000
775.202271	639.200000
775.239014	657.400000
775.275635	660.100000
775.312317	652.100000
775.349060	660.500000
775.385681	659.700000
775.422363	650.400000
775.459045	660.600000
775.495667	665.500000
775.532410	669.200000
775.569092	668.900000
775.605713	673.900000
775.642395	669.000000
775.679016	671.600000
775.715698	675.800000
775.752380	683.300000
775.789001	675.800000
775.825684	675.900000
775.862366	677.400000
775.898987	688.800000
775.935669	676.200000
775.972351	701.800000
776.008972	698.300000
776.045654	694.800000
776.082336	688.400000
776.118958	683.200000
776.155640	692.800000
776.192322	705.100000
776.228882	706.500000
776.265564	705.300000
776.302185	697.900000
776.338867	703.700000
776.375488	691.600000
776.412109	706.800000
776.448792	710.100000
776.485413	718.000000
776.522034	706.000000
776.558716	697.100000
776.595337	698.500000
776.631958	708.000000
776.668579	707.800000
776.705261	710.900000
776.741882	705.900000
776.778503	703.100000
776.815186	698.900000
776.851746	712.300000
776.888367	714.000000
776.924988	721.800000
776.961609	708.800000
776.998291	710.400000
777.034851	700.700000
777.071472	721.400000
777.108154	717.500000
777.144714	728.300000
777.181335	725.000000
777.218018	715.800000
777.254578	723.800000
777.291199	717.900000
777.327759	733.100000
777.364380	739.500000
777.401062	743.500000
777.437622	758.600000
777.474243	739.400000
777.510864	749.800000
777.547424	746.200000
777.584045	752.100000
777.620667	758.100000
777.657227	760.100000
777.693848	759.000000
777.730469	775.000000
777.767029	767.700000
777.803650	772.900000
777.840271	762.400000
777.876831	764.800000
777.913452	773.900000
777.950012	754.100000
777.986633	752.700000
778.023193	755.400000
778.059753	757.300000
778.096375	759.500000
778.132996	774.000000
778.169556	754.700000
778.206116	762.500000
778.242737	759.000000
778.279297	773.600000
778.315857	763.600000
778.352478	774.000000
778.389038	778.900000
778.425598	779.100000
778.462219	794.600000
778.498718	794.700000
778.535339	801.300000
778.571838	806.600000
778.608459	815.000000
778.645020	802.200000
778.681580	814.100000
778.718140	820.200000
778.754761	811.400000
778.791260	817.600000
778.827881	831.400000
778.864441	828.300000
778.900940	831.500000
778.937561	830.900000
778.974121	829.300000
779.010620	816.700000
779.047241	823.800000
779.083801	839.600000
779.120300	837.500000
779.156860	840.400000
779.193359	837.800000
779.229980	844.500000
779.266541	853.200000
779.303040	859.400000
779.339600	850.000000
779.376160	841.400000
779.412659	853.000000
779.449219	847.600000
779.485779	858.700000
779.522278	864.500000
779.558838	861.500000
779.595398	866.000000
779.631897	863.900000
779.668457	856.300000
779.705017	872.100000
779.741516	863.300000
779.778076	857.700000
779.814575	871.000000
779.851074	879.300000
779.887634	870.800000
779.924133	876.000000
779.960693	863.700000
779.997253	875.200000
780.033691	879.900000
780.070251	882.300000
780.106812	896.200000
780.143250	892.100000
780.179810	884.900000
780.216370	892.600000
780.252808	902.800000
780.289368	918.900000
780.325867	919.600000
780.362366	915.600000
780.398865	926.100000
780.435364	914.500000
780.471863	931.000000
780.508423	928.700000
780.544861	937.600000
780.581421	946.300000
780.617920	938.700000
780.654419	936.200000
780.690918	944.000000
780.727417	952.500000
780.763916	949.400000
780.800415	953.200000
780.836914	939.000000
780.873352	943.700000
780.909912	936.200000
780.946411	952.500000
780.982849	955.300000
781.019348	981.000000
781.055786	968.900000
781.092346	959.700000
781.128845	972.800000
781.165283	980.800000
781.201782	987.700000
781.238281	987.600000
781.274719	994.600000
781.311218	981.300000
781.347717	990.700000
781.384155	980.900000
781.420654	981.300000
781.457092	997.000000
781.493591	991.400000
781.530090	985.300000
781.566528	994.100000
781.602966	994.700000
781.639465	992.800000
781.675903	986.200000
781.712402	1002.300000
781.748901	1007.800000
781.785278	996.300000
781.821777	1001.200000
781.858276	997.500000
781.894714	1019.100000
781.931152	1014.300000
781.967651	1017.200000
782.004089	1004.400000
782.040527	1015.300000
782.076965	1016.100000
782.113403	1020.200000
782.149902	1014.500000
782.186340	1009.800000
782.222778	1030.500000
782.259277	1017.800000
782.295654	1007.500000
782.332092	1021.500000
782.368591	1013.500000
782.404968	1010.000000
782.441467	1010.100000
782.477905	1014.900000
782.514282	1006.300000
782.550781	1027.200000
782.587219	1028.800000
782.623596	1032.200000
782.660095	1031.200000
782.696472	1040.500000
782.732910	1041.600000
782.769348	1048.100000
782.805786	1065.000000
782.842224	1057.500000
782.878662	1049.900000
782.915039	1053.900000
782.951477	1049.700000
782.987915	1040.700000
783.024292	1048.300000
783.060730	1051.300000
783.097168	1037.000000
783.133545	1031.300000
783.169983	1026.200000
783.206421	1020.000000
783.242798	1022.400000
783.279236	1010.900000
783.315613	999.900000
783.352051	1001.900000
783.388489	991.500000
783.424866	976.600000
783.461304	985.800000
783.497681	991.200000
783.534058	985.300000
783.570496	981.900000
783.606934	980.500000
783.643250	988.000000
783.679687	996.500000
783.716125	991.400000
783.752441	1007.000000
783.788879	1029.300000
783.825317	1029.200000
783.861633	1027.100000
783.898071	1018.600000
783.934448	1022.200000
783.970825	995.500000
784.007263	917.300000
784.043579	776.800000
784.080017	626.900000
784.116394	491.700000
784.152710	436.400000
784.189148	469.600000
784.225525	551.300000
784.261902	660.600000
784.298279	793.900000
784.334656	914.600000
784.371033	991.400000
784.407410	1046.400000
784.443787	1050.400000
784.480164	1046.300000
784.516541	1025.400000
784.552856	1029.600000
784.589233	1020.700000
784.625610	1016.500000
784.661987	1057.200000
784.698364	1038.000000
784.734741	1027.200000
784.771057	1028.900000
784.807434	1034.300000
784.843811	1058.800000
784.880127	1059.500000
784.916504	1094.400000
784.952881	1093.200000
784.989197	1090.100000
785.025574	1088.100000
785.061951	1099.300000
785.098267	1125.000000
785.134644	1122.600000
785.170959	1129.300000
785.207275	1135.400000
785.243652	1127.700000
785.279968	1117.200000
785.316345	1128.700000
785.352722	1134.400000
785.388977	1131.000000
785.425354	1116.300000
785.461731	1092.200000
785.498047	1086.100000
785.534363	1083.000000
785.570679	1069.800000
785.606995	1080.700000
785.643372	1083.900000
785.679687	1074.200000
785.716003	1053.400000
785.752380	1058.600000
785.788635	1062.800000
785.825012	1088.100000
785.861328	1097.200000
785.897644	1080.500000
785.933960	1100.200000
785.970337	1102.700000
786.006592	1120.900000
786.042908	1132.400000
786.079285	1152.100000
786.115540	1155.600000
786.151855	1154.500000
786.188171	1150.600000
786.224487	1146.600000
786.260803	1154.300000
786.297119	1177.200000
786.333435	1176.300000
786.369751	1165.100000
786.406006	1168.100000
786.442322	1150.600000
786.478638	1140.000000
786.514954	1158.800000
786.551270	1152.700000
786.587585	1166.300000
786.623840	1154.600000
786.660156	1140.800000
786.696472	1128.400000
786.732727	1123.900000
786.769043	1135.000000
786.805298	1118.400000
786.841614	1130.000000
786.877930	1128.400000
786.914124	1111.500000
786.950439	1123.900000
786.986755	1135.700000
787.023010	1151.800000
787.059326	1162.600000
787.095642	1153.800000
787.131836	1176.800000
787.168152	1151.600000
787.204468	1168.000000
787.240723	1194.300000
787.276978	1210.100000
787.313293	1215.600000
787.349548	1214.900000
787.385803	1212.000000
787.422058	1205.100000
787.458313	1203.700000
787.494629	1210.900000
787.530823	1202.400000
787.567139	1194.200000
787.603455	1189.100000
787.639648	1168.500000
787.675903	1169.600000
787.712219	1170.400000
787.748413	1172.900000
787.784729	1176.300000
787.820984	1162.100000
787.857178	1155.700000
787.893494	1149.900000
787.929749	1141.800000
787.965942	1153.900000
788.002258	1168.900000
788.038452	1175.600000
788.074707	1159.400000
788.110962	1168.800000
788.147217	1164.300000
788.183472	1170.300000
788.219727	1183.400000
788.255920	1207.900000
788.292175	1210.000000
788.328430	1198.800000
788.364624	1181.700000
788.400879	1170.800000
788.437134	1177.400000
788.473328	1174.600000
788.509583	1171.000000
788.545837	1164.200000
788.582031	1164.000000
788.618286	1154.500000
788.654480	1152.600000
788.690735	1165.700000
788.726990	1187.600000
788.763184	1182.600000
788.799377	1193.700000
788.835632	1168.200000
788.871826	1192.200000
788.908081	1194.300000
788.944336	1189.000000
788.980469	1205.000000
789.016724	1200.300000
789.052979	1200.900000
789.089111	1176.200000
789.125366	1184.800000
789.161621	1163.100000
789.197754	1176.400000
789.234009	1170.500000
789.270142	1155.100000
789.306396	1146.400000
789.342590	1133.100000
789.378784	1111.500000
789.414978	1107.600000
789.451233	1130.100000
789.487366	1136.500000
789.523621	1139.400000
789.559814	1126.800000
789.595947	1116.300000
789.632202	1128.700000
789.668335	1138.500000
789.704529	1156.200000
789.740784	1182.000000
789.776917	1178.500000
789.813110	1167.500000
789.849304	1178.800000
789.885498	1182.700000
789.921692	1199.200000
789.957886	1203.100000
789.994019	1199.800000
790.030212	1193.300000
790.066406	1192.000000
790.102539	1190.400000
790.138733	1200.700000
790.174927	1198.800000
790.211060	1209.500000
790.247253	1197.400000
790.283386	1180.600000
790.319580	1163.400000
790.355774	1147.700000
790.391907	1160.300000
790.428101	1179.800000
790.464294	1184.600000
790.500427	1187.800000
790.536621	1167.600000
790.572754	1152.800000
790.608887	1155.500000
790.645081	1169.400000
790.681274	1180.600000
790.717346	1174.100000
790.753540	1132.600000
790.789734	1056.200000
790.825867	994.200000
790.862000	985.300000
790.898132	1023.200000
790.934265	1073.800000
790.970459	1127.700000
791.006592	1145.000000
791.042725	1151.600000
791.078918	1150.500000
791.114990	1155.300000
791.151184	1162.700000
791.187317	1183.100000
791.223389	1174.500000
791.259583	1163.700000
791.295715	1165.700000
791.331848	1169.400000
791.367981	1187.600000
791.404114	1190.400000
791.440247	1180.200000
791.476379	1180.700000
791.512451	1163.800000
791.548584	1166.200000
791.584778	1168.200000
791.620850	1184.100000
791.656982	1191.500000
791.693115	1184.100000
791.729187	1174.300000
791.765381	1167.100000
791.801514	1164.800000
791.837585	1170.900000
791.873718	1182.400000
791.909851	1190.600000
791.945923	1196.300000
791.982056	1167.200000
792.018188	1160.000000
792.054260	1163.800000
792.090393	1165.400000
792.126465	1160.100000
792.162598	1170.100000
792.198669	1148.800000
792.234741	1148.900000
792.270874	1141.000000
792.307007	1127.500000
792.343079	1133.100000
792.379150	1147.800000
792.415283	1133.400000
792.451355	1134.000000
792.487488	1110.900000
792.523560	1116.100000
792.559631	1116.100000
792.595764	1116.900000
792.631836	1121.400000
792.667908	1126.400000
792.703979	1112.300000
792.740051	1109.900000
792.776184	1116.800000
792.812256	1116.300000
792.848328	1127.100000
792.884399	1138.100000
792.920471	1129.300000
792.956543	1116.200000
792.992615	1116.500000
793.028748	1114.000000
793.064758	1119.900000
793.100830	1138.500000
793.136963	1151.500000
793.172974	1147.200000
793.209045	1142.200000
793.245178	1158.300000
793.281189	1137.500000
793.317261	1138.400000
793.353271	1143.900000
793.389404	1152.100000
793.425476	1143.900000
793.461487	1131.200000
793.497559	1123.300000
793.533630	1138.300000
793.569641	1135.600000
793.605713	1131.500000
793.641785	1139.700000
793.677795	1147.100000
793.713867	1133.800000
793.749878	1137.300000
793.785950	1149.000000
793.822021	1154.800000
793.858032	1140.700000
793.894104	1153.100000
793.930176	1136.100000
793.966187	1136.100000
794.002258	1127.500000
794.038269	1129.600000
794.074280	1126.400000
794.110352	1147.200000
794.146423	1121.500000
794.182373	1114.200000
794.218445	1110.000000
794.254517	1105.200000
794.290466	1093.700000
794.326538	1091.900000
794.362549	1100.500000
794.398560	1106.600000
794.434631	1106.200000
794.470581	1077.400000
794.506653	1072.600000
794.542664	1073.900000
794.578674	1074.400000
794.614685	1069.800000
794.650757	1062.300000
794.686707	1065.300000
794.722778	1053.300000
794.758789	1060.300000
794.794739	1066.900000
794.830811	1092.700000
794.866821	1108.000000
794.902771	1098.400000
794.938843	1081.600000
794.974792	1077.600000
795.010803	1088.800000
795.046814	1086.200000
795.082825	1073.900000
795.118835	1087.000000
795.154846	1066.800000
795.190796	1074.200000
795.226807	1046.800000
795.262817	1054.800000
795.298767	1059.200000
795.334778	1062.500000
795.370850	1047.600000
795.406799	1048.600000
795.442810	1027.000000
795.478821	1025.600000
795.514709	1022.100000
795.550720	1044.100000
795.586670	1023.100000
795.622681	1029.300000
795.658691	1023.700000
795.694641	1024.000000
795.730652	1011.600000
795.766663	1020.900000
795.802551	1020.600000
795.838562	1035.000000
795.874573	1021.400000
795.910522	1018.500000
795.946472	1008.200000
795.982483	1020.600000
796.018433	1022.800000
796.054382	1024.000000
796.090393	1010.400000
796.126282	1002.800000
796.162292	993.200000
796.198242	988.800000
796.234192	992.900000
796.270203	994.000000
796.306091	998.700000
796.342041	1013.900000
796.378052	999.100000
796.413940	994.100000
796.449951	998.400000
796.485901	993.600000
796.521790	992.700000
796.557800	1005.000000
796.593689	1004.700000
796.629639	992.100000
796.665649	988.000000
796.701599	982.100000
796.737488	985.100000
796.773437	988.900000
796.809387	990.700000
796.845337	989.800000
796.881287	977.600000
796.917175	957.800000
796.953125	964.600000
796.989075	974.000000
797.024963	975.600000
797.060913	973.500000
797.096863	968.900000
797.132751	964.900000
797.168701	950.200000
797.204590	958.500000
797.240540	959.000000
797.276489	967.800000
797.312439	970.700000
797.348328	966.700000
797.384277	955.200000
797.420166	942.300000
797.456055	947.800000
797.492004	943.800000
797.527893	946.900000
797.563843	955.900000
797.599731	940.000000
797.635620	925.700000
797.671570	931.500000
797.707520	932.900000
797.743347	932.300000
797.779297	943.500000
797.815125	937.400000
797.851074	932.700000
797.887024	926.000000
797.922913	916.200000
797.958801	928.700000
797.994690	920.000000
798.030579	932.900000
798.066467	936.400000
798.102356	911.900000
798.138245	906.000000
798.174133	905.100000
798.210083	917.000000
798.245911	923.600000
798.281799	924.700000
798.317749	919.500000
798.353577	908.100000
798.389465	905.900000
798.425293	904.800000
798.461243	899.200000
798.497131	905.700000
798.532959	901.600000
798.568848	905.400000
798.604736	892.600000
798.640564	884.300000
798.676453	887.400000
798.712402	893.600000
798.748230	899.300000
798.784119	893.200000
798.820007	897.000000
798.855835	890.500000
798.891724	881.800000
798.927551	883.400000
798.963379	889.300000
798.999268	887.100000
799.035095	880.100000
799.070984	869.200000
799.106873	864.800000
799.142700	871.900000
799.178528	866.000000
799.214417	861.600000
799.250244	876.700000
799.286133	871.800000
799.321960	869.100000
799.357788	860.200000
799.393677	868.400000
799.429504	860.900000
799.465332	861.900000
799.501221	871.300000
799.537048	863.300000
799.572876	856.700000
799.608704	859.000000
799.644531	868.200000
799.680359	862.900000
799.716248	864.000000
799.752014	869.300000
799.787903	863.600000
799.823730	860.800000
799.859558	849.000000
799.895386	855.100000
799.931213	852.900000
799.967041	841.900000
800.002869	841.700000
800.038696	857.000000
800.074463	831.100000
800.110352	833.500000
800.146179	827.600000
800.181946	835.700000
800.217773	838.400000
800.253540	833.900000
800.289429	826.800000
800.325256	826.200000
800.361023	816.700000
800.396851	820.200000
800.432678	824.200000
800.468445	820.300000
800.504272	812.300000
800.540100	792.800000
800.575867	794.600000
800.611694	797.300000
800.647461	785.400000
800.683289	793.400000
800.719116	799.700000
800.754883	793.100000
800.790649	772.600000
800.826477	766.600000
800.862244	786.000000
800.898071	771.800000
800.933838	772.300000
800.969604	766.400000
801.005432	764.100000
801.041199	763.100000
801.076965	758.200000
801.112793	749.300000
801.148560	740.500000
801.184326	743.800000
801.220154	745.600000
801.255859	736.800000
801.291687	736.600000
801.327454	728.100000
801.363281	726.800000
801.398987	726.500000
801.434814	728.600000
801.470520	736.100000
801.506287	720.800000
801.542114	714.700000
801.577820	717.900000
801.613647	716.600000
801.649414	710.000000
801.685120	712.800000
801.720886	720.800000
801.756714	707.700000
801.792419	702.700000
801.828186	695.200000
801.863892	706.900000
801.899719	694.400000
801.935486	688.700000
801.971252	701.600000
802.006958	693.500000
802.042725	686.400000
802.078430	684.900000
802.114197	679.900000
802.149963	693.000000
802.185669	683.800000
802.221436	681.500000
802.257202	680.800000
802.292908	676.300000
802.328674	685.700000
802.364441	682.500000
802.400146	675.900000
802.435913	672.600000
802.471558	670.000000
802.507324	665.800000
802.543091	654.700000
802.578796	668.100000
802.614502	670.900000
802.650269	674.500000
802.685974	657.900000
802.721741	658.700000
802.757446	662.800000
802.793152	656.300000
802.828918	665.200000
802.864624	661.200000
802.900330	660.200000
802.936035	654.100000
802.971802	650.700000
803.007446	649.800000
803.043213	640.700000
803.078857	651.100000
803.114624	639.100000
803.150330	642.800000
803.185974	632.500000
803.221741	633.000000
803.257446	638.200000
803.293152	641.400000
803.328857	633.800000
803.364563	626.500000
803.400208	622.000000
803.435974	630.200000
803.471680	623.300000
803.507324	618.600000
803.543030	624.700000
803.578735	624.900000
803.614441	611.100000
803.650146	622.400000
803.685791	611.400000
803.721497	611.600000
803.757202	603.300000
803.792847	609.900000
803.828552	603.600000
803.864258	603.500000
803.899902	599.500000
803.935608	584.300000
803.971313	594.500000
804.006958	592.700000
804.042664	586.800000
804.078308	591.800000
804.113953	582.500000
804.149658	590.400000
804.185364	580.000000
804.221008	590.200000
804.256714	579.900000
804.292297	575.900000
804.328003	574.900000
804.363708	567.900000
804.399292	568.700000
804.434998	568.200000
804.470703	558.900000
804.506287	573.000000
804.541992	567.000000
804.577637	569.700000
804.613281	555.700000
804.648926	556.100000
804.684570	560.000000
804.720215	556.000000
804.755920	557.900000
804.791565	552.500000
804.827209	558.500000
804.862854	550.300000
804.898437	544.700000
804.934143	548.300000
804.969788	546.400000
805.005371	548.400000
805.041077	549.900000
805.076721	549.300000
805.112305	537.000000
805.147949	538.700000
805.183655	534.300000
805.219238	539.600000
805.254883	538.900000
805.290466	544.300000
805.326111	536.600000
805.361755	523.400000
805.397400	529.700000
805.432983	535.600000
805.468628	534.000000
805.504211	539.800000
805.539856	531.100000
805.575500	538.400000
805.611084	526.900000
805.646729	518.300000
805.682373	522.300000
805.717957	532.400000
805.753601	532.000000
805.789246	513.900000
805.824768	522.600000
805.860413	529.000000
805.895996	516.200000
805.931641	516.200000
805.967224	525.100000
806.002869	514.400000
806.038452	526.400000
806.074036	522.800000
806.109619	507.900000
806.145264	506.900000
806.180847	507.900000
806.216431	502.100000
806.252014	508.000000
806.287659	503.800000
806.323181	513.300000
806.358826	510.400000
806.394409	492.100000
806.429993	496.200000
806.465576	507.900000
806.501160	491.800000
806.536743	484.400000
806.572327	493.500000
806.607910	490.100000
806.643494	489.600000
806.679077	486.900000
806.714661	489.500000
806.750244	489.700000
806.785828	482.700000
806.821350	483.600000
806.856934	486.500000
806.892517	481.300000
806.928101	477.800000
806.963684	475.000000
806.999268	483.600000
807.034790	465.800000
807.070374	471.800000
807.105896	465.700000
807.141479	465.000000
807.177063	472.800000
807.212585	460.500000
807.248169	462.300000
807.283752	469.300000
807.319275	460.400000
807.354858	461.100000
807.390381	457.600000
807.425903	457.500000
807.461487	452.600000
807.497070	448.400000
807.532593	448.700000
807.568115	445.600000
807.603699	443.700000
807.639221	438.300000
807.674744	440.400000
807.710266	447.500000
807.745850	450.500000
807.781372	441.300000
807.816895	436.100000
807.852417	442.100000
807.888000	436.800000
807.923523	433.200000
807.959045	437.800000
807.994629	426.900000
808.030090	424.600000
808.065613	434.400000
808.101135	435.200000
808.136658	432.300000
808.172241	428.700000
808.207764	428.000000
808.243225	418.600000
808.278809	418.900000
808.314270	427.300000
808.349792	414.100000
808.385315	413.200000
808.420837	418.200000
808.456360	424.500000
808.491882	422.300000
808.527344	416.000000
808.562866	424.600000
808.598389	415.400000
808.633850	409.200000
808.669434	404.400000
808.704895	414.700000
808.740417	420.900000
808.775940	411.800000
808.811462	404.700000
808.846924	399.600000
808.882385	394.300000
808.917847	393.800000
808.953369	396.400000
808.988892	391.500000
809.024353	397.100000
809.059875	397.000000
809.095398	393.100000
809.130798	386.800000
809.166321	387.300000
809.201843	385.400000
809.237305	388.500000
809.272766	395.200000
809.308228	379.500000
809.343750	382.500000
809.379211	383.600000
809.414734	383.600000
809.450134	389.700000
809.485657	373.100000
809.521118	378.700000
809.556580	379.200000
809.592102	374.300000
809.627502	374.100000
809.663025	372.900000
809.698486	367.300000
809.733887	365.300000
809.769409	368.900000
809.804871	357.600000
809.840271	359.300000
809.875793	366.500000
809.911194	370.600000
809.946655	361.400000
809.982178	355.800000
810.017639	359.900000
810.053040	358.600000
810.088501	355.000000
810.123901	353.800000
810.159424	348.900000
810.194885	346.200000
810.230286	351.100000
810.265747	345.700000
810.301208	343.900000
810.336609	346.400000
810.372070	337.500000
810.407532	340.300000
810.442932	346.600000
810.478394	349.800000
810.513794	341.600000
810.549255	342.600000
810.584717	340.000000
810.620117	330.100000
810.655518	340.000000
810.690979	337.000000
810.726379	336.700000
810.761841	325.800000
810.797302	328.700000
810.832642	327.300000
810.868103	338.600000
810.903564	327.700000
810.938904	334.200000
810.974365	321.400000
811.009827	328.300000
811.045166	325.000000
811.080627	315.700000
811.115967	322.700000
811.151428	329.300000
811.186829	320.700000
811.222229	322.400000
811.257629	316.000000
811.293091	322.800000
811.328430	329.000000
811.363892	323.600000
811.399292	326.100000
811.434631	318.500000
811.470093	322.800000
811.505493	314.700000
811.540833	314.900000
811.576294	321.900000
811.611694	315.600000
811.647034	309.000000
811.682434	311.700000
811.717773	313.800000
811.753235	317.900000
811.788635	312.300000
811.823975	313.900000
811.859375	321.900000
811.894775	306.700000
811.930115	308.000000
811.965515	308.400000
812.000916	311.400000
812.036255	304.400000
812.071655	310.000000
812.106995	304.200000
812.142395	304.500000
812.177795	311.900000
812.213196	308.700000
812.248474	309.000000
812.283875	297.600000
812.319214	305.600000
812.354614	304.000000
812.390015	301.300000
812.425293	300.200000
812.460693	300.400000
812.496094	298.100000
812.531433	291.600000
812.566772	292.200000
812.602173	295.600000
812.637451	297.800000
812.672852	293.300000
812.708191	298.500000
812.743530	291.900000
812.778931	283.300000
812.814270	288.000000
812.849609	296.200000
812.884949	288.800000
812.920227	282.700000
812.955627	299.300000
812.990967	289.500000
813.026306	287.000000
813.061646	275.900000
813.096985	272.700000
813.132324	269.200000
813.167664	275.300000
813.203003	283.500000
813.238281	269.400000
813.273682	270.500000
813.308960	268.100000
813.344299	269.600000
813.379639	279.700000
813.414978	271.300000
813.450256	269.300000
813.485596	277.500000
813.520874	267.700000
813.556213	272.000000
813.591614	274.700000
813.626831	265.600000
813.662170	270.100000
813.697510	280.900000
813.732788	263.000000
813.768127	269.800000
813.803467	269.500000
813.838745	264.100000
813.874084	268.100000
813.909363	267.600000
813.944641	268.000000
813.979980	257.800000
814.015320	262.400000
814.050598	259.200000
814.085876	265.100000
814.121155	261.700000
814.156494	259.800000
814.191772	260.100000
814.227051	255.000000
814.262390	258.700000
814.297668	258.800000
814.332947	262.700000
814.368225	252.800000
814.403564	258.400000
814.438782	253.500000
814.474121	254.800000
814.509338	252.000000
814.544617	261.300000
814.579956	250.300000
814.615173	261.000000
814.650513	258.800000
814.685791	250.200000
814.721008	253.700000
814.756348	254.100000
814.791626	246.300000
814.826843	250.800000
814.862122	250.100000
814.897400	247.400000
814.932678	251.200000
814.967957	248.800000
815.003235	247.700000
815.038452	242.400000
815.073730	240.800000
815.108948	250.600000
815.144226	249.100000
815.179504	252.200000
815.214722	236.300000
815.250000	237.100000
815.285278	245.800000
815.320496	237.700000
815.355774	242.500000
815.391052	244.800000
815.426270	239.500000
815.461487	238.000000
815.496765	236.400000
815.531982	231.900000
815.567261	236.300000
815.602539	244.900000
815.637695	239.900000
815.672974	241.600000
815.708191	240.800000
815.743408	243.200000
815.778687	234.800000
815.813904	245.400000
815.849121	227.400000
815.884399	228.300000
815.919556	230.500000
815.954834	231.000000
815.990051	235.200000
816.025269	238.500000
816.060486	229.100000
816.095703	229.100000
816.130920	233.000000
816.166199	227.600000
816.201416	233.300000
816.236572	237.200000
816.271851	227.700000
816.307007	234.900000
816.342224	222.600000
816.377441	228.500000
816.412659	221.700000
816.447876	231.300000
816.483093	227.200000
816.518250	227.700000
816.553467	225.400000
816.588745	230.300000
816.623901	222.800000
816.659119	217.800000
816.694275	222.900000
816.729492	219.800000
816.764709	255.400000
816.799927	217.800000
816.835083	222.500000
816.870300	216.700000
816.905457	220.300000
816.940674	223.600000
816.975830	218.400000
817.010986	216.600000
817.046204	216.800000
817.081421	214.000000
817.116577	213.900000
817.151733	223.900000
817.186951	224.500000
817.222107	219.300000
817.257324	221.500000
817.292419	218.500000
817.327637	211.400000
817.362854	214.800000
817.398010	209.800000
817.433167	212.500000
817.468323	212.600000
817.503479	213.800000
817.538635	222.300000
817.573853	217.900000
817.608948	215.400000
817.644165	210.200000
817.679321	209.700000
817.714478	210.000000
817.749634	214.100000
817.784790	225.100000
817.819946	220.600000
817.855103	202.900000
817.890198	212.200000
817.925415	203.300000
817.960571	213.700000
817.995667	211.700000
818.030823	213.300000
818.066040	206.400000
818.101135	210.300000
818.136292	209.600000
818.171448	203.700000
818.206543	209.800000
818.241699	213.700000
818.276855	209.500000
818.311951	209.000000
818.347107	206.000000
818.382263	211.900000
818.417358	216.700000
818.452515	217.100000
818.487610	216.200000
818.522766	205.400000
818.557922	218.100000
818.593018	211.800000
818.628113	208.800000
818.663269	203.500000
818.698364	209.800000
818.733521	206.800000
818.768677	211.400000
818.803711	202.300000
818.838867	204.500000
818.874023	206.800000
818.909058	203.200000
818.944214	202.900000
818.979370	207.800000
819.014404	206.800000
819.049561	201.900000
819.084595	208.700000
819.119751	198.600000
819.154846	207.800000
819.189941	202.600000
819.225037	198.500000
819.260193	194.400000
819.295227	197.400000
819.330322	193.200000
819.365479	194.000000
819.400513	228.000000
819.435608	191.900000
819.470764	190.600000
819.505798	195.500000
819.540894	197.800000
819.575989	195.400000
819.611084	204.400000
819.646179	204.700000
819.681213	202.600000
819.716309	197.100000
819.751404	197.100000
819.786438	202.400000
819.821533	195.600000
819.856628	201.500000
819.891663	202.100000
819.926758	209.100000
819.961853	206.200000
819.996887	195.800000
820.031982	202.200000
820.067017	197.000000
820.102112	226.300000
820.137207	196.700000
820.172302	213.600000
820.207275	193.300000
820.242371	195.500000
820.277405	195.600000
820.312500	197.400000
820.347534	198.600000
820.382568	204.000000
820.417664	194.500000
820.452759	194.500000
820.487732	193.800000
820.522827	195.800000
820.557861	192.300000
820.592896	195.000000
820.627930	194.500000
820.662964	192.300000
820.698059	198.600000
820.733093	195.600000
820.768127	199.000000
820.803162	195.700000
820.838196	192.600000
820.873230	198.200000
820.908264	195.300000
820.943298	192.900000
820.978333	201.500000
821.013367	196.100000
821.048401	200.900000
821.083435	203.600000
821.118469	188.000000
821.153503	200.800000
821.188477	196.800000
821.223511	188.100000
821.258484	196.400000
821.293579	197.700000
821.328613	188.400000
821.363647	194.200000
821.398621	189.700000
821.433655	191.500000
821.468628	208.800000
821.503662	194.300000
821.538696	199.700000
821.573669	191.500000
821.608704	199.200000
821.643677	191.100000
821.678650	199.600000
821.713684	206.200000
821.748718	193.700000
821.783691	193.600000
821.818726	196.300000
821.853638	196.700000
821.888672	194.300000
821.923706	195.300000
821.958618	192.000000
821.993652	193.100000
822.028687	199.800000
822.063599	201.400000
822.098633	196.300000
822.133667	190.800000
822.168579	192.500000
822.203613	196.000000
822.238586	191.600000
822.273560	196.500000
822.308533	191.000000
822.343567	192.000000
822.378479	193.400000
822.413452	193.000000
822.448425	190.400000
822.483398	199.800000
822.518372	198.900000
822.553345	190.600000
822.588318	202.200000
822.623291	193.700000
822.658203	191.500000
822.693237	194.300000
822.728210	190.700000
822.763123	196.300000
822.798096	190.100000
822.833069	194.400000
822.867981	195.800000
822.902954	195.800000
822.937927	198.000000
822.972900	206.600000
823.007874	186.700000
823.042725	197.700000
823.077698	206.600000
823.112671	190.900000
823.147583	194.100000
823.182556	197.600000
823.217529	198.500000
823.252441	192.800000
823.287415	209.200000
823.322388	197.800000
823.357239	194.400000
823.392212	202.200000
823.427185	199.600000
823.462097	191.100000
823.497009	198.400000
823.531982	192.400000
823.566895	195.100000
823.601807	189.000000
823.636719	193.000000
823.671631	198.000000
823.706604	191.600000
823.741455	197.100000
823.776428	187.500000
823.811340	198.400000
823.846252	199.800000
823.881165	200.800000
823.916138	194.400000
823.950989	203.200000
823.985901	190.700000
824.020813	195.100000
824.055725	192.300000
824.090637	190.800000
824.125610	194.700000
824.160461	194.600000
824.195374	196.300000
824.230225	200.900000
824.265198	186.100000
824.300110	191.100000
824.334961	205.700000
824.369873	184.300000
824.404785	196.400000
824.439636	201.000000
824.474548	185.200000
824.509460	183.100000
824.544312	199.900000
824.579224	195.500000
824.614075	191.100000
824.648987	193.700000
824.683899	192.300000
824.718811	190.900000
824.753662	201.000000
824.788574	199.600000
824.823364	196.700000
824.858276	190.200000
824.893188	199.600000
824.928040	199.800000
824.962952	198.300000
824.997803	198.500000
825.032654	195.800000
825.067566	197.400000
825.102417	193.700000
825.137268	192.600000
825.172119	193.800000
825.206970	192.300000
825.241882	193.800000
825.276733	190.400000
825.311646	191.400000
825.346436	188.800000
825.381348	189.300000
825.416138	195.000000
825.450989	189.200000
825.485901	185.100000
825.520691	186.500000
825.555542	186.600000
825.590454	193.500000
825.625244	188.000000
825.660095	200.700000
825.695007	196.300000
825.729797	193.000000
825.764648	188.900000
825.799438	192.300000
825.834290	195.000000
825.869202	187.400000
825.903992	194.900000
825.938843	190.200000
825.973694	189.000000
826.008484	206.900000
826.043335	187.800000
826.078186	184.400000
826.112976	199.300000
826.147827	198.700000
826.182678	202.500000
826.217468	186.000000
826.252319	197.800000
826.287109	190.100000
826.321899	200.900000
826.356750	191.300000
826.391541	188.300000
826.426392	198.700000
826.461182	193.600000
826.495972	187.000000
826.530823	186.200000
826.565613	194.400000
826.600403	188.700000
826.635254	196.600000
826.670044	186.400000
826.704834	186.200000
826.739685	188.800000
826.774475	194.700000
826.809265	193.100000
826.844055	190.800000
826.878906	200.100000
826.913635	195.400000
826.948425	195.800000
826.983215	194.000000
827.018005	198.900000
827.052856	190.100000
827.087585	196.700000
827.122375	185.400000
827.157227	192.900000
827.191956	205.500000
827.226746	189.000000
827.261536	196.100000
827.296265	186.100000
827.331116	189.000000
827.365906	196.100000
827.400635	188.700000
827.435425	185.000000
827.470215	198.500000
827.504944	191.000000
827.539734	197.200000
827.574463	193.300000
827.609253	199.800000
827.644043	193.400000
827.678772	198.200000
827.713562	189.700000
827.748352	191.000000
827.783081	189.100000
827.817871	194.200000
827.852600	189.600000
827.887329	195.000000
827.922119	183.800000
827.956848	198.000000
827.991638	206.600000
828.026367	195.400000
828.061157	194.400000
828.095886	194.400000
828.130615	208.800000
828.165344	184.300000
828.200073	192.800000
828.234863	191.200000
828.269592	192.800000
828.304321	198.500000
828.339111	194.700000
828.373779	188.100000
828.408569	199.200000
828.443298	198.500000
828.477966	190.700000
828.512756	191.600000
828.547424	189.100000
828.582214	191.400000
828.616943	192.200000
828.651672	191.500000
828.686340	197.600000
828.721130	189.300000
828.755798	193.400000
828.790527	193.400000
828.825256	194.700000
828.859924	194.400000
828.894714	198.700000
828.929443	201.100000
828.964111	189.400000
828.998840	195.200000
829.033569	190.300000
829.068237	189.200000
829.102966	189.300000
829.137634	195.200000
829.172363	194.000000
829.207092	194.200000
829.241821	188.200000
829.276489	185.700000
829.311157	193.400000
829.345825	191.600000
829.380554	196.200000
829.415283	189.600000
829.449951	186.500000
829.484619	200.900000
829.519348	202.000000
829.554016	192.800000
829.588745	191.100000
829.623413	187.200000
829.658081	206.000000
829.692749	187.000000
829.727417	196.800000
829.762146	195.000000
829.796814	188.500000
829.831482	191.100000
829.866150	194.800000
829.900879	189.700000
829.935486	196.000000
829.970154	193.100000
830.004883	203.800000
830.039490	193.500000
830.074219	189.500000
830.108887	194.100000
830.143494	193.100000
830.178223	186.300000
830.212891	190.500000
830.247498	192.100000
830.282166	199.100000
830.316772	200.400000
830.351501	190.600000
830.386169	190.800000
830.420776	189.500000
830.455444	192.300000
830.490112	191.100000
830.524719	183.600000
830.559387	195.000000
830.594055	195.200000
830.628662	191.600000
830.663330	191.500000
830.697998	199.800000
830.732605	192.100000
830.767273	194.400000
830.801941	192.000000
830.836487	202.000000
830.871155	195.000000
830.905762	194.300000
830.940430	185.600000
830.975098	190.200000
831.009644	194.300000
831.044312	201.800000
831.078979	195.100000
831.113525	182.800000
831.148193	192.700000
831.182861	191.600000
831.217407	195.400000
831.252075	210.900000
831.286621	190.600000
831.321289	188.200000
831.355896	192.000000
831.390564	201.100000
831.425110	193.900000
831.459778	199.700000
831.494324	206.200000
831.528931	196.700000
831.563599	197.000000
831.598145	186.100000
831.632751	192.400000
831.667419	191.600000
831.701965	194.500000
831.736572	196.600000
831.771179	185.900000
831.805786	190.900000
831.840393	199.000000
831.874939	184.200000
831.909546	197.100000
831.944153	184.300000
831.978760	191.300000
832.013306	186.600000
832.047913	199.200000
832.082458	200.900000
832.117065	189.300000
832.151672	201.300000
832.186218	194.000000
832.220825	193.900000
832.255432	184.900000
832.289978	188.300000
832.324585	195.500000
832.359192	195.400000
832.393677	190.100000
832.428284	194.300000
832.462830	191.600000
832.497437	190.500000
832.531982	196.500000
832.566589	191.300000
832.601135	194.800000
832.635681	184.000000
832.670227	193.100000
832.704773	200.900000
832.739380	195.000000
832.773926	193.000000
832.808472	188.500000
832.843079	192.200000
832.877563	195.200000
832.912170	189.300000
832.946716	185.000000
832.981201	199.200000
833.015808	195.300000
833.050293	192.800000
833.084839	189.000000
833.119446	191.000000
833.153992	196.900000
833.188477	192.400000
833.223022	188.000000
833.257568	195.000000
833.292114	199.000000
833.326660	205.400000
833.361145	191.500000
833.395691	185.100000
833.430237	192.500000
833.464783	195.700000
833.499329	189.000000
833.533875	186.800000
833.568359	195.900000
833.602905	198.200000
833.637390	198.500000
833.671875	188.600000
833.706421	191.200000
833.740906	188.900000
833.775452	181.800000
833.809998	190.300000
833.844482	200.300000
833.879028	192.000000
833.913513	188.600000
833.947998	195.300000
833.982544	187.200000
834.017090	189.000000
834.051514	180.900000
834.086060	194.200000
834.120544	190.900000
834.155029	194.000000
834.189575	190.200000
834.223999	195.100000
834.258545	194.400000
834.293030	193.500000
834.327515	192.600000
834.362000	189.700000
834.396545	196.800000
834.430969	191.900000
834.465454	195.900000
834.500000	185.100000
834.534424	195.500000
834.568970	182.900000
834.603455	185.200000
834.637878	188.700000
834.672363	193.100000
834.706909	193.400000
834.741333	192.900000
834.775818	185.300000
834.810242	187.800000
834.844727	193.300000
834.879211	191.300000
834.913635	193.400000
834.948181	194.900000
834.982666	192.900000
835.017090	190.900000
835.051575	194.500000
835.086060	190.800000
835.120483	194.900000
835.154907	197.300000
835.189331	192.600000
835.223816	195.300000
835.258301	186.300000
835.292786	187.200000
835.327209	197.600000
835.361694	188.200000
835.396057	189.000000
835.430542	195.500000
835.465027	193.000000
835.499390	186.700000
835.533875	210.500000
835.568359	190.500000
835.602722	184.400000
835.637207	194.200000
835.671692	185.500000
835.706055	208.900000
835.740540	194.400000
835.774902	195.200000
835.809387	192.300000
835.843811	187.100000
835.878235	200.700000
835.912659	186.200000
835.947083	189.800000
835.981506	193.300000
836.015930	184.600000
836.050354	197.400000
836.084778	202.100000
836.119202	198.000000
836.153625	205.800000
836.187988	188.900000
836.222473	189.900000
836.256897	194.400000
836.291260	191.300000
836.325684	195.200000
836.360046	190.300000
836.394470	192.300000
836.428894	200.100000
836.463318	190.200000
836.497681	197.600000
836.532104	200.600000
836.566467	195.000000
836.600891	192.100000
836.635315	199.200000
836.669678	196.000000
836.704102	197.200000
836.738525	193.200000
836.772888	184.000000
836.807251	189.700000
836.841675	195.100000
836.876038	186.900000
836.910461	188.800000
836.944763	196.000000
836.979187	188.400000
837.013611	198.700000
837.047974	185.100000
837.082336	203.900000
837.116699	195.700000
837.151062	191.600000
837.185486	186.800000
837.219849	190.200000
837.254211	195.600000
837.288574	191.600000
837.322937	188.500000
837.357300	179.200000
837.391663	205.100000
837.426086	198.500000
837.460388	191.900000
837.494751	198.400000
837.529114	191.600000
837.563477	197.500000
837.597839	195.000000
837.632141	192.100000
837.666565	190.500000
837.700928	195.800000
837.735229	196.800000
837.769592	195.700000
837.803955	198.200000
837.838257	191.600000
837.872620	190.700000
837.906982	200.500000
837.941284	194.000000
837.975647	194.000000
838.010010	199.200000
838.044312	191.700000
838.078674	190.300000
838.112976	193.800000
838.147339	196.600000
838.181702	192.800000
838.216003	201.800000
838.250366	194.500000
838.284668	196.100000
838.318970	186.300000
838.353333	192.300000
838.387634	191.100000
838.421936	194.200000
838.456299	193.800000
838.490601	201.100000
838.524902	195.900000
838.559265	198.000000
838.593567	197.000000
838.627869	187.200000
838.662170	195.500000
838.696472	185.800000
838.730774	188.600000
838.765137	196.800000
838.799377	177.100000
838.833740	193.800000
838.868042	198.800000
838.902283	184.300000
838.936646	198.800000
838.970947	194.300000
839.005188	198.100000
839.039551	185.300000
839.073792	199.800000
839.108093	188.300000
839.142395	201.900000
839.176697	186.200000
839.210937	192.800000
839.245300	204.300000
839.279541	187.400000
839.313843	190.500000
839.348145	196.100000
839.382385	197.900000
839.416687	198.000000
839.450989	197.100000
839.485229	192.300000
839.519531	187.800000
839.553833	198.700000
839.588013	193.600000
839.622314	192.600000
839.656555	195.700000
839.690857	192.800000
839.725159	186.500000
839.759460	192.400000
839.793640	190.900000
839.827942	192.700000
839.862183	188.100000
839.896423	193.700000
839.930725	201.600000
839.964966	200.000000
839.999207	201.000000
840.033508	201.300000
840.067688	190.700000
840.101990	200.600000
840.136230	193.300000
840.170471	200.900000
840.204712	189.100000
840.238953	188.600000
840.273193	194.600000
840.307434	196.000000
840.341736	187.800000
840.375916	185.200000
840.410217	189.900000
840.444397	196.600000
840.478638	195.900000
840.512878	199.000000
840.547119	192.900000
840.581360	196.200000
840.615601	203.000000
840.649780	201.000000
840.684021	193.500000
840.718262	202.900000
840.752441	198.700000
840.786682	193.500000
840.820862	195.800000
840.855103	201.000000
840.889343	193.600000
840.923584	198.600000
840.957764	195.400000
840.992004	196.100000
841.026184	208.000000
841.060425	190.700000
841.094666	189.900000
841.128845	196.900000
841.163025	194.900000
841.197266	196.300000
841.231445	195.200000
841.265686	193.700000
841.299866	189.500000
841.334045	201.700000
841.368286	192.700000
841.402405	202.100000
841.436646	197.800000
841.470825	191.900000
841.505005	192.700000
841.539185	189.700000
841.573425	189.300000
841.607544	193.800000
841.641785	193.600000
841.675964	188.900000
841.710144	194.100000
841.744324	192.200000
841.778503	191.500000
841.812683	188.700000
841.846863	202.100000
841.881042	199.900000
841.915222	191.400000
841.949402	209.600000
841.983521	184.200000
842.017700	192.200000
842.051880	194.200000
842.086060	195.200000
842.120239	194.400000
842.154419	191.700000
842.188538	193.400000
842.222717	189.000000
842.256897	203.300000
842.291016	192.100000
842.325195	195.400000
842.359375	204.500000
842.393494	200.200000
842.427673	194.200000
842.461853	197.600000
842.495911	201.900000
842.530090	196.900000
842.564209	194.500000
842.598389	196.100000
842.632568	195.100000
842.666626	198.700000
842.700806	190.900000
842.734985	192.700000
842.769043	198.300000
842.803223	192.300000
842.837402	192.500000
842.871460	191.400000
842.905640	202.200000
842.939697	190.200000
842.973877	196.000000
843.007996	200.000000
843.042175	203.200000
843.076233	190.600000
843.110413	195.000000
843.144470	202.900000
843.178589	200.200000
843.212769	190.400000
843.246826	199.500000
843.280945	192.600000
843.315125	192.300000
843.349182	189.400000
843.383301	201.200000
843.417419	205.100000
843.451538	192.900000
843.485657	193.300000
843.519714	192.200000
843.553833	195.600000
843.587952	189.700000
843.622070	189.200000
843.656128	197.000000
843.690247	192.100000
843.724304	191.000000
843.758423	195.300000
843.792542	191.800000
843.826599	193.700000
843.860718	191.700000
843.894836	187.400000
843.928894	194.200000
843.963013	195.800000
843.997070	192.300000
844.031128	187.500000
844.065247	198.100000
844.099304	198.200000
844.133362	193.700000
844.167480	196.800000
844.201599	202.400000
844.235596	196.500000
844.269714	195.700000
844.303711	196.300000
844.337830	185.800000
844.371948	197.500000
844.405945	193.900000
844.440063	188.200000
844.474121	208.200000
844.508118	192.700000
844.542236	193.700000
844.576294	193.600000
844.610352	189.200000
844.644409	193.100000
844.678406	185.300000
844.712524	197.800000
844.746582	201.200000
844.780640	194.000000
844.814636	194.400000
844.848755	204.500000
844.882751	192.400000
844.916809	198.800000
844.950867	196.600000
844.984863	201.700000
845.018921	191.600000
845.052979	190.400000
845.086975	193.600000
845.121033	186.800000
845.155090	188.800000
845.189087	199.400000
845.223145	189.300000
845.257141	193.700000
845.291199	197.600000
845.325256	201.000000
845.359253	193.800000
845.393250	203.500000
845.427307	194.000000
845.461304	195.500000
845.495361	194.600000
845.529358	206.400000
845.563354	192.400000
845.597412	189.900000
845.631409	202.500000
845.665405	201.200000
845.699463	199.500000
845.733459	192.500000
845.767456	200.200000
845.801453	193.200000
845.835449	201.900000
845.869446	198.600000
845.903503	199.700000
845.937439	191.800000
845.971497	201.800000
846.005493	188.300000
846.039429	198.800000
846.073486	205.500000
846.107483	192.900000
846.141418	194.300000
846.175476	194.800000
846.209473	201.000000
846.243408	190.400000
846.277405	196.100000
846.311401	190.300000
846.345337	194.900000
846.379395	199.800000
846.413330	190.000000
846.447327	203.000000
846.481323	189.200000
846.515259	191.100000
846.549255	195.200000
846.583252	196.600000
846.617187	188.800000
846.651184	195.600000
846.685120	192.600000
846.719055	203.000000
846.753052	200.100000
846.786987	199.800000
846.820984	187.500000
846.854980	201.500000
846.888916	190.200000
846.922852	196.000000
846.956848	203.600000
846.990723	189.100000
847.024719	196.000000
847.058716	191.900000
847.092590	200.800000
847.126587	195.800000
847.160522	193.100000
847.194458	198.300000
847.228455	190.400000
847.262390	189.800000
847.296265	192.700000
847.330261	201.700000
847.364136	193.400000
847.398132	191.000000
847.432068	195.100000
847.466003	193.800000
847.499939	193.200000
847.533875	196.800000
847.567749	193.000000
847.601746	193.200000
847.635681	199.200000
847.669556	187.300000
847.703491	199.700000
847.737427	211.200000
847.771301	188.600000
847.805237	195.400000
847.839233	194.700000
847.873108	194.300000
847.907043	193.000000
847.940918	200.800000
847.974854	196.600000
848.008789	199.100000
848.042664	194.800000
848.076538	197.600000
848.110474	194.900000
848.144348	196.200000
848.178284	187.300000
848.212219	194.500000
848.246094	192.000000
848.279968	195.200000
848.313904	197.700000
848.347778	194.700000
848.381653	192.200000
848.415588	190.800000
848.449463	190.000000
848.483337	195.800000
848.517212	198.400000
848.551086	193.300000
848.585022	189.400000
848.618835	202.300000
848.652771	191.100000
848.686646	191.000000
848.720520	202.100000
848.754395	193.600000
848.788330	198.800000
848.822144	198.900000
848.856018	193.200000
848.889954	203.900000
848.923767	189.300000
848.957642	191.200000
848.991577	198.800000
849.025391	192.800000
849.059265	193.900000
849.093079	191.300000
849.126953	189.200000
849.160828	199.800000
849.194641	196.900000
849.228577	191.700000
849.262451	195.000000
849.296265	193.300000
849.330139	189.900000
849.364014	194.800000
849.397827	198.300000
849.431702	193.700000
849.465515	198.400000
849.499329	185.800000
849.533203	189.100000
849.567078	185.400000
849.600891	197.900000
849.634766	193.400000
849.668518	199.900000
849.702393	193.800000
849.736267	188.500000
849.770020	206.300000
849.803894	198.200000
849.837769	195.100000
849.871521	193.800000
849.905396	199.600000
849.939270	190.800000
849.973022	192.100000
850.006897	198.600000
850.040710	198.200000
850.074524	198.200000
850.108337	192.800000
850.142151	197.400000
850.175964	199.400000
850.209778	193.500000
850.243530	179.700000
850.277405	198.900000
850.311218	193.900000
850.344971	191.100000
850.378845	202.500000
850.412659	191.600000
850.446411	193.800000
850.480225	192.700000
850.514038	201.600000
850.547791	197.500000
850.581665	192.800000
850.615417	192.700000
850.649231	196.300000
850.683044	193.000000
850.716858	193.900000
850.750610	195.300000
850.784424	198.100000
850.818176	191.100000
850.851929	192.500000
850.885742	192.500000
850.919495	193.400000
850.953308	201.300000
850.987122	202.400000
851.020874	189.400000
851.054626	186.800000
851.088440	199.000000
851.122192	197.800000
851.156006	194.800000
851.189697	194.200000
851.223511	189.900000
851.257263	198.800000
851.291077	196.900000
851.324829	192.300000
851.358582	191.200000
851.392334	191.900000
851.426086	193.200000
851.459900	202.300000
851.493591	193.300000
851.527344	194.000000
851.561157	194.400000
851.594849	196.700000
851.628662	195.900000
851.662415	200.900000
851.696106	196.800000
851.729858	197.600000
851.763611	187.400000
851.797363	194.600000
851.831116	190.100000
851.864868	197.200000
851.898560	196.100000
851.932312	191.100000
851.966064	194.600000
851.999817	194.400000
852.033569	194.200000
852.067261	197.900000
852.101013	191.400000
852.134766	194.700000
852.168457	184.300000
852.202209	198.500000
852.235901	190.100000
852.269592	196.800000
852.303345	204.500000
852.337036	197.700000
852.370789	194.300000
852.404541	197.800000
852.438171	190.300000
852.471924	195.000000
852.505676	187.800000
852.539307	196.300000
852.573059	191.500000
852.606812	191.800000
852.640442	193.500000
852.674194	200.300000
852.707886	204.600000
852.741577	202.000000
852.775269	189.900000
852.809021	194.900000
852.842651	196.100000
852.876404	199.300000
852.910034	193.800000
852.943787	200.100000
852.977478	197.800000
853.011108	191.600000
853.044861	190.900000
853.078552	202.000000
853.112183	195.900000
853.145874	195.300000
853.179626	184.500000
853.213257	194.900000
853.246948	192.200000
853.280640	202.700000
853.314270	193.500000
853.347961	201.600000
853.381653	197.000000
853.415283	198.400000
853.448975	192.200000
853.482605	196.400000
853.516296	194.200000
853.549988	188.200000
853.583618	195.100000
853.617310	197.000000
853.651001	196.100000
853.684631	189.400000
853.718323	192.500000
853.751953	203.800000
853.785583	185.600000
853.819275	200.000000
853.852966	195.300000
853.886536	185.600000
853.920227	189.300000
853.953918	201.000000
853.987488	192.800000
854.021179	198.500000
854.054749	203.300000
854.088440	197.000000
854.122131	191.000000
854.155701	199.400000
854.189331	190.600000
854.223022	198.800000
854.256592	197.700000
854.290283	192.400000
854.323914	198.100000
854.357483	196.100000
854.391174	198.400000
854.424744	205.300000
854.458374	196.700000
854.492065	205.900000
854.525696	194.100000
854.559265	199.700000
854.592896	205.600000
854.626465	195.200000
854.660095	196.400000
854.693787	196.600000
854.727356	193.400000
854.760986	199.800000
854.794617	195.500000
854.828186	192.600000
854.861816	196.800000
854.895447	195.300000
854.929016	195.800000
854.962585	197.800000
854.996155	201.600000
855.029785	195.900000
855.063416	197.400000
855.097046	198.700000
855.130615	190.100000
855.164185	200.900000
855.197754	194.600000
855.231384	199.100000
855.264954	194.700000
855.298523	198.400000
855.332153	195.500000
855.365723	203.700000
855.399292	191.000000
855.432922	194.100000
855.466492	197.400000
855.500061	190.200000
855.533630	192.300000
855.567200	198.100000
855.600769	200.500000
855.634338	199.300000
855.667969	197.400000
855.701477	191.300000
855.735046	192.000000
855.768616	187.000000
855.802185	196.900000
855.835754	210.200000
855.869324	185.400000
855.902893	193.700000
855.936401	202.100000
855.969971	195.300000
856.003540	188.200000
856.037109	198.900000
856.070618	194.100000
856.104187	188.800000
856.137695	191.300000
856.171265	185.300000
856.204834	193.600000
856.238403	200.200000
856.271912	191.200000
856.305481	196.300000
856.338989	187.400000
856.372559	196.700000
856.406128	196.700000
856.439636	198.600000
856.473145	192.900000
856.506653	201.600000
856.540222	196.000000
856.573792	202.000000
856.607300	198.200000
856.640808	188.900000
856.674377	196.500000
856.707825	222.400000
856.741394	200.000000
856.774902	191.200000
856.808472	185.900000
856.841980	198.000000
856.875488	205.300000
856.908936	187.000000
856.942505	191.900000
856.976013	192.800000
857.009521	189.900000
857.043030	197.000000
857.076477	194.300000
857.110046	199.600000
857.143555	195.500000
857.177063	201.100000
857.210571	193.700000
857.244080	187.500000
857.277527	196.900000
857.311035	194.800000
857.344543	198.800000
857.378052	194.600000
857.411499	199.900000
857.445068	205.500000
857.478516	193.900000
857.512024	189.200000
857.545532	194.800000
857.578979	197.300000
857.612427	194.200000
857.645874	192.700000
857.679382	197.200000
857.712891	199.100000
857.746399	194.600000
857.779846	200.700000
857.813354	199.600000
857.846741	193.200000
857.880249	190.800000
857.913757	195.800000
857.947266	196.300000
857.980652	197.600000
858.014160	191.100000
858.047546	193.700000
858.081055	193.700000
858.114563	202.300000
858.147949	187.900000
858.181458	199.000000
858.214844	192.900000
858.248352	185.300000
858.281799	201.300000
858.315308	208.500000
858.348694	198.000000
858.382141	204.100000
858.415588	198.000000
858.449036	200.800000
858.482483	197.800000
858.515930	190.800000
858.549377	194.500000
858.582825	204.100000
858.616211	198.000000
858.649658	196.800000
858.683105	190.200000
858.716553	191.700000
858.750000	189.200000
858.783386	193.400000
858.816833	186.200000
858.850281	196.100000
858.883728	197.600000
858.917114	193.400000
858.950562	203.800000
858.983948	203.300000
859.017395	197.900000
859.050781	193.000000
859.084167	190.600000
859.117615	187.400000
859.151062	197.400000
859.184448	190.500000
859.217834	193.200000
859.251282	192.500000
859.284668	191.200000
859.318054	185.700000
859.351440	192.400000
859.384888	203.800000
859.418274	186.500000
859.451721	186.000000
859.485046	197.900000
859.518494	196.100000
859.551819	189.600000
859.585266	196.600000
859.618652	196.600000
859.652039	188.700000
859.685425	189.800000
859.718811	188.400000
859.752197	182.800000
859.785583	201.400000
859.819031	201.500000
859.852356	199.100000
859.885742	190.900000
859.919067	193.300000
859.952454	191.900000
859.985901	200.100000
860.019287	192.400000
860.052612	0.000000
860.085999	0.000000
860.119324	0.000000
860.152710	0.000000
860.186096	0.000000
860.219421	0.000000
860.252808	0.000000
860.286133	0.000000
860.319519	0.000000
860.352905	0.000000
860.386292	0.000000
860.419617	0.000000
860.452942	0.000000
860.486267	0.000000
860.519653	0.000000
860.553040	0.000000
860.586365	0.000000
860.619690	0.000000
860.653076	0.000000
860.686340	0.000000
860.719727	0.000000
860.753113	0.000000
860.786377	0.000000
860.819763	0.000000
860.853027	0.000000
860.886414	0.000000
860.919739	0.000000
860.953125	0.000000
860.986389	0.000000
861.019714	0.000000
861.053040	0.000000
861.086365	0.000000
861.119690	0.000000
861.153076	0.000000
861.186340	0.000000
861.219666	0.000000
861.252930	0.000000
861.286316	0.000000
861.319641	0.000000
861.352905	0.000000
861.386230	0.000000
861.419495	0.000000
861.452820	0.000000
861.486145	0.000000
861.519470	0.000000
861.552734	0.000000
861.586060	0.000000
861.619324	0.000000
861.652649	0.000000
861.685974	0.000000
861.719238	0.000000
861.752563	0.000000
861.785828	0.000000
861.819092	0.000000
861.852417	0.000000
861.885742	0.000000
861.918945	0.000000
861.952271	0.000000
861.985535	0.000000
862.018799	0.000000
862.052124	0.000000
862.085449	0.000000
862.118652	0.000000
862.151978	0.000000
862.185181	0.000000
862.218506	0.000000
862.251770	0.000000
862.285034	0.000000
862.318298	0.000000
862.351562	0.000000
862.384827	0.000000
862.418091	0.000000
862.451355	0.000000
862.484619	0.000000
862.517883	0.000000
862.551086	0.000000
862.584351	0.000000
862.617676	0.000000
862.650940	0.000000
862.684143	0.000000
862.717407	0.000000
862.750610	0.000000
862.783875	0.000000
862.817139	0.000000
862.850342	0.000000
862.883606	0.000000
862.916870	0.000000
862.950073	0.000000
862.983337	0.000000
863.016602	0.000000
863.049805	0.000000
863.083069	0.000000
863.116211	0.000000
863.149475	0.000000
863.182739	0.000000
863.216003	0.000000
863.249146	0.000000
863.282410	0.000000
863.315613	0.000000
863.348816	0.000000
863.382080	0.000000
863.415222	0.000000
863.448486	0.000000
863.481689	0.000000
863.514893	0.000000
863.548157	0.000000
863.581360	0.000000
863.614502	0.000000
863.647766	0.000000
863.680908	0.000000
863.714172	0.000000
863.747375	0.000000
863.780579	0.000000
863.813721	0.000000
863.846985	0.000000
863.880127	0.000000
863.913330	0.000000
863.946533	0.000000
863.979675	0.000000
864.012939	0.000000
