Model Number: SPM-001-M   
Serial Number: 10090201
Firmware Version: 004.17.6
Exposure Time: 500000.000000us
Data Taken on: 10-03-2021 12:01:56.966
Wavelength	Amplitude
733.770752	0.000000
733.808716	0.000000
733.846619	0.000000
733.884583	0.000000
733.922546	0.000000
733.960449	0.000000
733.998413	0.000000
734.036377	0.000000
734.074219	0.000000
734.112183	0.000000
734.150085	0.000000
734.188049	0.000000
734.226013	0.000000
734.263916	0.000000
734.301819	0.000000
734.339783	0.000000
734.377686	0.000000
734.415588	0.000000
734.453552	0.000000
734.491455	0.000000
734.529419	0.000000
734.567322	0.000000
734.605225	0.000000
734.643127	0.000000
734.681091	0.000000
734.718994	0.000000
734.756897	0.000000
734.794800	0.000000
734.832703	0.000000
734.870667	0.000000
734.908508	0.000000
734.946472	0.000000
734.984375	0.000000
735.022278	0.000000
735.060181	0.000000
735.098083	0.000000
735.135986	0.000000
735.173889	0.000000
735.211792	0.000000
735.249695	0.000000
735.287598	0.000000
735.325439	0.000000
735.363403	0.000000
735.401306	0.000000
735.439148	0.000000
735.477051	0.000000
735.515015	0.000000
735.552856	0.000000
735.590759	0.000000
735.628662	0.000000
735.666504	0.000000
735.704407	0.000000
735.742310	0.000000
735.780212	0.000000
735.818115	0.000000
735.856018	0.000000
735.893860	0.000000
735.931763	0.000000
735.969604	0.000000
736.007507	0.000000
736.045410	0.000000
736.083252	0.000000
736.121094	0.000000
736.158997	0.000000
736.196838	0.000000
736.234741	0.000000
736.272644	0.000000
736.310486	0.000000
736.348389	0.000000
736.386230	0.000000
736.424072	0.000000
736.461975	0.000000
736.499878	0.000000
736.537720	0.000000
736.575562	0.000000
736.613403	0.000000
736.651306	0.000000
736.689148	0.000000
736.726990	0.000000
736.764893	0.000000
736.802734	0.000000
736.840576	0.000000
736.878418	0.000000
736.916321	0.000000
736.954102	0.000000
736.992004	0.000000
737.029846	0.000000
737.067688	0.000000
737.105530	0.000000
737.143372	0.000000
737.181213	0.000000
737.219116	0.000000
737.256897	0.000000
737.294739	0.000000
737.332642	0.000000
737.370422	0.000000
737.408325	0.000000
737.446167	0.000000
737.483948	0.000000
737.521790	0.000000
737.559692	0.000000
737.597473	0.000000
737.635315	0.000000
737.673157	0.000000
737.710999	0.000000
737.748840	0.000000
737.786621	0.000000
737.824463	0.000000
737.862305	0.000000
737.900085	0.000000
737.937927	0.000000
737.975769	0.000000
738.013550	0.000000
738.051392	0.000000
738.089233	0.000000
738.127014	0.000000
738.164856	0.000000
738.202698	0.000000
738.240479	0.000000
738.278320	0.000000
738.316162	0.000000
738.353943	0.000000
738.391785	0.000000
738.429565	0.000000
738.467407	0.000000
738.505188	0.000000
738.542969	0.000000
738.580811	0.000000
738.618652	0.000000
738.656372	0.000000
738.694214	0.000000
738.732056	0.000000
738.769836	0.000000
738.807617	0.000000
738.845459	0.000000
738.883240	0.000000
738.921021	0.000000
738.958862	0.000000
738.996582	0.000000
739.034424	0.000000
739.072205	0.000000
739.109985	0.000000
739.147827	0.000000
739.185547	0.000000
739.223389	0.000000
739.261169	0.000000
739.298889	0.000000
739.336731	0.000000
739.374512	0.000000
739.412292	0.000000
739.450073	0.000000
739.487854	0.000000
739.525635	0.000000
739.563416	0.000000
739.601135	0.000000
739.638977	0.000000
739.676758	0.000000
739.714478	0.000000
739.752258	0.000000
739.790100	0.000000
739.827820	0.000000
739.865601	0.000000
739.903381	0.000000
739.941101	0.000000
739.978882	197.100000
740.016724	191.100000
740.054443	196.700000
740.092224	190.600000
740.130005	189.100000
740.167725	189.500000
740.205505	190.000000
740.243225	199.600000
740.281006	193.900000
740.318787	185.600000
740.356506	198.500000
740.394287	198.200000
740.432068	188.400000
740.469727	187.200000
740.507507	195.700000
740.545288	193.400000
740.583008	194.800000
740.620789	193.900000
740.658569	184.000000
740.696228	191.900000
740.734009	199.300000
740.771790	181.200000
740.809509	196.800000
740.847229	188.000000
740.884949	189.500000
740.922729	185.300000
740.960449	190.500000
740.998169	188.300000
741.035950	188.500000
741.073669	195.100000
741.111389	194.500000
741.149170	204.000000
741.186890	203.700000
741.224609	196.400000
741.262329	195.300000
741.300110	204.900000
741.337769	189.600000
741.375549	187.500000
741.413208	194.900000
741.450989	189.000000
741.488708	189.900000
741.526367	190.400000
741.564148	197.100000
741.601868	198.000000
741.639526	192.000000
741.677307	194.500000
741.715027	195.200000
741.752686	189.000000
741.790466	200.200000
741.828186	195.200000
741.865845	189.100000
741.903564	184.000000
741.941345	192.200000
741.979004	188.500000
742.016724	196.000000
742.054382	193.400000
742.092102	199.900000
742.129822	184.300000
742.167480	191.600000
742.205200	192.300000
742.242920	195.000000
742.280640	196.500000
742.318359	189.200000
742.356079	189.100000
742.393738	197.000000
742.431396	192.900000
742.469116	196.800000
742.506775	183.000000
742.544495	195.800000
742.582214	196.700000
742.619873	192.400000
742.657593	200.600000
742.695251	197.700000
742.732971	191.400000
742.770630	195.700000
742.808289	193.900000
742.846008	194.100000
742.883728	196.500000
742.921326	194.400000
742.959045	189.900000
742.996765	193.100000
743.034424	191.900000
743.072083	189.400000
743.109802	191.500000
743.147400	187.500000
743.185120	193.400000
743.222839	191.900000
743.260437	198.200000
743.298157	194.300000
743.335754	183.900000
743.373474	192.200000
743.411133	183.600000
743.448792	192.700000
743.486450	192.600000
743.524170	184.900000
743.561768	193.700000
743.599487	200.900000
743.637146	204.100000
743.674744	191.000000
743.712463	190.400000
743.750122	194.400000
743.787720	194.700000
743.825439	189.100000
743.863037	191.100000
743.900696	191.300000
743.938416	217.200000
743.976013	192.000000
744.013672	201.300000
744.051331	197.100000
744.088928	201.300000
744.126587	200.400000
744.164307	194.000000
744.201904	189.900000
744.239563	197.900000
744.277222	195.400000
744.314819	193.800000
744.352478	200.100000
744.390137	195.000000
744.427734	196.400000
744.465393	190.700000
744.502991	189.300000
744.540649	196.000000
744.578308	192.900000
744.615906	188.200000
744.653564	181.700000
744.691223	197.100000
744.728821	184.600000
744.766418	192.200000
744.804077	194.700000
744.841675	191.100000
744.879333	186.400000
744.916992	192.600000
744.954529	190.600000
744.992187	199.900000
745.029785	191.300000
745.067444	190.200000
745.105042	193.400000
745.142639	194.800000
745.180298	201.400000
745.217896	191.100000
745.255493	191.100000
745.293152	196.900000
745.330750	196.800000
745.368347	201.500000
745.405945	195.000000
745.443604	193.700000
745.481140	197.700000
745.518799	193.300000
745.556396	197.000000
745.593994	197.200000
745.631592	191.300000
745.669189	187.400000
745.706787	196.300000
745.744385	189.100000
745.781982	195.900000
745.819580	190.800000
745.857178	191.800000
745.894775	192.800000
745.932373	194.500000
745.969971	193.200000
746.007568	185.800000
746.045166	202.800000
746.082764	199.300000
746.120300	196.400000
746.157898	197.800000
746.195557	191.800000
746.233093	188.200000
746.270691	196.200000
746.308228	195.100000
746.345825	199.500000
746.383423	197.200000
746.420959	188.800000
746.458557	191.300000
746.496155	189.600000
746.533691	193.200000
746.571289	187.500000
746.608887	194.000000
746.646423	194.400000
746.684021	194.900000
746.721619	189.300000
746.759155	195.100000
746.796753	185.600000
746.834351	185.700000
746.871826	189.500000
746.909424	200.600000
746.946960	195.200000
746.984558	192.100000
747.022156	190.800000
747.059631	200.300000
747.097229	195.500000
747.134827	190.600000
747.172363	200.900000
747.209900	194.200000
747.247498	188.100000
747.285034	200.100000
747.322571	199.600000
747.360168	191.500000
747.397644	186.600000
747.435242	195.000000
747.472778	200.100000
747.510315	188.800000
747.547913	192.000000
747.585388	199.500000
747.622925	193.800000
747.660522	183.700000
747.697998	189.900000
747.735596	193.000000
747.773132	190.700000
747.810669	193.600000
747.848206	197.000000
747.885742	187.200000
747.923279	188.400000
747.960815	195.800000
747.998352	194.300000
748.035889	198.400000
748.073425	198.600000
748.110901	191.200000
748.148437	190.700000
748.185974	194.000000
748.223511	205.700000
748.261047	193.300000
748.298584	195.400000
748.336060	193.500000
748.373596	197.400000
748.411133	211.100000
748.448608	189.100000
748.486145	197.800000
748.523682	201.600000
748.561218	199.300000
748.598755	195.300000
748.636292	196.400000
748.673706	191.400000
748.711243	199.100000
748.748718	195.300000
748.786255	193.100000
748.823792	194.300000
748.861267	188.900000
748.898804	195.600000
748.936340	196.500000
748.973816	190.900000
749.011292	199.400000
749.048828	194.100000
749.086304	197.400000
749.123840	204.500000
749.161316	189.200000
749.198792	203.000000
749.236328	199.600000
749.273743	192.800000
749.311279	192.400000
749.348816	196.100000
749.386230	194.700000
749.423767	181.300000
749.461304	196.300000
749.498718	194.400000
749.536255	201.700000
749.573730	206.500000
749.611206	200.700000
749.648682	192.500000
749.686218	194.700000
749.723633	198.800000
749.761169	191.400000
749.798645	189.100000
749.836060	192.500000
749.873596	190.300000
749.911011	194.300000
749.948547	200.000000
749.986023	194.100000
750.023437	192.400000
750.060913	187.600000
750.098450	186.600000
750.135864	194.000000
750.173340	194.000000
750.210815	197.800000
750.248291	188.700000
750.285767	194.300000
750.323242	201.100000
750.360657	195.500000
750.398132	189.100000
750.435608	196.700000
750.473022	189.800000
750.510498	188.200000
750.547974	189.100000
750.585449	191.000000
750.622925	181.300000
750.660339	201.800000
750.697815	192.900000
750.735291	192.500000
750.772644	193.400000
750.810120	194.000000
750.847595	195.900000
750.885010	189.000000
750.922485	201.700000
750.959961	192.100000
750.997375	200.000000
751.034851	198.300000
751.072266	198.700000
751.109680	186.800000
751.147156	200.400000
751.184570	196.100000
751.221985	196.200000
751.259460	184.500000
751.296875	194.000000
751.334290	193.900000
751.371765	200.200000
751.409180	197.500000
751.446594	201.100000
751.484070	196.400000
751.521423	196.000000
751.558899	195.400000
751.596375	201.600000
751.633728	201.000000
751.671204	208.200000
751.708618	190.300000
751.746033	195.600000
751.783447	188.000000
751.820801	190.100000
751.858276	195.800000
751.895691	193.800000
751.933105	192.000000
751.970520	189.100000
752.007935	192.600000
752.045349	197.800000
752.082764	193.500000
752.120178	191.900000
752.157532	188.800000
752.195007	191.600000
752.232422	196.600000
752.269775	200.200000
752.307190	196.500000
752.344543	189.100000
752.382019	192.300000
752.419434	192.000000
752.456787	195.800000
752.494202	197.600000
752.531616	195.600000
752.568970	197.700000
752.606384	195.100000
752.643799	195.700000
752.681152	202.500000
752.718567	196.000000
752.755981	187.000000
752.793335	196.200000
752.830750	185.200000
752.868164	201.800000
752.905518	189.100000
752.942932	198.500000
752.980225	189.700000
753.017639	197.900000
753.055054	193.200000
753.092407	197.100000
753.129822	199.700000
753.167175	205.600000
753.204529	193.800000
753.241943	190.500000
753.279358	188.200000
753.316650	198.000000
753.354065	196.400000
753.391479	199.000000
753.428772	203.700000
753.466187	197.200000
753.503479	188.500000
753.540894	191.600000
753.578308	189.500000
753.615601	189.200000
753.653015	194.900000
753.690369	190.800000
753.727722	190.400000
753.765076	186.500000
753.802490	188.500000
753.839783	185.000000
753.877136	192.700000
753.914551	209.000000
753.951843	188.400000
753.989258	197.400000
754.026611	194.100000
754.063904	197.400000
754.101257	189.500000
754.138611	186.500000
754.175964	194.900000
754.213318	205.900000
754.250610	186.400000
754.288025	190.600000
754.325378	187.100000
754.362671	199.100000
754.400024	192.400000
754.437378	202.600000
754.474670	204.000000
754.512085	190.200000
754.549438	195.300000
754.586731	192.800000
754.624084	192.000000
754.661438	189.400000
754.698730	202.200000
754.736084	192.800000
754.773376	192.600000
754.810730	198.000000
754.848083	192.400000
754.885315	199.300000
754.922668	187.300000
754.960022	188.800000
754.997314	198.200000
755.034668	196.600000
755.072021	196.900000
755.109253	193.000000
755.146606	202.600000
755.183960	194.400000
755.221252	204.100000
755.258545	203.700000
755.295898	203.100000
755.333191	204.400000
755.370544	198.500000
755.407776	197.200000
755.445129	196.600000
755.482422	201.700000
755.519714	191.400000
755.557068	189.800000
755.594360	187.800000
755.631653	202.000000
755.668945	205.300000
755.706299	199.000000
755.743530	208.000000
755.780884	205.800000
755.818176	203.600000
755.855408	204.200000
755.892761	198.900000
755.930054	199.900000
755.967346	199.800000
756.004639	201.800000
756.041870	199.700000
756.079224	203.000000
756.116516	195.100000
756.153748	201.700000
756.191040	206.800000
756.228394	202.100000
756.265625	195.300000
756.302917	200.900000
756.340210	196.500000
756.377441	205.400000
756.414795	206.100000
756.452087	200.200000
756.489319	194.800000
756.526611	203.000000
756.563843	202.900000
756.601135	211.800000
756.638428	211.900000
756.675659	200.900000
756.712952	206.000000
756.750244	204.300000
756.787476	203.200000
756.824768	210.000000
756.862061	200.500000
756.899292	249.100000
756.936584	206.600000
756.973816	213.900000
757.011047	217.600000
757.048340	203.600000
757.085632	203.600000
757.122864	219.800000
757.160156	202.500000
757.197327	207.300000
757.234619	208.700000
757.271912	202.100000
757.309082	210.200000
757.346375	200.000000
757.383667	209.800000
757.420837	206.500000
757.458130	206.200000
757.495422	204.700000
757.532593	207.800000
757.569885	197.400000
757.607117	201.900000
757.644348	207.000000
757.681580	218.700000
757.718811	195.400000
757.756042	206.400000
757.793335	203.300000
757.830505	213.800000
757.867798	203.300000
757.905029	203.400000
757.942200	208.800000
757.979492	201.600000
758.016724	205.300000
758.053894	204.000000
758.091187	225.800000
758.128418	208.800000
758.165588	207.400000
758.202820	218.500000
758.240112	208.800000
758.277283	220.000000
758.314514	210.700000
758.351685	205.300000
758.388916	219.200000
758.426147	216.400000
758.463379	221.000000
758.500610	213.000000
758.537842	210.700000
758.575012	217.900000
758.612244	206.200000
758.649475	224.600000
758.686646	204.600000
758.723877	219.200000
758.761108	221.000000
758.798279	212.800000
758.835510	213.500000
758.872742	219.000000
758.909851	214.800000
758.947083	215.900000
758.984253	213.900000
759.021484	218.500000
759.058716	218.100000
759.095886	217.700000
759.133057	213.900000
759.170288	217.800000
759.207458	211.900000
759.244690	226.300000
759.281860	225.400000
759.319031	214.000000
759.356262	211.700000
759.393433	212.400000
759.430603	213.700000
759.467773	214.700000
759.505005	220.800000
759.542175	219.800000
759.579346	213.800000
759.616516	215.400000
759.653687	218.300000
759.690918	212.900000
759.728027	218.200000
759.765259	217.000000
759.802429	219.700000
759.839539	221.100000
759.876770	224.600000
759.913940	228.000000
759.951111	218.800000
759.988281	219.400000
760.025452	215.600000
760.062561	214.000000
760.099792	227.300000
760.136963	221.400000
760.174072	218.900000
760.211243	212.600000
760.248413	213.900000
760.285583	216.000000
760.322754	230.700000
760.359863	226.600000
760.397034	226.200000
760.434204	219.600000
760.471375	220.700000
760.508545	218.200000
760.545715	219.500000
760.582825	216.100000
760.619995	227.000000
760.657166	215.100000
760.694275	227.300000
760.731445	224.500000
760.768555	223.900000
760.805664	227.200000
760.842834	223.600000
760.879944	227.800000
760.917114	225.000000
760.954285	223.200000
760.991394	217.200000
761.028564	228.800000
761.065674	227.500000
761.102783	222.200000
761.139954	230.000000
761.177124	230.100000
761.214172	232.700000
761.251343	224.000000
761.288452	225.300000
761.325562	231.400000
761.362732	223.200000
761.399841	228.200000
761.436951	229.400000
761.474121	225.300000
761.511169	229.600000
761.548340	234.100000
761.585449	235.000000
761.622559	236.400000
761.659668	232.700000
761.696838	239.200000
761.733887	235.500000
761.771057	231.900000
761.808167	235.200000
761.845276	239.800000
761.882385	248.000000
761.919434	237.600000
761.956604	257.700000
761.993713	233.100000
762.030762	245.300000
762.067871	238.200000
762.105042	237.300000
762.142090	246.400000
762.179199	241.500000
762.216309	246.900000
762.253418	257.800000
762.290527	251.600000
762.327637	247.800000
762.364685	234.900000
762.401794	245.700000
762.438904	245.400000
762.475952	242.100000
762.513062	237.400000
762.550110	241.300000
762.587219	254.800000
762.624329	255.900000
762.661377	248.000000
762.698486	247.800000
762.735596	246.700000
762.772644	241.800000
762.809753	238.500000
762.846863	249.300000
762.883911	251.700000
762.921021	251.000000
762.958069	249.500000
762.995117	258.600000
763.032227	256.200000
763.069336	249.900000
763.106323	244.500000
763.143433	245.600000
763.180481	254.700000
763.217590	252.400000
763.254639	249.800000
763.291687	252.300000
763.328735	262.000000
763.365845	253.300000
763.402893	254.000000
763.439941	256.100000
763.477051	259.600000
763.514038	261.400000
763.551147	252.700000
763.588196	256.700000
763.625244	255.900000
763.662292	264.600000
763.699402	267.500000
763.736389	263.200000
763.773499	273.500000
763.810486	265.200000
763.847534	263.600000
763.884644	265.600000
763.921631	261.600000
763.958679	275.400000
763.995728	262.500000
764.032776	272.500000
764.069824	257.400000
764.106873	267.000000
764.143860	275.600000
764.180969	264.700000
764.218018	277.000000
764.255005	266.100000
764.292053	269.200000
764.329102	280.000000
764.366089	279.300000
764.403137	276.800000
764.440125	266.800000
764.477173	271.900000
764.514221	273.800000
764.551208	272.200000
764.588257	268.600000
764.625305	281.200000
764.662292	284.500000
764.699341	289.400000
764.736389	281.600000
764.773376	295.100000
764.810425	282.200000
764.847473	290.200000
764.884399	285.100000
764.921448	293.100000
764.958435	292.100000
764.995483	280.100000
765.032532	297.600000
765.069458	283.200000
765.106506	284.400000
765.143555	282.100000
765.180481	287.000000
765.217529	297.500000
765.254578	281.200000
765.291504	293.400000
765.328552	287.100000
765.365540	284.500000
765.402527	301.300000
765.439575	286.900000
765.476501	281.200000
765.513550	283.600000
765.550537	288.800000
765.587463	296.200000
765.624512	286.300000
765.661499	281.400000
765.698486	295.800000
765.735474	289.700000
765.772461	289.700000
765.809448	299.300000
765.846436	296.300000
765.883423	301.000000
765.920410	295.300000
765.957397	290.500000
765.994385	295.900000
766.031311	304.000000
766.068359	299.200000
766.105286	298.500000
766.142273	306.900000
766.179260	303.100000
766.216187	293.300000
766.253174	290.400000
766.290161	300.000000
766.327148	306.000000
766.364136	305.500000
766.401123	320.700000
766.438049	299.700000
766.475037	316.000000
766.512024	307.500000
766.548950	325.400000
766.585937	317.400000
766.622864	315.000000
766.659790	315.100000
766.696777	304.600000
766.733704	320.700000
766.770691	315.200000
766.807678	326.300000
766.844604	322.300000
766.881531	324.900000
766.918518	328.000000
766.955444	331.300000
766.992432	324.400000
767.029358	329.500000
767.066284	331.400000
767.103271	330.300000
767.140198	358.000000
767.177124	344.800000
767.214050	337.200000
767.251038	338.800000
767.287964	334.900000
767.324890	332.100000
767.361816	339.100000
767.398743	345.900000
767.435730	341.200000
767.472595	344.400000
767.509583	349.600000
767.546509	337.500000
767.583374	345.900000
767.620361	338.500000
767.657288	345.500000
767.694214	347.200000
767.731140	344.600000
767.768066	347.500000
767.804993	352.900000
767.841919	343.000000
767.878845	353.000000
767.915710	357.900000
767.952698	352.700000
767.989563	355.800000
768.026489	356.400000
768.063416	350.900000
768.100281	352.200000
768.137207	366.000000
768.174133	366.000000
768.211060	363.400000
768.247986	361.200000
768.284912	362.200000
768.321777	368.700000
768.358704	365.400000
768.395630	371.200000
768.432495	362.100000
768.469421	370.200000
768.506348	376.700000
768.543152	383.200000
768.580078	378.900000
768.616943	385.000000
768.653870	383.800000
768.690796	382.700000
768.727661	378.800000
768.764587	383.700000
768.801453	377.400000
768.838318	390.400000
768.875244	388.500000
768.912109	394.400000
768.948975	387.400000
768.985901	390.000000
769.022766	388.900000
769.059631	397.500000
769.096558	387.600000
769.133362	392.700000
769.170288	394.600000
769.207214	391.500000
769.244019	400.500000
769.280945	399.200000
769.317810	407.500000
769.354675	401.200000
769.391541	411.000000
769.428406	407.700000
769.465271	419.700000
769.502136	408.400000
769.539062	409.700000
769.575867	408.800000
769.612732	410.100000
769.649597	420.600000
769.686462	423.700000
769.723328	418.800000
769.760193	413.700000
769.797058	416.600000
769.833923	428.000000
769.870728	424.000000
769.907593	430.100000
769.944519	424.500000
769.981323	427.000000
770.018188	431.400000
770.055054	428.400000
770.091858	426.900000
770.128723	439.700000
770.165588	448.500000
770.202393	433.500000
770.239258	444.600000
770.276062	442.100000
770.312927	439.400000
770.349792	452.000000
770.386597	444.700000
770.423462	452.600000
770.460327	462.800000
770.497131	447.000000
770.533997	439.400000
770.570862	457.900000
770.607605	455.100000
770.644470	451.100000
770.681335	452.400000
770.718140	452.100000
770.754944	443.800000
770.791809	444.500000
770.828613	448.300000
770.865479	448.200000
770.902222	462.200000
770.939087	455.100000
770.975952	445.900000
771.012695	452.800000
771.049561	468.500000
771.086365	456.200000
771.123169	453.500000
771.159973	460.800000
771.196838	459.000000
771.233582	462.100000
771.270447	460.600000
771.307251	463.700000
771.344055	458.000000
771.380859	465.900000
771.417664	455.600000
771.454468	467.400000
771.491272	466.900000
771.528076	468.000000
771.564880	469.300000
771.601685	479.100000
771.638428	467.500000
771.675293	474.300000
771.712097	466.400000
771.748840	486.100000
771.785645	475.300000
771.822449	481.600000
771.859253	483.100000
771.896057	479.300000
771.932861	491.700000
771.969604	480.900000
772.006409	476.100000
772.043213	492.500000
772.079956	490.100000
772.116760	479.800000
772.153503	485.100000
772.190308	495.100000
772.227112	488.500000
772.263855	485.500000
772.300659	491.200000
772.337463	498.900000
772.374207	489.800000
772.411011	486.700000
772.447754	492.900000
772.484497	508.200000
772.521301	506.700000
772.558105	506.500000
772.594849	506.200000
772.631592	510.300000
772.668396	509.500000
772.705139	519.500000
772.741882	519.400000
772.778625	531.600000
772.815430	535.000000
772.852173	527.400000
772.888916	537.500000
772.925720	539.400000
772.962463	549.100000
772.999207	543.200000
773.035950	548.400000
773.072754	550.100000
773.109436	541.800000
773.146240	546.500000
773.182922	547.500000
773.219727	557.200000
773.256470	557.500000
773.293152	541.700000
773.329956	551.400000
773.366699	556.200000
773.403381	547.600000
773.440186	558.900000
773.476929	559.500000
773.513611	552.700000
773.550354	557.300000
773.587158	559.700000
773.623840	552.900000
773.660583	566.700000
773.697327	583.500000
773.734009	568.300000
773.770813	567.700000
773.807495	569.100000
773.844238	571.200000
773.880981	592.800000
773.917664	587.800000
773.954407	598.500000
773.991150	583.500000
774.027832	589.900000
774.064575	580.900000
774.101318	592.500000
774.138000	599.200000
774.174744	592.700000
774.211487	602.500000
774.248108	593.700000
774.284851	588.900000
774.321594	603.100000
774.358276	609.500000
774.395020	621.200000
774.431702	613.700000
774.468384	606.600000
774.505127	603.200000
774.541809	621.200000
774.578491	632.900000
774.615234	634.800000
774.651917	623.700000
774.688599	627.000000
774.725342	637.900000
774.762024	633.400000
774.798706	644.000000
774.835449	646.700000
774.872070	649.000000
774.908813	645.500000
774.945496	642.500000
774.982178	643.800000
775.018860	650.700000
775.055542	650.800000
775.092224	657.100000
775.128967	663.000000
775.165588	656.700000
775.202271	647.100000
775.239014	665.100000
775.275635	663.900000
775.312317	661.600000
775.349060	666.900000
775.385681	666.100000
775.422363	656.000000
775.459045	671.900000
775.495667	669.900000
775.532410	678.800000
775.569092	679.900000
775.605713	677.700000
775.642395	675.800000
775.679016	680.200000
775.715698	685.900000
775.752380	689.200000
775.789001	680.600000
775.825684	682.400000
775.862366	686.100000
775.898987	698.100000
775.935669	684.100000
775.972351	706.900000
776.008972	703.700000
776.045654	702.600000
776.082336	698.500000
776.118958	696.700000
776.155640	701.700000
776.192322	714.300000
776.228882	718.500000
776.265564	712.600000
776.302185	709.400000
776.338867	717.100000
776.375488	701.500000
776.412109	721.900000
776.448792	727.600000
776.485413	729.600000
776.522034	718.000000
776.558716	710.300000
776.595337	710.400000
776.631958	720.800000
776.668579	719.800000
776.705261	727.100000
776.741882	721.300000
776.778503	714.800000
776.815186	708.500000
776.851746	720.500000
776.888367	725.700000
776.924988	734.500000
776.961609	718.200000
776.998291	716.600000
777.034851	708.300000
777.071472	725.700000
777.108154	724.300000
777.144714	737.000000
777.181335	736.900000
777.218018	728.100000
777.254578	729.200000
777.291199	730.400000
777.327759	741.700000
777.364380	750.600000
777.401062	758.300000
777.437622	763.800000
777.474243	749.000000
777.510864	759.600000
777.547424	755.900000
777.584045	759.800000
777.620667	764.500000
777.657227	771.400000
777.693848	767.700000
777.730469	784.700000
777.767029	779.100000
777.803650	781.900000
777.840271	771.300000
777.876831	774.100000
777.913452	784.200000
777.950012	764.600000
777.986633	767.200000
778.023193	764.700000
778.059753	762.300000
778.096375	771.800000
778.132996	783.900000
778.169556	770.000000
778.206116	770.600000
778.242737	773.100000
778.279297	782.800000
778.315857	771.800000
778.352478	782.400000
778.389038	789.300000
778.425598	791.600000
778.462219	803.600000
778.498718	805.400000
778.535339	812.000000
778.571838	817.000000
778.608459	818.800000
778.645020	815.500000
778.681580	826.200000
778.718140	831.700000
778.754761	828.100000
778.791260	831.900000
778.827881	844.300000
778.864441	839.000000
778.900940	843.600000
778.937561	842.600000
778.974121	844.900000
779.010620	830.300000
779.047241	837.400000
779.083801	852.400000
779.120300	848.500000
779.156860	852.200000
779.193359	854.000000
779.229980	853.500000
779.266541	862.200000
779.303040	866.600000
779.339600	857.300000
779.376160	854.700000
779.412659	865.700000
779.449219	857.200000
779.485779	866.900000
779.522278	867.800000
779.558838	872.600000
779.595398	874.500000
779.631897	879.300000
779.668457	865.400000
779.705017	882.200000
779.741516	873.100000
779.778076	871.200000
779.814575	882.800000
779.851074	893.600000
779.887634	878.800000
779.924133	885.500000
779.960693	870.900000
779.997253	882.500000
780.033691	895.800000
780.070251	899.500000
780.106812	905.400000
780.143250	907.600000
780.179810	906.800000
780.216370	905.500000
780.252808	913.100000
780.289368	932.600000
780.325867	935.100000
780.362366	927.400000
780.398865	938.800000
780.435364	932.100000
780.471863	944.400000
780.508423	948.000000
780.544861	956.600000
780.581421	964.100000
780.617920	949.200000
780.654419	949.700000
780.690918	956.800000
780.727417	964.900000
780.763916	966.800000
780.800415	968.600000
780.836914	955.600000
780.873352	959.200000
780.909912	952.800000
780.946411	963.300000
780.982849	970.900000
781.019348	986.800000
781.055786	982.400000
781.092346	972.700000
781.128845	984.900000
781.165283	994.000000
781.201782	1001.000000
781.238281	1004.800000
781.274719	1004.200000
781.311218	990.500000
781.347717	1008.400000
781.384155	997.100000
781.420654	1000.300000
781.457092	1008.500000
781.493591	1009.500000
781.530090	1000.400000
781.566528	1009.500000
781.602966	1013.000000
781.639465	1013.100000
781.675903	1006.700000
781.712402	1021.000000
781.748901	1025.800000
781.785278	1012.200000
781.821777	1017.200000
781.858276	1014.500000
781.894714	1027.800000
781.931152	1018.900000
781.967651	1032.300000
782.004089	1024.700000
782.040527	1029.600000
782.076965	1029.400000
782.113403	1028.600000
782.149902	1037.100000
782.186340	1034.500000
782.222778	1051.100000
782.259277	1031.700000
782.295654	1028.900000
782.332092	1039.300000
782.368591	1032.900000
782.404968	1022.100000
782.441467	1032.600000
782.477905	1035.100000
782.514282	1028.300000
782.550781	1045.500000
782.587219	1040.300000
782.623596	1047.200000
782.660095	1049.800000
782.696472	1051.600000
782.732910	1057.700000
782.769348	1065.500000
782.805786	1076.200000
782.842224	1073.700000
782.878662	1069.100000
782.915039	1069.500000
782.951477	1070.800000
782.987915	1065.900000
783.024292	1072.600000
783.060730	1073.400000
783.097168	1062.100000
783.133545	1053.400000
783.169983	1044.800000
783.206421	1040.900000
783.242798	1040.000000
783.279236	1023.900000
783.315613	1021.300000
783.352051	1020.300000
783.388489	1008.100000
783.424866	994.800000
783.461304	1005.400000
783.497681	1003.600000
783.534058	997.700000
783.570496	995.700000
783.606934	988.600000
783.643250	1002.600000
783.679687	1012.000000
783.716125	1001.900000
783.752441	1016.900000
783.788879	1036.800000
783.825317	1038.800000
783.861633	1051.900000
783.898071	1042.600000
783.934448	1048.800000
783.970825	1047.600000
784.007263	987.400000
784.043579	870.200000
784.080017	731.200000
784.116394	588.800000
784.152710	519.100000
784.189148	536.600000
784.225525	617.900000
784.261902	725.600000
784.298279	847.700000
784.334656	958.400000
784.371033	1017.600000
784.407410	1065.700000
784.443787	1071.700000
784.480164	1057.500000
784.516541	1040.200000
784.552856	1041.700000
784.589233	1038.900000
784.625610	1043.000000
784.661987	1076.900000
784.698364	1057.900000
784.734741	1050.200000
784.771057	1054.200000
784.807434	1060.400000
784.843811	1073.500000
784.880127	1075.500000
784.916504	1110.600000
784.952881	1111.600000
784.989197	1098.000000
785.025574	1106.200000
785.061951	1118.500000
785.098267	1144.200000
785.134644	1151.200000
785.170959	1145.100000
785.207275	1146.200000
785.243652	1145.000000
785.279968	1131.000000
785.316345	1141.200000
785.352722	1147.100000
785.388977	1149.900000
785.425354	1130.900000
785.461731	1106.600000
785.498047	1096.000000
785.534363	1094.500000
785.570679	1092.700000
785.606995	1104.000000
785.643372	1105.700000
785.679687	1090.900000
785.716003	1075.500000
785.752380	1076.900000
785.788635	1083.700000
785.825012	1106.600000
785.861328	1120.400000
785.897644	1102.300000
785.933960	1115.400000
785.970337	1127.400000
786.006592	1135.400000
786.042908	1147.500000
786.079285	1168.000000
786.115540	1179.700000
786.151855	1175.500000
786.188171	1168.900000
786.224487	1174.700000
786.260803	1179.600000
786.297119	1195.300000
786.333435	1196.000000
786.369751	1181.400000
786.406006	1186.500000
786.442322	1166.700000
786.478638	1161.000000
786.514954	1177.900000
786.551270	1175.100000
786.587585	1184.500000
786.623840	1176.500000
786.660156	1168.600000
786.696472	1150.400000
786.732727	1146.200000
786.769043	1152.600000
786.805298	1141.400000
786.841614	1146.800000
786.877930	1146.900000
786.914124	1128.200000
786.950439	1150.400000
786.986755	1165.100000
787.023010	1172.400000
787.059326	1177.300000
787.095642	1181.000000
787.131836	1193.600000
787.168152	1188.700000
787.204468	1194.100000
787.240723	1217.000000
787.276978	1232.000000
787.313293	1234.700000
787.349548	1232.700000
787.385803	1236.100000
787.422058	1223.300000
787.458313	1228.000000
787.494629	1235.900000
787.530823	1233.600000
787.567139	1216.600000
787.603455	1209.300000
787.639648	1188.300000
787.675903	1194.200000
787.712219	1191.300000
787.748413	1191.100000
787.784729	1201.500000
787.820984	1181.500000
787.857178	1171.700000
787.893494	1171.400000
787.929749	1162.100000
787.965942	1166.800000
788.002258	1187.500000
788.038452	1191.700000
788.074707	1177.800000
788.110962	1180.800000
788.147217	1174.600000
788.183472	1187.700000
788.219727	1203.400000
788.255920	1222.300000
788.292175	1226.500000
788.328430	1223.200000
788.364624	1202.400000
788.400879	1197.000000
788.437134	1198.700000
788.473328	1202.000000
788.509583	1200.900000
788.545837	1197.400000
788.582031	1192.100000
788.618286	1175.400000
788.654480	1165.300000
788.690735	1185.100000
788.726990	1205.900000
788.763184	1199.400000
788.799377	1210.800000
788.835632	1198.500000
788.871826	1211.400000
788.908081	1215.100000
788.944336	1206.300000
788.980469	1229.500000
789.016724	1225.800000
789.052979	1221.600000
789.089111	1193.000000
789.125366	1206.900000
789.161621	1190.700000
789.197754	1202.500000
789.234009	1197.900000
789.270142	1182.000000
789.306396	1165.700000
789.342590	1146.600000
789.378784	1127.800000
789.414978	1128.800000
789.451233	1151.200000
789.487366	1147.200000
789.523621	1157.700000
789.559814	1139.300000
789.595947	1130.300000
789.632202	1147.300000
789.668335	1161.700000
789.704529	1184.300000
789.740784	1205.700000
789.776917	1196.000000
789.813110	1185.300000
789.849304	1199.400000
789.885498	1202.700000
789.921692	1228.500000
789.957886	1236.000000
789.994019	1224.600000
790.030212	1215.800000
790.066406	1219.200000
790.102539	1210.900000
790.138733	1224.900000
790.174927	1223.400000
790.211060	1244.200000
790.247253	1221.100000
790.283386	1207.600000
790.319580	1195.300000
790.355774	1173.900000
790.391907	1180.400000
790.428101	1204.600000
790.464294	1208.000000
790.500427	1209.900000
790.536621	1187.300000
790.572754	1172.000000
790.608887	1179.000000
790.645081	1189.600000
790.681274	1202.500000
790.717346	1193.200000
790.753540	1161.000000
790.789734	1092.400000
790.825867	1037.600000
790.862000	1042.900000
790.898132	1092.400000
790.934265	1154.900000
790.970459	1215.600000
791.006592	1238.700000
791.042725	1242.000000
791.078918	1230.700000
791.114990	1234.300000
791.151184	1254.800000
791.187317	1280.200000
791.223389	1273.200000
791.259583	1256.400000
791.295715	1265.700000
791.331848	1263.500000
791.367981	1282.300000
791.404114	1286.200000
791.440247	1287.600000
791.476379	1282.300000
791.512451	1263.300000
791.548584	1254.600000
791.584778	1250.800000
791.620850	1278.300000
791.656982	1282.400000
791.693115	1279.500000
791.729187	1274.300000
791.765381	1257.900000
791.801514	1260.900000
791.837585	1268.200000
791.873718	1271.500000
791.909851	1284.500000
791.945923	1294.200000
791.982056	1255.300000
792.018188	1250.900000
792.054260	1249.900000
792.090393	1255.500000
792.126465	1253.500000
792.162598	1265.100000
792.198669	1248.700000
792.234741	1245.500000
792.270874	1237.900000
792.307007	1223.300000
792.343079	1227.700000
792.379150	1244.000000
792.415283	1232.200000
792.451355	1222.100000
792.487488	1200.900000
792.523560	1202.600000
792.559631	1208.300000
792.595764	1205.800000
792.631836	1207.900000
792.667908	1218.200000
792.703979	1203.200000
792.740051	1196.600000
792.776184	1204.600000
792.812256	1205.000000
792.848328	1216.700000
792.884399	1226.000000
792.920471	1216.700000
792.956543	1210.100000
792.992615	1207.000000
793.028748	1201.300000
793.064758	1215.100000
793.100830	1233.700000
793.136963	1254.100000
793.172974	1236.400000
793.209045	1230.300000
793.245178	1243.300000
793.281189	1224.700000
793.317261	1232.600000
793.353271	1240.400000
793.389404	1247.500000
793.425476	1240.800000
793.461487	1219.200000
793.497559	1216.800000
793.533630	1225.200000
793.569641	1225.600000
793.605713	1226.000000
793.641785	1234.200000
793.677795	1245.000000
793.713867	1230.700000
793.749878	1229.100000
793.785950	1240.700000
793.822021	1247.700000
793.858032	1235.200000
793.894104	1247.300000
793.930176	1229.900000
793.966187	1239.200000
794.002258	1221.200000
794.038269	1225.100000
794.074280	1222.700000
794.110352	1247.200000
794.146423	1214.900000
794.182373	1213.300000
794.218445	1201.600000
794.254517	1195.500000
794.290466	1182.200000
794.326538	1189.600000
794.362549	1185.100000
794.398560	1194.200000
794.434631	1191.300000
794.470581	1163.100000
794.506653	1157.800000
794.542664	1161.600000
794.578674	1159.300000
794.614685	1152.500000
794.650757	1151.900000
794.686707	1145.500000
794.722778	1133.100000
794.758789	1143.000000
794.794739	1152.900000
794.830811	1178.200000
794.866821	1196.200000
794.902771	1190.900000
794.938843	1171.600000
794.974792	1169.600000
795.010803	1170.800000
795.046814	1174.200000
795.082825	1166.800000
795.118835	1180.100000
795.154846	1155.100000
795.190796	1156.700000
795.226807	1126.700000
795.262817	1139.500000
795.298767	1138.900000
795.334778	1141.300000
795.370850	1128.000000
795.406799	1119.600000
795.442810	1106.000000
795.478821	1104.900000
795.514709	1103.600000
795.550720	1121.400000
795.586670	1106.700000
795.622681	1113.000000
795.658691	1106.500000
795.694641	1104.400000
795.730652	1088.800000
795.766663	1100.500000
795.802551	1098.900000
795.838562	1119.500000
795.874573	1102.100000
795.910522	1101.000000
795.946472	1090.700000
795.982483	1096.800000
796.018433	1094.600000
796.054382	1105.100000
796.090393	1098.900000
796.126282	1088.200000
796.162292	1073.100000
796.198242	1061.500000
796.234192	1067.100000
796.270203	1070.400000
796.306091	1075.100000
796.342041	1096.000000
796.378052	1081.100000
796.413940	1069.200000
796.449951	1069.000000
796.485901	1068.100000
796.521790	1074.700000
796.557800	1087.100000
796.593689	1082.700000
796.629639	1067.100000
796.665649	1063.200000
796.701599	1064.600000
796.737488	1068.000000
796.773437	1069.700000
796.809387	1073.000000
796.845337	1066.800000
796.881287	1054.700000
796.917175	1033.200000
796.953125	1039.200000
796.989075	1051.700000
797.024963	1052.400000
797.060913	1048.800000
797.096863	1051.100000
797.132751	1038.600000
797.168701	1023.500000
797.204590	1026.200000
797.240540	1035.900000
797.276489	1036.800000
797.312439	1049.900000
797.348328	1039.900000
797.384277	1028.600000
797.420166	1017.200000
797.456055	1021.400000
797.492004	1013.300000
797.527893	1027.500000
797.563843	1030.700000
797.599731	1012.400000
797.635620	1001.100000
797.671570	1013.600000
797.707520	1007.200000
797.743347	1008.100000
797.779297	1020.700000
797.815125	1012.600000
797.851074	999.900000
797.887024	993.800000
797.922913	986.900000
797.958801	1000.500000
797.994690	994.800000
798.030579	1005.100000
798.066467	1005.600000
798.102356	988.400000
798.138245	980.700000
798.174133	978.400000
798.210083	985.400000
798.245911	998.900000
798.281799	1002.800000
798.317749	987.100000
798.353577	976.100000
798.389465	975.500000
798.425293	977.000000
798.461243	969.600000
798.497131	975.600000
798.532959	976.600000
798.568848	983.800000
798.604736	969.000000
798.640564	955.000000
798.676453	954.200000
798.712402	961.300000
798.748230	963.000000
798.784119	958.700000
798.820007	961.900000
798.855835	959.500000
798.891724	951.800000
798.927551	945.300000
798.963379	960.400000
798.999268	955.400000
799.035095	945.800000
799.070984	942.900000
799.106873	927.300000
799.142700	938.700000
799.178528	931.600000
799.214417	930.300000
799.250244	946.600000
799.286133	936.000000
799.321960	928.300000
799.357788	924.900000
799.393677	927.500000
799.429504	923.000000
799.465332	925.800000
799.501221	934.000000
799.537048	933.200000
799.572876	924.100000
799.608704	923.000000
799.644531	928.000000
799.680359	924.800000
799.716248	937.100000
799.752014	937.700000
799.787903	928.200000
799.823730	923.700000
799.859558	912.800000
799.895386	915.900000
799.931213	918.400000
799.967041	911.300000
800.002869	904.700000
800.038696	914.200000
800.074463	896.900000
800.110352	896.700000
800.146179	887.400000
800.181946	896.200000
800.217773	903.700000
800.253540	898.100000
800.289429	892.800000
800.325256	881.000000
800.361023	871.300000
800.396851	875.100000
800.432678	878.300000
800.468445	872.200000
800.504272	869.600000
800.540100	852.500000
800.575867	848.900000
800.611694	858.200000
800.647461	847.700000
800.683289	850.700000
800.719116	856.000000
800.754883	848.700000
800.790649	828.300000
800.826477	820.400000
800.862244	846.200000
800.898071	828.500000
800.933838	824.100000
800.969604	820.800000
801.005432	820.300000
801.041199	824.000000
801.076965	812.200000
801.112793	802.400000
801.148560	795.100000
801.184326	799.000000
801.220154	799.800000
801.255859	783.300000
801.291687	783.300000
801.327454	777.500000
801.363281	780.500000
801.398987	776.700000
801.434814	781.800000
801.470520	786.700000
801.506287	775.000000
801.542114	767.300000
801.577820	771.100000
801.613647	771.300000
801.649414	763.400000
801.685120	762.000000
801.720886	771.800000
801.756714	758.700000
801.792419	747.000000
801.828186	742.100000
801.863892	752.300000
801.899719	741.100000
801.935486	739.200000
801.971252	744.100000
802.006958	738.300000
802.042725	733.900000
802.078430	730.500000
802.114197	731.400000
802.149963	747.700000
802.185669	731.000000
802.221436	726.200000
802.257202	725.500000
802.292908	728.600000
802.328674	734.100000
802.364441	732.800000
802.400146	723.700000
802.435913	719.900000
802.471558	720.300000
802.507324	709.600000
802.543091	700.700000
802.578796	712.300000
802.614502	713.400000
802.650269	716.200000
802.685974	700.900000
802.721741	706.100000
802.757446	707.000000
802.793152	703.300000
802.828918	715.600000
802.864624	703.400000
802.900330	703.800000
802.936035	698.200000
802.971802	695.100000
803.007446	694.800000
803.043213	689.800000
803.078857	695.600000
803.114624	677.300000
803.150330	685.700000
803.185974	675.300000
803.221741	673.100000
803.257446	680.900000
803.293152	680.800000
803.328857	674.100000
803.364563	666.700000
803.400208	661.100000
803.435974	670.400000
803.471680	660.700000
803.507324	656.800000
803.543030	667.700000
803.578735	666.200000
803.614441	658.300000
803.650146	660.300000
803.685791	648.900000
803.721497	648.200000
803.757202	636.400000
803.792847	652.600000
803.828552	640.700000
803.864258	644.100000
803.899902	641.100000
803.935608	624.500000
803.971313	630.600000
804.006958	630.300000
804.042664	629.100000
804.078308	634.900000
804.113953	623.800000
804.149658	632.000000
804.185364	620.300000
804.221008	631.100000
804.256714	619.700000
804.292297	616.600000
804.328003	614.700000
804.363708	605.100000
804.399292	603.900000
804.434998	607.600000
804.470703	594.800000
804.506287	612.500000
804.541992	604.100000
804.577637	606.400000
804.613281	591.000000
804.648926	591.800000
804.684570	597.900000
804.720215	590.000000
804.755920	590.100000
804.791565	585.700000
804.827209	589.700000
804.862854	585.900000
804.898437	579.900000
804.934143	582.200000
804.969788	580.600000
805.005371	584.700000
805.041077	584.000000
805.076721	582.700000
805.112305	568.400000
805.147949	572.600000
805.183655	565.000000
805.219238	572.100000
805.254883	570.500000
805.290466	576.100000
805.326111	565.900000
805.361755	557.400000
805.397400	562.200000
805.432983	564.700000
805.468628	564.100000
805.504211	572.400000
805.539856	568.100000
805.575500	574.600000
805.611084	563.300000
805.646729	545.500000
805.682373	550.900000
805.717957	566.000000
805.753601	566.600000
805.789246	546.900000
805.824768	560.500000
805.860413	558.900000
805.895996	546.100000
805.931641	546.800000
805.967224	552.500000
806.002869	547.500000
806.038452	555.900000
806.074036	551.500000
806.109619	539.200000
806.145264	537.900000
806.180847	539.500000
806.216431	531.500000
806.252014	541.400000
806.287659	538.500000
806.323181	547.300000
806.358826	540.900000
806.394409	521.600000
806.429993	525.400000
806.465576	539.400000
806.501160	520.400000
806.536743	510.100000
806.572327	522.400000
806.607910	518.900000
806.643494	517.900000
806.679077	514.700000
806.714661	519.800000
806.750244	519.300000
806.785828	511.500000
806.821350	510.400000
806.856934	514.600000
806.892517	510.100000
806.928101	501.200000
806.963684	501.600000
806.999268	510.900000
807.034790	491.500000
807.070374	499.000000
807.105896	493.100000
807.141479	487.600000
807.177063	499.300000
807.212585	487.700000
807.248169	489.000000
807.283752	494.900000
807.319275	487.400000
807.354858	484.200000
807.390381	478.600000
807.425903	483.200000
807.461487	477.400000
807.497070	471.400000
807.532593	472.600000
807.568115	472.600000
807.603699	468.500000
807.639221	463.200000
807.674744	464.400000
807.710266	473.400000
807.745850	473.200000
807.781372	462.500000
807.816895	460.500000
807.852417	464.000000
807.888000	459.000000
807.923523	455.100000
807.959045	462.200000
807.994629	452.000000
808.030090	448.700000
808.065613	456.700000
808.101135	459.000000
808.136658	453.200000
808.172241	452.500000
808.207764	449.500000
808.243225	444.200000
808.278809	441.600000
808.314270	450.200000
808.349792	436.000000
808.385315	434.200000
808.420837	441.700000
808.456360	444.600000
808.491882	441.100000
808.527344	436.300000
808.562866	446.400000
808.598389	437.000000
808.633850	429.500000
808.669434	429.300000
808.704895	439.900000
808.740417	441.600000
808.775940	432.800000
808.811462	427.600000
808.846924	418.100000
808.882385	415.300000
808.917847	414.700000
808.953369	418.400000
808.988892	410.500000
809.024353	419.500000
809.059875	419.400000
809.095398	411.500000
809.130798	405.500000
809.166321	408.600000
809.201843	407.700000
809.237305	406.800000
809.272766	415.700000
809.308228	400.100000
809.343750	400.800000
809.379211	400.200000
809.414734	400.400000
809.450134	407.000000
809.485657	390.600000
809.521118	400.400000
809.556580	396.700000
809.592102	395.400000
809.627502	391.500000
809.663025	389.400000
809.698486	384.100000
809.733887	381.600000
809.769409	384.300000
809.804871	373.000000
809.840271	377.800000
809.875793	382.700000
809.911194	383.900000
809.946655	376.500000
809.982178	371.600000
810.017639	378.300000
810.053040	371.900000
810.088501	371.400000
810.123901	369.800000
810.159424	367.200000
810.194885	362.500000
810.230286	368.200000
810.265747	359.800000
810.301208	357.700000
810.336609	362.100000
810.372070	355.500000
810.407532	358.200000
810.442932	361.300000
810.478394	363.400000
810.513794	356.700000
810.549255	356.900000
810.584717	352.800000
810.620117	346.700000
810.655518	356.800000
810.690979	351.200000
810.726379	351.600000
810.761841	341.600000
810.797302	340.300000
810.832642	341.700000
810.868103	353.000000
810.903564	341.300000
810.938904	347.700000
810.974365	333.700000
811.009827	339.400000
811.045166	337.900000
811.080627	327.600000
811.115967	335.200000
811.151428	343.100000
811.186829	334.400000
811.222229	334.900000
811.257629	327.600000
811.293091	335.500000
811.328430	341.500000
811.363892	333.200000
811.399292	337.600000
811.434631	330.900000
811.470093	335.700000
811.505493	326.300000
811.540833	328.400000
811.576294	331.300000
811.611694	327.300000
811.647034	322.000000
811.682434	325.500000
811.717773	327.100000
811.753235	330.800000
811.788635	323.800000
811.823975	325.500000
811.859375	330.900000
811.894775	317.500000
811.930115	319.800000
811.965515	319.200000
812.000916	326.000000
812.036255	319.000000
812.071655	322.000000
812.106995	315.000000
812.142395	314.400000
812.177795	323.000000
812.213196	319.300000
812.248474	319.100000
812.283875	310.400000
812.319214	313.500000
812.354614	316.500000
812.390015	313.200000
812.425293	310.200000
812.460693	312.100000
812.496094	308.900000
812.531433	301.700000
812.566772	303.100000
812.602173	305.800000
812.637451	306.800000
812.672852	302.900000
812.708191	307.100000
812.743530	302.300000
812.778931	294.100000
812.814270	295.600000
812.849609	306.200000
812.884949	298.000000
812.920227	292.200000
812.955627	309.100000
812.990967	299.400000
813.026306	293.600000
813.061646	286.000000
813.096985	281.300000
813.132324	281.200000
813.167664	283.200000
813.203003	289.700000
813.238281	275.800000
813.273682	278.900000
813.308960	274.100000
813.344299	279.900000
813.379639	286.800000
813.414978	278.600000
813.450256	279.000000
813.485596	283.600000
813.520874	273.500000
813.556213	277.600000
813.591614	279.000000
813.626831	274.100000
813.662170	278.100000
813.697510	289.200000
813.732788	269.500000
813.768127	276.900000
813.803467	276.300000
813.838745	272.200000
813.874084	275.700000
813.909363	274.900000
813.944641	276.800000
813.979980	265.500000
814.015320	268.300000
814.050598	267.300000
814.085876	271.200000
814.121155	268.100000
814.156494	265.100000
814.191772	266.000000
814.227051	263.500000
814.262390	265.800000
814.297668	265.400000
814.332947	267.700000
814.368225	259.100000
814.403564	261.600000
814.438782	260.600000
814.474121	261.000000
814.509338	258.700000
814.544617	267.200000
814.579956	256.200000
814.615173	267.100000
814.650513	262.900000
814.685791	255.500000
814.721008	258.300000
814.756348	260.200000
814.791626	255.700000
814.826843	255.300000
814.862122	255.200000
814.897400	253.000000
814.932678	256.000000
814.967957	254.700000
815.003235	253.500000
815.038452	248.300000
815.073730	247.800000
815.108948	255.600000
815.144226	254.300000
815.179504	257.500000
815.214722	242.600000
815.250000	241.200000
815.285278	248.200000
815.320496	242.100000
815.355774	245.900000
815.391052	248.700000
815.426270	245.900000
815.461487	242.300000
815.496765	239.700000
815.531982	234.500000
815.567261	241.900000
815.602539	251.100000
815.637695	245.100000
815.672974	245.800000
815.708191	245.900000
815.743408	247.200000
815.778687	238.900000
815.813904	249.500000
815.849121	230.500000
815.884399	234.500000
815.919556	234.800000
815.954834	234.000000
815.990051	238.700000
816.025269	242.000000
816.060486	231.900000
816.095703	231.900000
816.130920	235.900000
816.166199	231.100000
816.201416	236.900000
816.236572	241.900000
816.271851	230.500000
816.307007	238.400000
816.342224	227.400000
816.377441	232.800000
816.412659	222.600000
816.447876	235.600000
816.483093	230.500000
816.518250	231.600000
816.553467	227.000000
816.588745	232.800000
816.623901	224.900000
816.659119	219.800000
816.694275	225.000000
816.729492	222.700000
816.764709	256.500000
816.799927	218.900000
816.835083	225.400000
816.870300	220.000000
816.905457	222.100000
816.940674	227.400000
816.975830	218.800000
817.010986	216.100000
817.046204	219.700000
817.081421	215.300000
817.116577	216.100000
817.151733	226.000000
817.186951	224.500000
817.222107	220.400000
817.257324	223.700000
817.292419	221.300000
817.327637	212.200000
817.362854	217.300000
817.398010	211.700000
817.433167	213.600000
817.468323	214.500000
817.503479	215.600000
817.538635	224.900000
817.573853	217.200000
817.608948	215.800000
817.644165	211.600000
817.679321	210.400000
817.714478	211.000000
817.749634	215.200000
817.784790	227.000000
817.819946	221.300000
817.855103	203.300000
817.890198	212.800000
817.925415	205.800000
817.960571	214.400000
817.995667	213.300000
818.030823	215.100000
818.066040	209.400000
818.101135	212.500000
818.136292	210.600000
818.171448	205.400000
818.206543	209.200000
818.241699	214.400000
818.276855	210.500000
818.311951	210.300000
818.347107	206.400000
818.382263	212.100000
818.417358	217.400000
818.452515	218.200000
818.487610	217.800000
818.522766	207.300000
818.557922	217.800000
818.593018	214.600000
818.628113	212.100000
818.663269	205.300000
818.698364	209.200000
818.733521	205.100000
818.768677	210.300000
818.803711	203.100000
818.838867	204.900000
818.874023	206.800000
818.909058	204.200000
818.944214	202.300000
818.979370	209.800000
819.014404	207.000000
819.049561	202.300000
819.084595	209.000000
819.119751	199.000000
819.154846	207.600000
819.189941	204.600000
819.225037	199.200000
819.260193	195.800000
819.295227	197.700000
819.330322	193.800000
819.365479	194.100000
819.400513	226.600000
819.435608	192.400000
819.470764	191.800000
819.505798	195.300000
819.540894	198.700000
819.575989	196.700000
819.611084	207.100000
819.646179	205.300000
819.681213	203.100000
819.716309	198.800000
819.751404	199.200000
819.786438	203.600000
819.821533	194.300000
819.856628	200.600000
819.891663	205.200000
819.926758	209.600000
819.961853	206.400000
819.996887	195.000000
820.031982	201.900000
820.067017	198.500000
820.102112	227.000000
820.137207	196.800000
820.172302	215.400000
820.207275	195.600000
820.242371	195.500000
820.277405	194.700000
820.312500	198.500000
820.347534	200.900000
820.382568	204.700000
820.417664	195.200000
820.452759	195.900000
820.487732	194.200000
820.522827	195.700000
820.557861	193.200000
820.592896	195.200000
820.627930	194.900000
820.662964	192.900000
820.698059	198.500000
820.733093	194.400000
820.768127	200.200000
820.803162	195.200000
820.838196	193.100000
820.873230	197.300000
820.908264	196.600000
820.943298	192.900000
820.978333	202.100000
821.013367	196.500000
821.048401	202.000000
821.083435	201.700000
821.118469	187.700000
821.153503	201.800000
821.188477	197.800000
821.223511	189.000000
821.258484	195.100000
821.293579	195.800000
821.328613	188.900000
821.363647	194.300000
821.398621	190.300000
821.433655	192.300000
821.468628	208.400000
821.503662	194.400000
821.538696	198.200000
821.573669	190.100000
821.608704	199.800000
821.643677	192.400000
821.678650	198.700000
821.713684	204.000000
821.748718	194.600000
821.783691	193.600000
821.818726	197.300000
821.853638	195.800000
821.888672	193.600000
821.923706	193.600000
821.958618	193.600000
821.993652	192.600000
822.028687	200.600000
822.063599	200.700000
822.098633	196.800000
822.133667	190.100000
822.168579	194.200000
822.203613	196.100000
822.238586	191.300000
822.273560	197.100000
822.308533	191.400000
822.343567	192.300000
822.378479	193.100000
822.413452	191.700000
822.448425	190.600000
822.483398	200.300000
822.518372	198.000000
822.553345	191.800000
822.588318	202.600000
822.623291	192.300000
822.658203	192.200000
822.693237	194.500000
822.728210	187.300000
822.763123	195.800000
822.798096	189.900000
822.833069	194.800000
822.867981	193.500000
822.902954	195.800000
822.937927	198.200000
822.972900	207.300000
823.007874	186.100000
823.042725	199.200000
823.077698	206.900000
823.112671	191.300000
823.147583	192.900000
823.182556	197.500000
823.217529	200.000000
823.252441	192.500000
823.287415	209.100000
823.322388	197.900000
823.357239	194.600000
823.392212	202.900000
823.427185	196.800000
823.462097	190.500000
823.497009	197.200000
823.531982	192.600000
823.566895	194.400000
823.601807	190.000000
823.636719	192.600000
823.671631	198.600000
823.706604	192.300000
823.741455	197.200000
823.776428	187.600000
823.811340	197.600000
823.846252	200.600000
823.881165	201.600000
823.916138	195.100000
823.950989	203.200000
823.985901	191.200000
824.020813	194.700000
824.055725	192.100000
824.090637	190.100000
824.125610	194.800000
824.160461	194.300000
824.195374	196.200000
824.230225	197.600000
824.265198	187.300000
824.300110	190.600000
824.334961	203.500000
824.369873	183.100000
824.404785	196.400000
824.439636	200.300000
824.474548	185.700000
824.509460	183.600000
824.544312	199.500000
824.579224	196.200000
824.614075	196.300000
824.648987	193.700000
824.683899	193.600000
824.718811	191.500000
824.753662	202.500000
824.788574	198.700000
824.823364	196.700000
824.858276	191.200000
824.893188	200.800000
824.928040	199.300000
824.962952	197.300000
824.997803	196.400000
825.032654	196.600000
825.067566	197.400000
825.102417	192.000000
825.137268	193.700000
825.172119	195.000000
825.206970	189.900000
825.241882	192.400000
825.276733	190.900000
825.311646	192.300000
825.346436	187.100000
825.381348	188.400000
825.416138	193.800000
825.450989	189.500000
825.485901	185.300000
825.520691	186.700000
825.555542	187.600000
825.590454	194.700000
825.625244	185.800000
825.660095	200.100000
825.695007	198.500000
825.729797	192.200000
825.764648	188.600000
825.799438	191.600000
825.834290	194.500000
825.869202	187.000000
825.903992	195.200000
825.938843	188.700000
825.973694	189.300000
826.008484	204.700000
826.043335	188.000000
826.078186	182.900000
826.112976	199.600000
826.147827	198.100000
826.182678	203.400000
826.217468	185.900000
826.252319	198.900000
826.287109	188.800000
826.321899	201.200000
826.356750	191.400000
826.391541	188.600000
826.426392	198.100000
826.461182	193.700000
826.495972	186.900000
826.530823	183.300000
826.565613	193.700000
826.600403	189.400000
826.635254	196.500000
826.670044	186.000000
826.704834	185.300000
826.739685	187.800000
826.774475	194.100000
826.809265	192.400000
826.844055	189.500000
826.878906	200.000000
826.913635	192.600000
826.948425	196.400000
826.983215	194.000000
827.018005	198.000000
827.052856	191.100000
827.087585	195.000000
827.122375	184.300000
827.157227	192.400000
827.191956	204.700000
827.226746	186.700000
827.261536	197.300000
827.296265	186.800000
827.331116	190.100000
827.365906	196.000000
827.400635	190.300000
827.435425	184.200000
827.470215	200.100000
827.504944	189.800000
827.539734	198.200000
827.574463	191.700000
827.609253	200.700000
827.644043	193.100000
827.678772	199.400000
827.713562	189.600000
827.748352	192.000000
827.783081	189.600000
827.817871	193.100000
827.852600	188.800000
827.887329	193.700000
827.922119	181.700000
827.956848	196.700000
827.991638	207.200000
828.026367	195.700000
828.061157	193.200000
828.095886	192.800000
828.130615	207.700000
828.165344	183.100000
828.200073	192.700000
828.234863	191.400000
828.269592	192.600000
828.304321	198.100000
828.339111	193.200000
828.373779	189.700000
828.408569	199.100000
828.443298	199.200000
828.477966	190.500000
828.512756	195.500000
828.547424	186.200000
828.582214	190.500000
828.616943	191.500000
828.651672	191.200000
828.686340	196.700000
828.721130	189.000000
828.755798	191.400000
828.790527	193.400000
828.825256	194.300000
828.859924	192.900000
828.894714	198.700000
828.929443	201.100000
828.964111	187.900000
828.998840	195.700000
829.033569	190.700000
829.068237	189.200000
829.102966	190.700000
829.137634	193.200000
829.172363	192.900000
829.207092	193.300000
829.241821	190.000000
829.276489	184.400000
829.311157	193.600000
829.345825	191.100000
829.380554	198.200000
829.415283	187.300000
829.449951	187.000000
829.484619	200.900000
829.519348	199.800000
829.554016	192.100000
829.588745	192.400000
829.623413	186.700000
829.658081	206.000000
829.692749	185.200000
829.727417	198.800000
829.762146	193.900000
829.796814	189.000000
829.831482	190.800000
829.866150	194.200000
829.900879	190.000000
829.935486	196.700000
829.970154	190.200000
830.004883	205.200000
830.039490	194.000000
830.074219	191.000000
830.108887	194.500000
830.143494	192.400000
830.178223	185.600000
830.212891	191.900000
830.247498	193.600000
830.282166	200.600000
830.316772	197.600000
830.351501	189.400000
830.386169	191.900000
830.420776	192.500000
830.455444	191.900000
830.490112	188.700000
830.524719	184.600000
830.559387	195.400000
830.594055	194.800000
830.628662	191.400000
830.663330	191.300000
830.697998	200.000000
830.732605	190.900000
830.767273	196.100000
830.801941	191.300000
830.836487	202.000000
830.871155	193.700000
830.905762	195.900000
830.940430	185.100000
830.975098	189.100000
831.009644	193.100000
831.044312	199.900000
831.078979	194.800000
831.113525	183.300000
831.148193	192.600000
831.182861	190.500000
831.217407	196.300000
831.252075	210.200000
831.286621	191.000000
831.321289	188.000000
831.355896	193.100000
831.390564	199.800000
831.425110	194.700000
831.459778	199.500000
831.494324	208.600000
831.528931	196.700000
831.563599	197.000000
831.598145	186.400000
831.632751	192.600000
831.667419	191.100000
831.701965	194.600000
831.736572	197.300000
831.771179	186.700000
831.805786	190.300000
831.840393	199.200000
831.874939	183.800000
831.909546	196.400000
831.944153	184.500000
831.978760	191.900000
832.013306	187.200000
832.047913	199.400000
832.082458	200.600000
832.117065	189.100000
832.151672	201.700000
832.186218	194.200000
832.220825	194.900000
832.255432	183.700000
832.289978	188.600000
832.324585	194.500000
832.359192	196.300000
832.393677	190.600000
832.428284	193.500000
832.462830	191.000000
832.497437	192.100000
832.531982	195.700000
832.566589	192.200000
832.601135	193.800000
832.635681	184.200000
832.670227	192.000000
832.704773	201.000000
832.739380	194.300000
832.773926	194.000000
832.808472	187.300000
832.843079	192.800000
832.877563	196.300000
832.912170	191.100000
832.946716	185.200000
832.981201	199.100000
833.015808	195.900000
833.050293	193.900000
833.084839	189.600000
833.119446	191.700000
833.153992	195.800000
833.188477	192.600000
833.223022	187.900000
833.257568	193.300000
833.292114	199.300000
833.326660	204.900000
833.361145	189.000000
833.395691	184.800000
833.430237	190.100000
833.464783	196.400000
833.499329	187.800000
833.533875	186.800000
833.568359	195.300000
833.602905	197.300000
833.637390	196.800000
833.671875	188.600000
833.706421	190.800000
833.740906	189.700000
833.775452	181.800000
833.809998	188.500000
833.844482	198.100000
833.879028	191.900000
833.913513	190.800000
833.947998	195.100000
833.982544	189.000000
834.017090	190.000000
834.051514	181.100000
834.086060	195.100000
834.120544	193.700000
834.155029	193.400000
834.189575	190.600000
834.223999	195.800000
834.258545	194.200000
834.293030	193.600000
834.327515	193.000000
834.362000	188.500000
834.396545	197.900000
834.430969	191.600000
834.465454	198.100000
834.500000	184.300000
834.534424	196.800000
834.568970	182.700000
834.603455	184.600000
834.637878	188.600000
834.672363	194.000000
834.706909	194.100000
834.741333	195.300000
834.775818	183.500000
834.810242	189.200000
834.844727	194.100000
834.879211	192.000000
834.913635	194.000000
834.948181	197.000000
834.982666	192.900000
835.017090	192.900000
835.051575	195.300000
835.086060	190.100000
835.120483	197.300000
835.154907	197.100000
835.189331	190.500000
835.223816	195.000000
835.258301	186.900000
835.292786	187.600000
835.327209	198.300000
835.361694	187.700000
835.396057	188.400000
835.430542	195.100000
835.465027	193.000000
835.499390	187.100000
835.533875	210.300000
835.568359	190.300000
835.602722	184.000000
835.637207	193.400000
835.671692	186.300000
835.706055	207.700000
835.740540	195.800000
835.774902	194.100000
835.809387	192.400000
835.843811	185.100000
835.878235	200.900000
835.912659	185.400000
835.947083	188.700000
835.981506	192.400000
836.015930	186.000000
836.050354	198.000000
836.084778	202.600000
836.119202	198.200000
836.153625	205.800000
836.187988	187.700000
836.222473	190.600000
836.256897	194.700000
836.291260	192.600000
836.325684	193.500000
836.360046	191.200000
836.394470	190.600000
836.428894	199.200000
836.463318	188.800000
836.497681	196.600000
836.532104	199.500000
836.566467	193.900000
836.600891	191.700000
836.635315	198.500000
836.669678	196.000000
836.704102	197.200000
836.738525	194.300000
836.772888	185.300000
836.807251	189.900000
836.841675	195.000000
836.876038	186.500000
836.910461	187.800000
836.944763	196.300000
836.979187	188.400000
837.013611	197.400000
837.047974	186.300000
837.082336	203.800000
837.116699	196.200000
837.151062	191.000000
837.185486	185.800000
837.219849	191.300000
837.254211	195.400000
837.288574	189.700000
837.322937	186.700000
837.357300	179.700000
837.391663	204.800000
837.426086	198.800000
837.460388	191.700000
837.494751	198.200000
837.529114	190.800000
837.563477	197.000000
837.597839	193.400000
837.632141	192.800000
837.666565	189.200000
837.700928	196.500000
837.735229	195.700000
837.769592	194.000000
837.803955	198.600000
837.838257	190.400000
837.872620	189.800000
837.906982	200.700000
837.941284	193.200000
837.975647	194.500000
838.010010	199.900000
838.044312	192.200000
838.078674	189.400000
838.112976	193.700000
838.147339	195.900000
838.181702	192.400000
838.216003	202.400000
838.250366	195.200000
838.284668	195.600000
838.318970	185.300000
838.353333	190.700000
838.387634	190.900000
838.421936	193.600000
838.456299	194.300000
838.490601	200.500000
838.524902	196.100000
838.559265	195.900000
838.593567	196.100000
838.627869	186.600000
838.662170	195.300000
838.696472	184.700000
838.730774	187.700000
838.765137	198.200000
838.799377	177.500000
838.833740	193.300000
838.868042	198.300000
838.902283	183.600000
838.936646	198.000000
838.970947	195.200000
839.005188	196.900000
839.039551	185.900000
839.073792	199.300000
839.108093	190.600000
839.142395	203.100000
839.176697	185.300000
839.210937	192.900000
839.245300	205.000000
839.279541	185.000000
839.313843	191.700000
839.348145	195.500000
839.382385	198.500000
839.416687	196.700000
839.450989	196.800000
839.485229	191.600000
839.519531	189.500000
839.553833	197.900000
839.588013	195.100000
839.622314	193.700000
839.656555	195.800000
839.690857	193.600000
839.725159	188.400000
839.759460	191.400000
839.793640	190.100000
839.827942	191.100000
839.862183	187.500000
839.896423	193.500000
839.930725	202.200000
839.964966	199.800000
839.999207	200.100000
840.033508	199.700000
840.067688	191.200000
840.101990	201.100000
840.136230	192.800000
840.170471	201.100000
840.204712	187.900000
840.238953	188.300000
840.273193	192.600000
840.307434	196.700000
840.341736	188.500000
840.375916	186.300000
840.410217	190.000000
840.444397	196.400000
840.478638	194.800000
840.512878	199.900000
840.547119	193.500000
840.581360	196.000000
840.615601	203.500000
840.649780	202.800000
840.684021	193.100000
840.718262	202.200000
840.752441	197.800000
840.786682	194.100000
840.820862	194.700000
840.855103	201.700000
840.889343	193.900000
840.923584	198.200000
840.957764	196.400000
840.992004	196.500000
841.026184	207.400000
841.060425	190.800000
841.094666	189.100000
841.128845	198.500000
841.163025	193.800000
841.197266	196.600000
841.231445	193.400000
841.265686	194.200000
841.299866	189.100000
841.334045	201.600000
841.368286	191.700000
841.402405	202.300000
841.436646	197.300000
841.470825	190.700000
841.505005	192.400000
841.539185	189.500000
841.573425	190.100000
841.607544	193.800000
841.641785	194.300000
841.675964	187.200000
841.710144	194.800000
841.744324	190.300000
841.778503	192.700000
841.812683	188.100000
841.846863	201.700000
841.881042	199.700000
841.915222	189.900000
841.949402	208.800000
841.983521	183.600000
842.017700	192.500000
842.051880	194.500000
842.086060	195.200000
842.120239	193.800000
842.154419	190.900000
842.188538	193.700000
842.222717	188.400000
842.256897	202.900000
842.291016	192.600000
842.325195	196.900000
842.359375	204.000000
842.393494	201.900000
842.427673	193.400000
842.461853	196.500000
842.495911	200.800000
842.530090	197.100000
842.564209	192.600000
842.598389	195.800000
842.632568	194.200000
842.666626	199.000000
842.700806	190.500000
842.734985	193.000000
842.769043	196.000000
842.803223	191.200000
842.837402	191.600000
842.871460	191.900000
842.905640	202.000000
842.939697	190.100000
842.973877	195.300000
843.007996	199.600000
843.042175	201.800000
843.076233	191.100000
843.110413	194.100000
843.144470	202.900000
843.178589	197.000000
843.212769	190.500000
843.246826	198.900000
843.280945	193.100000
843.315125	191.800000
843.349182	188.700000
843.383301	201.300000
843.417419	206.500000
843.451538	193.100000
843.485657	191.000000
843.519714	192.300000
843.553833	194.900000
843.587952	191.300000
843.622070	189.700000
843.656128	197.200000
843.690247	192.300000
843.724304	190.700000
843.758423	194.600000
843.792542	193.400000
843.826599	193.400000
843.860718	192.100000
843.894836	186.700000
843.928894	194.300000
843.963013	195.200000
843.997070	191.200000
844.031128	186.200000
844.065247	198.800000
844.099304	198.500000
844.133362	195.800000
844.167480	196.800000
844.201599	202.900000
844.235596	196.700000
844.269714	196.600000
844.303711	195.900000
844.337830	186.100000
844.371948	198.800000
844.405945	193.100000
844.440063	187.600000
844.474121	207.600000
844.508118	192.300000
844.542236	193.800000
844.576294	193.300000
844.610352	189.000000
844.644409	192.700000
844.678406	185.700000
844.712524	199.300000
844.746582	200.700000
844.780640	194.300000
844.814636	195.400000
844.848755	202.700000
844.882751	192.300000
844.916809	199.000000
844.950867	195.500000
844.984863	201.800000
845.018921	192.400000
845.052979	189.200000
845.086975	195.500000
845.121033	187.000000
845.155090	189.200000
845.189087	200.500000
845.223145	190.500000
845.257141	193.800000
845.291199	196.200000
845.325256	201.500000
845.359253	194.600000
845.393250	205.000000
845.427307	192.700000
845.461304	195.800000
845.495361	194.200000
845.529358	204.700000
845.563354	191.400000
845.597412	189.800000
845.631409	201.200000
845.665405	201.800000
845.699463	198.200000
845.733459	193.600000
845.767456	200.000000
845.801453	192.700000
845.835449	200.500000
845.869446	198.500000
845.903503	199.400000
845.937439	190.400000
845.971497	201.100000
846.005493	189.400000
846.039429	197.700000
846.073486	204.900000
846.107483	193.000000
846.141418	194.500000
846.175476	192.900000
846.209473	201.600000
846.243408	190.400000
846.277405	195.400000
846.311401	189.600000
846.345337	194.900000
846.379395	200.800000
846.413330	191.500000
846.447327	202.400000
846.481323	188.400000
846.515259	191.000000
846.549255	194.200000
846.583252	195.500000
846.617187	187.200000
846.651184	196.200000
846.685120	192.200000
846.719055	200.800000
846.753052	198.300000
846.786987	198.300000
846.820984	186.800000
846.854980	201.500000
846.888916	189.500000
846.922852	196.300000
846.956848	202.100000
846.990723	189.200000
847.024719	194.500000
847.058716	193.300000
847.092590	201.200000
847.126587	196.500000
847.160522	191.500000
847.194458	199.400000
847.228455	189.700000
847.262390	188.200000
847.296265	191.200000
847.330261	202.000000
847.364136	191.000000
847.398132	191.300000
847.432068	194.300000
847.466003	194.100000
847.499939	192.800000
847.533875	197.900000
847.567749	192.000000
847.601746	192.700000
847.635681	197.200000
847.669556	186.300000
847.703491	199.400000
847.737427	208.900000
847.771301	188.900000
847.805237	197.800000
847.839233	194.400000
847.873108	193.500000
847.907043	191.800000
847.940918	200.100000
847.974854	196.400000
848.008789	199.200000
848.042664	195.100000
848.076538	197.200000
848.110474	194.900000
848.144348	195.200000
848.178284	187.700000
848.212219	195.600000
848.246094	192.500000
848.279968	195.600000
848.313904	196.100000
848.347778	194.500000
848.381653	193.700000
848.415588	190.200000
848.449463	192.200000
848.483337	195.800000
848.517212	199.400000
848.551086	195.000000
848.585022	189.800000
848.618835	201.500000
848.652771	191.100000
848.686646	188.900000
848.720520	201.900000
848.754395	193.000000
848.788330	200.100000
848.822144	197.500000
848.856018	193.000000
848.889954	203.300000
848.923767	190.200000
848.957642	190.200000
848.991577	199.300000
849.025391	191.900000
849.059265	194.400000
849.093079	190.500000
849.126953	189.900000
849.160828	200.300000
849.194641	196.000000
849.228577	190.900000
849.262451	193.500000
849.296265	193.000000
849.330139	190.000000
849.364014	194.600000
849.397827	197.600000
849.431702	194.200000
849.465515	198.900000
849.499329	184.900000
849.533203	189.300000
849.567078	182.700000
849.600891	197.900000
849.634766	192.900000
849.668518	199.100000
849.702393	193.600000
849.736267	187.500000
849.770020	205.600000
849.803894	198.100000
849.837769	193.400000
849.871521	194.300000
849.905396	200.800000
849.939270	189.200000
849.973022	192.500000
850.006897	197.000000
850.040710	197.200000
850.074524	197.400000
850.108337	192.800000
850.142151	197.200000
850.175964	200.800000
850.209778	192.400000
850.243530	181.800000
850.277405	198.500000
850.311218	195.200000
850.344971	189.700000
850.378845	202.900000
850.412659	191.100000
850.446411	194.800000
850.480225	193.300000
850.514038	200.000000
850.547791	196.600000
850.581665	195.600000
850.615417	191.300000
850.649231	196.300000
850.683044	192.300000
850.716858	193.700000
850.750610	192.900000
850.784424	198.000000
850.818176	190.600000
850.851929	192.000000
850.885742	191.600000
850.919495	194.100000
850.953308	200.600000
850.987122	202.300000
851.020874	187.300000
851.054626	187.000000
851.088440	197.200000
851.122192	199.200000
851.156006	195.700000
851.189697	192.500000
851.223511	187.700000
851.257263	198.300000
851.291077	196.200000
851.324829	192.400000
851.358582	191.500000
851.392334	191.000000
851.426086	192.900000
851.459900	203.900000
851.493591	193.200000
851.527344	195.000000
851.561157	192.100000
851.594849	196.300000
851.628662	195.600000
851.662415	201.400000
851.696106	197.700000
851.729858	198.100000
851.763611	187.500000
851.797363	195.800000
851.831116	189.900000
851.864868	197.400000
851.898560	198.700000
851.932312	191.100000
851.966064	195.700000
851.999817	192.200000
852.033569	193.600000
852.067261	197.000000
852.101013	192.400000
852.134766	194.000000
852.168457	184.100000
852.202209	196.900000
852.235901	190.600000
852.269592	196.600000
852.303345	204.900000
852.337036	197.600000
852.370789	195.600000
852.404541	197.500000
852.438171	191.500000
852.471924	191.800000
852.505676	189.100000
852.539307	196.300000
852.573059	191.700000
852.606812	191.900000
852.640442	193.000000
852.674194	199.200000
852.707886	204.800000
852.741577	203.000000
852.775269	189.300000
852.809021	196.000000
852.842651	196.500000
852.876404	199.500000
852.910034	195.000000
852.943787	200.300000
852.977478	196.200000
853.011108	190.300000
853.044861	191.100000
853.078552	201.400000
853.112183	196.300000
853.145874	196.700000
853.179626	185.300000
853.213257	195.700000
853.246948	192.400000
853.280640	202.500000
853.314270	194.500000
853.347961	202.600000
853.381653	196.600000
853.415283	197.900000
853.448975	190.400000
853.482605	194.700000
853.516296	191.600000
853.549988	189.500000
853.583618	194.700000
853.617310	195.600000
853.651001	195.500000
853.684631	189.500000
853.718323	191.600000
853.751953	203.900000
853.785583	184.300000
853.819275	199.700000
853.852966	194.500000
853.886536	186.900000
853.920227	188.200000
853.953918	199.500000
853.987488	192.500000
854.021179	199.400000
854.054749	201.900000
854.088440	196.700000
854.122131	190.100000
854.155701	198.500000
854.189331	189.500000
854.223022	198.100000
854.256592	196.200000
854.290283	191.400000
854.323914	197.700000
854.357483	195.900000
854.391174	196.500000
854.424744	204.500000
854.458374	196.100000
854.492065	205.000000
854.525696	192.200000
854.559265	201.500000
854.592896	204.200000
854.626465	194.000000
854.660095	195.200000
854.693787	195.900000
854.727356	192.600000
854.760986	197.000000
854.794617	197.000000
854.828186	193.000000
854.861816	197.300000
854.895447	195.100000
854.929016	196.000000
854.962585	197.300000
854.996155	201.800000
855.029785	196.100000
855.063416	197.900000
855.097046	199.700000
855.130615	189.200000
855.164185	200.500000
855.197754	195.600000
855.231384	197.500000
855.264954	194.200000
855.298523	198.500000
855.332153	195.500000
855.365723	202.300000
855.399292	189.500000
855.432922	192.700000
855.466492	197.400000
855.500061	189.400000
855.533630	192.100000
855.567200	198.200000
855.600769	199.600000
855.634338	199.300000
855.667969	197.700000
855.701477	190.000000
855.735046	192.800000
855.768616	186.200000
855.802185	196.800000
855.835754	210.300000
855.869324	185.800000
855.902893	192.400000
855.936401	202.500000
855.969971	195.700000
856.003540	187.800000
856.037109	197.700000
856.070618	194.700000
856.104187	188.400000
856.137695	191.700000
856.171265	186.100000
856.204834	194.400000
856.238403	198.400000
856.271912	191.500000
856.305481	196.400000
856.338989	187.900000
856.372559	197.100000
856.406128	195.400000
856.439636	199.300000
856.473145	191.300000
856.506653	200.600000
856.540222	194.100000
856.573792	202.300000
856.607300	198.900000
856.640808	189.200000
856.674377	196.400000
856.707825	221.900000
856.741394	199.100000
856.774902	190.600000
856.808472	184.800000
856.841980	198.000000
856.875488	202.100000
856.908936	187.400000
856.942505	192.100000
856.976013	195.100000
857.009521	189.900000
857.043030	196.700000
857.076477	192.800000
857.110046	200.700000
857.143555	194.900000
857.177063	201.200000
857.210571	191.300000
857.244080	189.100000
857.277527	196.500000
857.311035	193.100000
857.344543	199.300000
857.378052	194.400000
857.411499	199.700000
857.445068	205.100000
857.478516	195.400000
857.512024	189.700000
857.545532	192.600000
857.578979	197.400000
857.612427	195.400000
857.645874	191.600000
857.679382	194.800000
857.712891	198.900000
857.746399	194.200000
857.779846	199.200000
857.813354	200.400000
857.846741	194.100000
857.880249	190.100000
857.913757	196.600000
857.947266	196.100000
857.980652	198.600000
858.014160	192.300000
858.047546	193.200000
858.081055	194.200000
858.114563	203.000000
858.147949	189.800000
858.181458	198.700000
858.214844	194.100000
858.248352	186.400000
858.281799	201.100000
858.315308	206.500000
858.348694	199.000000
858.382141	203.000000
858.415588	198.100000
858.449036	198.700000
858.482483	198.800000
858.515930	190.500000
858.549377	194.400000
858.582825	202.500000
858.616211	198.500000
858.649658	196.000000
858.683105	189.800000
858.716553	191.500000
858.750000	189.400000
858.783386	192.500000
858.816833	187.600000
858.850281	196.400000
858.883728	197.800000
858.917114	193.500000
858.950562	203.900000
858.983948	202.300000
859.017395	200.200000
859.050781	191.500000
859.084167	190.700000
859.117615	187.500000
859.151062	198.200000
859.184448	191.800000
859.217834	192.700000
859.251282	191.800000
859.284668	190.700000
859.318054	185.900000
859.351440	191.100000
859.384888	204.200000
859.418274	185.300000
859.451721	185.900000
859.485046	197.400000
859.518494	195.300000
859.551819	190.100000
859.585266	197.400000
859.618652	197.500000
859.652039	189.700000
859.685425	187.700000
859.718811	187.300000
859.752197	182.700000
859.785583	203.200000
859.819031	202.000000
859.852356	197.500000
859.885742	190.500000
859.919067	194.200000
859.952454	192.100000
859.985901	200.100000
860.019287	191.300000
860.052612	0.000000
860.085999	0.000000
860.119324	0.000000
860.152710	0.000000
860.186096	0.000000
860.219421	0.000000
860.252808	0.000000
860.286133	0.000000
860.319519	0.000000
860.352905	0.000000
860.386292	0.000000
860.419617	0.000000
860.452942	0.000000
860.486267	0.000000
860.519653	0.000000
860.553040	0.000000
860.586365	0.000000
860.619690	0.000000
860.653076	0.000000
860.686340	0.000000
860.719727	0.000000
860.753113	0.000000
860.786377	0.000000
860.819763	0.000000
860.853027	0.000000
860.886414	0.000000
860.919739	0.000000
860.953125	0.000000
860.986389	0.000000
861.019714	0.000000
861.053040	0.000000
861.086365	0.000000
861.119690	0.000000
861.153076	0.000000
861.186340	0.000000
861.219666	0.000000
861.252930	0.000000
861.286316	0.000000
861.319641	0.000000
861.352905	0.000000
861.386230	0.000000
861.419495	0.000000
861.452820	0.000000
861.486145	0.000000
861.519470	0.000000
861.552734	0.000000
861.586060	0.000000
861.619324	0.000000
861.652649	0.000000
861.685974	0.000000
861.719238	0.000000
861.752563	0.000000
861.785828	0.000000
861.819092	0.000000
861.852417	0.000000
861.885742	0.000000
861.918945	0.000000
861.952271	0.000000
861.985535	0.000000
862.018799	0.000000
862.052124	0.000000
862.085449	0.000000
862.118652	0.000000
862.151978	0.000000
862.185181	0.000000
862.218506	0.000000
862.251770	0.000000
862.285034	0.000000
862.318298	0.000000
862.351562	0.000000
862.384827	0.000000
862.418091	0.000000
862.451355	0.000000
862.484619	0.000000
862.517883	0.000000
862.551086	0.000000
862.584351	0.000000
862.617676	0.000000
862.650940	0.000000
862.684143	0.000000
862.717407	0.000000
862.750610	0.000000
862.783875	0.000000
862.817139	0.000000
862.850342	0.000000
862.883606	0.000000
862.916870	0.000000
862.950073	0.000000
862.983337	0.000000
863.016602	0.000000
863.049805	0.000000
863.083069	0.000000
863.116211	0.000000
863.149475	0.000000
863.182739	0.000000
863.216003	0.000000
863.249146	0.000000
863.282410	0.000000
863.315613	0.000000
863.348816	0.000000
863.382080	0.000000
863.415222	0.000000
863.448486	0.000000
863.481689	0.000000
863.514893	0.000000
863.548157	0.000000
863.581360	0.000000
863.614502	0.000000
863.647766	0.000000
863.680908	0.000000
863.714172	0.000000
863.747375	0.000000
863.780579	0.000000
863.813721	0.000000
863.846985	0.000000
863.880127	0.000000
863.913330	0.000000
863.946533	0.000000
863.979675	0.000000
864.012939	0.000000
