Model Number: SPM-001-M   
Serial Number: 10090201
Firmware Version: 004.17.6
Exposure Time: 500000.000000us
Data Taken on: 10-03-2021 12:03:09.466
Wavelength	Amplitude
733.770752	0.000000
733.808716	0.000000
733.846619	0.000000
733.884583	0.000000
733.922546	0.000000
733.960449	0.000000
733.998413	0.000000
734.036377	0.000000
734.074219	0.000000
734.112183	0.000000
734.150085	0.000000
734.188049	0.000000
734.226013	0.000000
734.263916	0.000000
734.301819	0.000000
734.339783	0.000000
734.377686	0.000000
734.415588	0.000000
734.453552	0.000000
734.491455	0.000000
734.529419	0.000000
734.567322	0.000000
734.605225	0.000000
734.643127	0.000000
734.681091	0.000000
734.718994	0.000000
734.756897	0.000000
734.794800	0.000000
734.832703	0.000000
734.870667	0.000000
734.908508	0.000000
734.946472	0.000000
734.984375	0.000000
735.022278	0.000000
735.060181	0.000000
735.098083	0.000000
735.135986	0.000000
735.173889	0.000000
735.211792	0.000000
735.249695	0.000000
735.287598	0.000000
735.325439	0.000000
735.363403	0.000000
735.401306	0.000000
735.439148	0.000000
735.477051	0.000000
735.515015	0.000000
735.552856	0.000000
735.590759	0.000000
735.628662	0.000000
735.666504	0.000000
735.704407	0.000000
735.742310	0.000000
735.780212	0.000000
735.818115	0.000000
735.856018	0.000000
735.893860	0.000000
735.931763	0.000000
735.969604	0.000000
736.007507	0.000000
736.045410	0.000000
736.083252	0.000000
736.121094	0.000000
736.158997	0.000000
736.196838	0.000000
736.234741	0.000000
736.272644	0.000000
736.310486	0.000000
736.348389	0.000000
736.386230	0.000000
736.424072	0.000000
736.461975	0.000000
736.499878	0.000000
736.537720	0.000000
736.575562	0.000000
736.613403	0.000000
736.651306	0.000000
736.689148	0.000000
736.726990	0.000000
736.764893	0.000000
736.802734	0.000000
736.840576	0.000000
736.878418	0.000000
736.916321	0.000000
736.954102	0.000000
736.992004	0.000000
737.029846	0.000000
737.067688	0.000000
737.105530	0.000000
737.143372	0.000000
737.181213	0.000000
737.219116	0.000000
737.256897	0.000000
737.294739	0.000000
737.332642	0.000000
737.370422	0.000000
737.408325	0.000000
737.446167	0.000000
737.483948	0.000000
737.521790	0.000000
737.559692	0.000000
737.597473	0.000000
737.635315	0.000000
737.673157	0.000000
737.710999	0.000000
737.748840	0.000000
737.786621	0.000000
737.824463	0.000000
737.862305	0.000000
737.900085	0.000000
737.937927	0.000000
737.975769	0.000000
738.013550	0.000000
738.051392	0.000000
738.089233	0.000000
738.127014	0.000000
738.164856	0.000000
738.202698	0.000000
738.240479	0.000000
738.278320	0.000000
738.316162	0.000000
738.353943	0.000000
738.391785	0.000000
738.429565	0.000000
738.467407	0.000000
738.505188	0.000000
738.542969	0.000000
738.580811	0.000000
738.618652	0.000000
738.656372	0.000000
738.694214	0.000000
738.732056	0.000000
738.769836	0.000000
738.807617	0.000000
738.845459	0.000000
738.883240	0.000000
738.921021	0.000000
738.958862	0.000000
738.996582	0.000000
739.034424	0.000000
739.072205	0.000000
739.109985	0.000000
739.147827	0.000000
739.185547	0.000000
739.223389	0.000000
739.261169	0.000000
739.298889	0.000000
739.336731	0.000000
739.374512	0.000000
739.412292	0.000000
739.450073	0.000000
739.487854	0.000000
739.525635	0.000000
739.563416	0.000000
739.601135	0.000000
739.638977	0.000000
739.676758	0.000000
739.714478	0.000000
739.752258	0.000000
739.790100	0.000000
739.827820	0.000000
739.865601	0.000000
739.903381	0.000000
739.941101	0.000000
739.978882	195.600000
740.016724	190.200000
740.054443	198.700000
740.092224	189.100000
740.130005	188.600000
740.167725	189.300000
740.205505	189.000000
740.243225	200.000000
740.281006	193.900000
740.318787	184.200000
740.356506	199.000000
740.394287	197.500000
740.432068	188.600000
740.469727	185.200000
740.507507	196.300000
740.545288	192.300000
740.583008	193.500000
740.620789	193.300000
740.658569	183.000000
740.696228	192.100000
740.734009	198.200000
740.771790	180.100000
740.809509	195.600000
740.847229	187.300000
740.884949	189.200000
740.922729	185.900000
740.960449	189.800000
740.998169	186.900000
741.035950	188.800000
741.073669	192.600000
741.111389	191.300000
741.149170	202.900000
741.186890	200.700000
741.224609	195.900000
741.262329	192.400000
741.300110	203.400000
741.337769	187.000000
741.375549	187.300000
741.413208	193.800000
741.450989	188.200000
741.488708	190.100000
741.526367	189.800000
741.564148	196.100000
741.601868	198.400000
741.639526	191.900000
741.677307	194.100000
741.715027	194.500000
741.752686	187.500000
741.790466	198.300000
741.828186	195.700000
741.865845	188.800000
741.903564	184.500000
741.941345	192.400000
741.979004	189.200000
742.016724	194.400000
742.054382	192.900000
742.092102	199.200000
742.129822	184.700000
742.167480	190.500000
742.205200	191.200000
742.242920	194.000000
742.280640	197.400000
742.318359	187.400000
742.356079	189.400000
742.393738	195.700000
742.431396	189.800000
742.469116	195.600000
742.506775	181.600000
742.544495	194.300000
742.582214	196.600000
742.619873	192.100000
742.657593	199.600000
742.695251	195.900000
742.732971	189.800000
742.770630	193.900000
742.808289	191.000000
742.846008	192.900000
742.883728	195.600000
742.921326	193.900000
742.959045	189.700000
742.996765	192.700000
743.034424	192.900000
743.072083	189.000000
743.109802	191.600000
743.147400	185.700000
743.185120	193.400000
743.222839	191.800000
743.260437	197.100000
743.298157	194.300000
743.335754	183.600000
743.373474	190.300000
743.411133	184.900000
743.448792	193.500000
743.486450	191.800000
743.524170	184.900000
743.561768	193.200000
743.599487	199.200000
743.637146	203.300000
743.674744	190.000000
743.712463	190.500000
743.750122	194.100000
743.787720	195.100000
743.825439	188.500000
743.863037	189.600000
743.900696	192.100000
743.938416	217.000000
743.976013	190.600000
744.013672	201.900000
744.051331	197.600000
744.088928	201.900000
744.126587	198.500000
744.164307	193.000000
744.201904	191.300000
744.239563	195.300000
744.277222	194.400000
744.314819	191.100000
744.352478	199.500000
744.390137	195.000000
744.427734	195.700000
744.465393	189.000000
744.502991	185.800000
744.540649	196.300000
744.578308	193.400000
744.615906	187.200000
744.653564	181.800000
744.691223	195.700000
744.728821	184.600000
744.766418	193.800000
744.804077	195.400000
744.841675	189.800000
744.879333	184.800000
744.916992	191.100000
744.954529	190.800000
744.992187	199.200000
745.029785	190.100000
745.067444	188.000000
745.105042	192.700000
745.142639	195.000000
745.180298	201.000000
745.217896	189.700000
745.255493	190.600000
745.293152	196.900000
745.330750	195.800000
745.368347	200.600000
745.405945	196.400000
745.443604	193.800000
745.481140	197.000000
745.518799	191.200000
745.556396	197.100000
745.593994	196.700000
745.631592	191.000000
745.669189	187.600000
745.706787	194.600000
745.744385	188.800000
745.781982	194.100000
745.819580	188.800000
745.857178	191.600000
745.894775	191.600000
745.932373	193.200000
745.969971	193.200000
746.007568	184.300000
746.045166	204.300000
746.082764	198.800000
746.120300	195.400000
746.157898	196.300000
746.195557	192.300000
746.233093	186.000000
746.270691	196.200000
746.308228	194.500000
746.345825	198.200000
746.383423	196.400000
746.420959	186.100000
746.458557	191.100000
746.496155	189.500000
746.533691	192.400000
746.571289	186.200000
746.608887	194.500000
746.646423	194.200000
746.684021	193.500000
746.721619	189.000000
746.759155	193.800000
746.796753	185.100000
746.834351	185.600000
746.871826	186.900000
746.909424	199.700000
746.946960	194.100000
746.984558	190.600000
747.022156	190.000000
747.059631	200.700000
747.097229	194.300000
747.134827	190.500000
747.172363	200.700000
747.209900	193.400000
747.247498	187.100000
747.285034	200.300000
747.322571	199.400000
747.360168	190.900000
747.397644	185.300000
747.435242	196.300000
747.472778	199.400000
747.510315	189.700000
747.547913	190.200000
747.585388	199.400000
747.622925	193.300000
747.660522	183.400000
747.697998	189.200000
747.735596	190.900000
747.773132	190.300000
747.810669	191.500000
747.848206	196.800000
747.885742	185.900000
747.923279	187.500000
747.960815	192.800000
747.998352	193.000000
748.035889	195.600000
748.073425	197.300000
748.110901	188.000000
748.148437	188.600000
748.185974	193.000000
748.223511	204.700000
748.261047	193.200000
748.298584	193.400000
748.336060	191.700000
748.373596	196.000000
748.411133	209.400000
748.448608	188.700000
748.486145	195.700000
748.523682	200.900000
748.561218	197.500000
748.598755	194.900000
748.636292	195.500000
748.673706	190.900000
748.711243	198.700000
748.748718	194.800000
748.786255	192.800000
748.823792	193.700000
748.861267	187.900000
748.898804	195.300000
748.936340	194.400000
748.973816	190.900000
749.011292	198.200000
749.048828	195.400000
749.086304	195.800000
749.123840	204.800000
749.161316	188.100000
749.198792	202.600000
749.236328	198.900000
749.273743	191.800000
749.311279	191.400000
749.348816	194.800000
749.386230	193.200000
749.423767	180.000000
749.461304	195.500000
749.498718	193.000000
749.536255	200.600000
749.573730	205.100000
749.611206	198.000000
749.648682	191.400000
749.686218	192.400000
749.723633	196.200000
749.761169	189.800000
749.798645	189.200000
749.836060	190.800000
749.873596	189.800000
749.911011	192.600000
749.948547	199.900000
749.986023	193.000000
750.023437	191.000000
750.060913	186.100000
750.098450	186.700000
750.135864	192.000000
750.173340	193.800000
750.210815	198.600000
750.248291	186.900000
750.285767	192.400000
750.323242	198.600000
750.360657	194.800000
750.398132	188.200000
750.435608	197.700000
750.473022	188.000000
750.510498	187.300000
750.547974	188.400000
750.585449	188.800000
750.622925	181.600000
750.660339	202.100000
750.697815	193.400000
750.735291	193.000000
750.772644	193.200000
750.810120	192.600000
750.847595	196.300000
750.885010	187.200000
750.922485	201.500000
750.959961	191.400000
750.997375	199.700000
751.034851	197.100000
751.072266	197.500000
751.109680	186.000000
751.147156	197.200000
751.184570	194.600000
751.221985	194.800000
751.259460	183.500000
751.296875	191.800000
751.334290	192.000000
751.371765	197.400000
751.409180	194.500000
751.446594	198.900000
751.484070	193.600000
751.521423	194.900000
751.558899	193.800000
751.596375	200.800000
751.633728	198.900000
751.671204	206.700000
751.708618	187.700000
751.746033	194.900000
751.783447	186.900000
751.820801	188.900000
751.858276	193.800000
751.895691	191.800000
751.933105	190.700000
751.970520	189.100000
752.007935	189.600000
752.045349	196.700000
752.082764	191.700000
752.120178	190.500000
752.157532	187.900000
752.195007	190.500000
752.232422	195.500000
752.269775	198.400000
752.307190	194.300000
752.344543	188.100000
752.382019	190.900000
752.419434	192.000000
752.456787	194.500000
752.494202	197.300000
752.531616	193.800000
752.568970	197.400000
752.606384	193.100000
752.643799	195.500000
752.681152	202.100000
752.718567	196.300000
752.755981	185.400000
752.793335	196.000000
752.830750	183.200000
752.868164	199.500000
752.905518	188.000000
752.942932	197.800000
752.980225	188.100000
753.017639	197.200000
753.055054	191.600000
753.092407	195.700000
753.129822	199.100000
753.167175	203.300000
753.204529	193.100000
753.241943	189.900000
753.279358	187.200000
753.316650	196.800000
753.354065	195.700000
753.391479	197.900000
753.428772	203.000000
753.466187	196.600000
753.503479	186.400000
753.540894	191.000000
753.578308	186.900000
753.615601	188.200000
753.653015	194.100000
753.690369	190.600000
753.727722	189.400000
753.765076	184.600000
753.802490	188.200000
753.839783	183.900000
753.877136	190.000000
753.914551	208.300000
753.951843	186.800000
753.989258	197.200000
754.026611	195.200000
754.063904	194.900000
754.101257	188.100000
754.138611	185.400000
754.175964	193.700000
754.213318	204.700000
754.250610	187.000000
754.288025	190.000000
754.325378	186.500000
754.362671	197.700000
754.400024	190.600000
754.437378	202.100000
754.474670	202.400000
754.512085	189.200000
754.549438	193.500000
754.586731	192.000000
754.624084	192.100000
754.661438	188.000000
754.698730	201.100000
754.736084	191.400000
754.773376	191.100000
754.810730	196.600000
754.848083	191.800000
754.885315	197.300000
754.922668	184.600000
754.960022	188.300000
754.997314	196.400000
755.034668	194.000000
755.072021	193.900000
755.109253	191.400000
755.146606	201.700000
755.183960	193.300000
755.221252	203.700000
755.258545	200.500000
755.295898	200.300000
755.333191	203.300000
755.370544	197.700000
755.407776	196.300000
755.445129	196.300000
755.482422	201.400000
755.519714	191.700000
755.557068	188.400000
755.594360	186.400000
755.631653	200.000000
755.668945	204.800000
755.706299	198.300000
755.743530	206.900000
755.780884	204.900000
755.818176	202.700000
755.855408	203.900000
755.892761	198.700000
755.930054	199.100000
755.967346	199.600000
756.004639	201.600000
756.041870	197.400000
756.079224	202.200000
756.116516	194.600000
756.153748	201.000000
756.191040	205.500000
756.228394	201.300000
756.265625	193.400000
756.302917	199.700000
756.340210	195.600000
756.377441	206.000000
756.414795	206.800000
756.452087	198.700000
756.489319	193.200000
756.526611	202.400000
756.563843	201.800000
756.601135	210.500000
756.638428	207.700000
756.675659	198.900000
756.712952	205.500000
756.750244	203.200000
756.787476	203.100000
756.824768	207.700000
756.862061	199.600000
756.899292	247.400000
756.936584	205.800000
756.973816	212.600000
757.011047	215.100000
757.048340	201.300000
757.085632	203.300000
757.122864	216.500000
757.160156	201.700000
757.197327	205.200000
757.234619	208.700000
757.271912	203.400000
757.309082	209.000000
757.346375	201.100000
757.383667	210.900000
757.420837	203.700000
757.458130	205.000000
757.495422	202.500000
757.532593	206.900000
757.569885	198.200000
757.607117	200.500000
757.644348	206.100000
757.681580	219.900000
757.718811	193.500000
757.756042	207.200000
757.793335	201.500000
757.830505	212.700000
757.867798	202.000000
757.905029	202.400000
757.942200	207.900000
757.979492	203.200000
758.016724	204.400000
758.053894	203.200000
758.091187	225.300000
758.128418	207.400000
758.165588	205.900000
758.202820	218.400000
758.240112	208.600000
758.277283	218.600000
758.314514	209.800000
758.351685	205.300000
758.388916	219.500000
758.426147	215.300000
758.463379	218.700000
758.500610	212.200000
758.537842	208.900000
758.575012	216.800000
758.612244	205.300000
758.649475	223.300000
758.686646	202.200000
758.723877	217.000000
758.761108	218.900000
758.798279	209.000000
758.835510	212.500000
758.872742	216.500000
758.909851	213.800000
758.947083	213.000000
758.984253	212.600000
759.021484	216.600000
759.058716	217.100000
759.095886	216.500000
759.133057	211.600000
759.170288	216.200000
759.207458	208.700000
759.244690	224.000000
759.281860	223.100000
759.319031	211.800000
759.356262	211.900000
759.393433	212.000000
759.430603	213.800000
759.467773	213.600000
759.505005	220.600000
759.542175	220.400000
759.579346	214.000000
759.616516	216.300000
759.653687	218.700000
759.690918	210.600000
759.728027	218.100000
759.765259	215.700000
759.802429	218.700000
759.839539	217.900000
759.876770	222.300000
759.913940	225.800000
759.951111	217.200000
759.988281	218.200000
760.025452	213.700000
760.062561	213.400000
760.099792	226.100000
760.136963	221.000000
760.174072	216.500000
760.211243	212.000000
760.248413	214.400000
760.285583	214.600000
760.322754	229.600000
760.359863	226.200000
760.397034	227.200000
760.434204	219.400000
760.471375	219.000000
760.508545	219.200000
760.545715	217.800000
760.582825	216.700000
760.619995	223.400000
760.657166	213.600000
760.694275	225.800000
760.731445	223.900000
760.768555	222.000000
760.805664	224.900000
760.842834	224.200000
760.879944	225.600000
760.917114	223.500000
760.954285	222.700000
760.991394	215.800000
761.028564	229.200000
761.065674	228.200000
761.102783	220.200000
761.139954	228.500000
761.177124	228.900000
761.214172	232.200000
761.251343	223.900000
761.288452	226.500000
761.325562	231.200000
761.362732	223.000000
761.399841	227.100000
761.436951	230.100000
761.474121	225.500000
761.511169	231.400000
761.548340	233.300000
761.585449	233.000000
761.622559	234.700000
761.659668	233.000000
761.696838	239.300000
761.733887	235.800000
761.771057	231.000000
761.808167	233.600000
761.845276	238.800000
761.882385	246.400000
761.919434	236.000000
761.956604	254.700000
761.993713	231.600000
762.030762	241.600000
762.067871	235.500000
762.105042	236.900000
762.142090	243.500000
762.179199	240.900000
762.216309	244.900000
762.253418	256.700000
762.290527	248.300000
762.327637	245.500000
762.364685	235.700000
762.401794	247.100000
762.438904	245.000000
762.475952	239.600000
762.513062	238.100000
762.550110	239.800000
762.587219	255.000000
762.624329	254.600000
762.661377	248.300000
762.698486	247.500000
762.735596	246.200000
762.772644	241.300000
762.809753	239.000000
762.846863	246.400000
762.883911	249.600000
762.921021	250.700000
762.958069	248.500000
762.995117	258.300000
763.032227	259.300000
763.069336	249.300000
763.106323	246.800000
763.143433	244.100000
763.180481	252.100000
763.217590	252.200000
763.254639	251.200000
763.291687	251.800000
763.328735	261.500000
763.365845	252.500000
763.402893	251.600000
763.439941	254.800000
763.477051	258.400000
763.514038	261.000000
763.551147	253.500000
763.588196	255.500000
763.625244	257.200000
763.662292	264.400000
763.699402	267.100000
763.736389	260.900000
763.773499	271.800000
763.810486	264.900000
763.847534	261.500000
763.884644	264.500000
763.921631	262.300000
763.958679	274.200000
763.995728	262.500000
764.032776	273.100000
764.069824	257.900000
764.106873	266.100000
764.143860	274.700000
764.180969	265.300000
764.218018	275.200000
764.255005	265.500000
764.292053	270.500000
764.329102	279.400000
764.366089	280.700000
764.403137	277.500000
764.440125	268.300000
764.477173	272.400000
764.514221	274.200000
764.551208	272.100000
764.588257	267.900000
764.625305	279.800000
764.662292	283.900000
764.699341	288.600000
764.736389	281.100000
764.773376	296.000000
764.810425	284.100000
764.847473	290.900000
764.884399	284.400000
764.921448	294.900000
764.958435	292.500000
764.995483	280.900000
765.032532	297.800000
765.069458	281.600000
765.106506	283.300000
765.143555	282.500000
765.180481	288.400000
765.217529	296.300000
765.254578	279.600000
765.291504	290.100000
765.328552	286.900000
765.365540	284.300000
765.402527	299.000000
765.439575	286.400000
765.476501	280.800000
765.513550	284.200000
765.550537	288.900000
765.587463	296.600000
765.624512	287.900000
765.661499	278.900000
765.698486	295.300000
765.735474	287.400000
765.772461	291.000000
765.809448	299.100000
765.846436	295.200000
765.883423	301.600000
765.920410	293.600000
765.957397	290.900000
765.994385	294.300000
766.031311	305.600000
766.068359	298.500000
766.105286	300.100000
766.142273	304.800000
766.179260	300.600000
766.216187	296.000000
766.253174	291.600000
766.290161	300.400000
766.327148	304.500000
766.364136	305.600000
766.401123	321.700000
766.438049	298.300000
766.475037	312.200000
766.512024	308.600000
766.548950	325.000000
766.585937	320.100000
766.622864	316.600000
766.659790	314.800000
766.696777	303.900000
766.733704	320.400000
766.770691	313.000000
766.807678	328.500000
766.844604	323.100000
766.881531	321.600000
766.918518	329.400000
766.955444	332.200000
766.992432	324.300000
767.029358	327.600000
767.066284	329.800000
767.103271	330.600000
767.140198	355.900000
767.177124	347.100000
767.214050	337.500000
767.251038	338.500000
767.287964	335.400000
767.324890	331.300000
767.361816	337.800000
767.398743	346.000000
767.435730	339.800000
767.472595	344.600000
767.509583	350.600000
767.546509	336.300000
767.583374	344.400000
767.620361	337.900000
767.657288	347.200000
767.694214	347.900000
767.731140	345.800000
767.768066	346.600000
767.804993	354.800000
767.841919	343.200000
767.878845	352.300000
767.915710	358.800000
767.952698	352.000000
767.989563	355.200000
768.026489	356.900000
768.063416	351.100000
768.100281	352.100000
768.137207	368.200000
768.174133	363.100000
768.211060	363.200000
768.247986	362.800000
768.284912	364.800000
768.321777	368.400000
768.358704	365.600000
768.395630	368.300000
768.432495	363.000000
768.469421	371.600000
768.506348	376.300000
768.543152	384.300000
768.580078	377.900000
768.616943	381.400000
768.653870	382.500000
768.690796	380.500000
768.727661	378.200000
768.764587	383.600000
768.801453	375.200000
768.838318	390.800000
768.875244	387.200000
768.912109	393.500000
768.948975	384.600000
768.985901	390.500000
769.022766	387.700000
769.059631	395.200000
769.096558	390.900000
769.133362	393.100000
769.170288	393.400000
769.207214	397.500000
769.244019	401.400000
769.280945	401.700000
769.317810	405.800000
769.354675	403.000000
769.391541	412.800000
769.428406	407.900000
769.465271	418.800000
769.502136	407.400000
769.539062	411.800000
769.575867	410.300000
769.612732	414.800000
769.649597	417.000000
769.686462	421.800000
769.723328	418.600000
769.760193	414.300000
769.797058	419.900000
769.833923	428.900000
769.870728	425.300000
769.907593	432.300000
769.944519	428.200000
769.981323	430.600000
770.018188	433.700000
770.055054	427.500000
770.091858	429.000000
770.128723	442.700000
770.165588	450.900000
770.202393	431.400000
770.239258	442.400000
770.276062	440.000000
770.312927	440.400000
770.349792	449.800000
770.386597	447.700000
770.423462	453.700000
770.460327	459.100000
770.497131	446.600000
770.533997	441.600000
770.570862	457.400000
770.607605	457.000000
770.644470	450.800000
770.681335	456.100000
770.718140	455.900000
770.754944	446.000000
770.791809	447.900000
770.828613	447.100000
770.865479	448.200000
770.902222	463.100000
770.939087	453.400000
770.975952	441.300000
771.012695	448.600000
771.049561	464.700000
771.086365	452.200000
771.123169	453.500000
771.159973	458.300000
771.196838	455.700000
771.233582	457.000000
771.270447	462.200000
771.307251	463.200000
771.344055	460.100000
771.380859	463.600000
771.417664	456.400000
771.454468	468.000000
771.491272	468.600000
771.528076	467.800000
771.564880	468.200000
771.601685	477.900000
771.638428	468.800000
771.675293	474.600000
771.712097	463.400000
771.748840	486.100000
771.785645	478.000000
771.822449	482.400000
771.859253	484.600000
771.896057	482.800000
771.932861	493.700000
771.969604	480.700000
772.006409	475.500000
772.043213	491.200000
772.079956	486.800000
772.116760	478.200000
772.153503	487.900000
772.190308	498.500000
772.227112	485.600000
772.263855	483.800000
772.300659	491.800000
772.337463	500.100000
772.374207	491.700000
772.411011	487.200000
772.447754	492.600000
772.484497	515.200000
772.521301	509.000000
772.558105	503.500000
772.594849	504.200000
772.631592	513.200000
772.668396	513.200000
772.705139	518.900000
772.741882	520.300000
772.778625	530.600000
772.815430	533.300000
772.852173	525.000000
772.888916	538.000000
772.925720	538.500000
772.962463	548.000000
772.999207	543.400000
773.035950	549.100000
773.072754	546.400000
773.109436	545.600000
773.146240	545.200000
773.182922	544.900000
773.219727	556.300000
773.256470	555.000000
773.293152	538.000000
773.329956	550.700000
773.366699	556.100000
773.403381	550.000000
773.440186	556.200000
773.476929	564.900000
773.513611	554.500000
773.550354	558.100000
773.587158	558.800000
773.623840	557.000000
773.660583	565.800000
773.697327	584.400000
773.734009	570.000000
773.770813	569.500000
773.807495	566.600000
773.844238	574.000000
773.880981	592.800000
773.917664	588.500000
773.954407	594.600000
773.991150	585.000000
774.027832	586.800000
774.064575	583.100000
774.101318	594.600000
774.138000	603.700000
774.174744	595.200000
774.211487	594.900000
774.248108	584.000000
774.284851	585.200000
774.321594	600.300000
774.358276	605.800000
774.395020	615.700000
774.431702	612.700000
774.468384	605.900000
774.505127	598.400000
774.541809	616.000000
774.578491	626.200000
774.615234	630.300000
774.651917	625.200000
774.688599	627.400000
774.725342	634.900000
774.762024	634.700000
774.798706	640.800000
774.835449	642.300000
774.872070	650.400000
774.908813	647.900000
774.945496	645.100000
774.982178	643.600000
775.018860	651.500000
775.055542	651.300000
775.092224	654.400000
775.128967	661.500000
775.165588	652.200000
775.202271	645.400000
775.239014	666.200000
775.275635	670.000000
775.312317	666.200000
775.349060	668.500000
775.385681	666.700000
775.422363	657.000000
775.459045	670.700000
775.495667	675.200000
775.532410	677.900000
775.569092	677.500000
775.605713	675.100000
775.642395	670.000000
775.679016	679.500000
775.715698	686.300000
775.752380	692.300000
775.789001	683.900000
775.825684	683.400000
775.862366	687.200000
775.898987	701.800000
775.935669	685.700000
775.972351	708.800000
776.008972	702.100000
776.045654	711.100000
776.082336	695.500000
776.118958	698.200000
776.155640	705.500000
776.192322	716.400000
776.228882	717.700000
776.265564	712.000000
776.302185	705.500000
776.338867	716.800000
776.375488	704.600000
776.412109	716.900000
776.448792	719.400000
776.485413	728.300000
776.522034	716.000000
776.558716	705.400000
776.595337	706.500000
776.631958	713.200000
776.668579	714.400000
776.705261	727.200000
776.741882	722.100000
776.778503	718.800000
776.815186	713.600000
776.851746	719.600000
776.888367	717.300000
776.924988	725.600000
776.961609	716.000000
776.998291	718.500000
777.034851	708.200000
777.071472	725.100000
777.108154	729.700000
777.144714	737.800000
777.181335	734.800000
777.218018	723.600000
777.254578	730.400000
777.291199	726.200000
777.327759	737.100000
777.364380	746.500000
777.401062	750.500000
777.437622	763.000000
777.474243	750.100000
777.510864	760.200000
777.547424	760.000000
777.584045	764.400000
777.620667	765.500000
777.657227	770.800000
777.693848	774.700000
777.730469	786.600000
777.767029	775.300000
777.803650	782.600000
777.840271	777.000000
777.876831	777.800000
777.913452	784.300000
777.950012	762.300000
777.986633	761.400000
778.023193	765.400000
778.059753	761.400000
778.096375	763.800000
778.132996	777.800000
778.169556	765.500000
778.206116	769.400000
778.242737	768.200000
778.279297	781.300000
778.315857	773.900000
778.352478	783.600000
778.389038	791.800000
778.425598	800.700000
778.462219	808.000000
778.498718	804.500000
778.535339	811.300000
778.571838	815.800000
778.608459	823.500000
778.645020	815.800000
778.681580	826.200000
778.718140	830.800000
778.754761	826.200000
778.791260	834.000000
778.827881	837.700000
778.864441	837.500000
778.900940	845.900000
778.937561	844.500000
778.974121	837.700000
779.010620	827.000000
779.047241	833.100000
779.083801	845.200000
779.120300	847.900000
779.156860	851.500000
779.193359	849.200000
779.229980	849.200000
779.266541	860.400000
779.303040	864.400000
779.339600	855.600000
779.376160	854.900000
779.412659	864.200000
779.449219	854.100000
779.485779	862.200000
779.522278	865.500000
779.558838	875.600000
779.595398	875.800000
779.631897	874.400000
779.668457	865.500000
779.705017	878.900000
779.741516	874.200000
779.778076	867.500000
779.814575	879.100000
779.851074	886.500000
779.887634	875.800000
779.924133	886.900000
779.960693	874.800000
779.997253	887.200000
780.033691	890.200000
780.070251	892.900000
780.106812	905.800000
780.143250	899.000000
780.179810	896.100000
780.216370	904.300000
780.252808	912.300000
780.289368	927.300000
780.325867	929.200000
780.362366	924.600000
780.398865	938.100000
780.435364	927.100000
780.471863	940.600000
780.508423	944.100000
780.544861	956.500000
780.581421	964.600000
780.617920	949.900000
780.654419	945.500000
780.690918	952.000000
780.727417	962.000000
780.763916	960.800000
780.800415	965.300000
780.836914	954.000000
780.873352	957.500000
780.909912	946.400000
780.946411	964.200000
780.982849	968.100000
781.019348	984.400000
781.055786	975.400000
781.092346	969.800000
781.128845	988.000000
781.165283	992.600000
781.201782	996.100000
781.238281	996.600000
781.274719	1008.200000
781.311218	999.000000
781.347717	1004.900000
781.384155	988.600000
781.420654	993.400000
781.457092	1012.800000
781.493591	1007.500000
781.530090	998.100000
781.566528	1007.600000
781.602966	1010.300000
781.639465	1010.200000
781.675903	1001.900000
781.712402	1005.300000
781.748901	1013.800000
781.785278	1008.800000
781.821777	1014.400000
781.858276	1015.000000
781.894714	1026.900000
781.931152	1014.700000
781.967651	1026.600000
782.004089	1014.800000
782.040527	1031.500000
782.076965	1022.800000
782.113403	1022.600000
782.149902	1026.900000
782.186340	1020.200000
782.222778	1027.000000
782.259277	1022.700000
782.295654	1027.300000
782.332092	1035.200000
782.368591	1021.500000
782.404968	1007.100000
782.441467	1019.400000
782.477905	1024.400000
782.514282	1016.900000
782.550781	1041.100000
782.587219	1041.700000
782.623596	1045.400000
782.660095	1041.700000
782.696472	1047.000000
782.732910	1051.000000
782.769348	1057.800000
782.805786	1073.900000
782.842224	1076.400000
782.878662	1065.400000
782.915039	1071.900000
782.951477	1065.400000
782.987915	1053.800000
783.024292	1067.600000
783.060730	1061.400000
783.097168	1048.400000
783.133545	1039.400000
783.169983	1035.400000
783.206421	1033.900000
783.242798	1031.400000
783.279236	1016.300000
783.315613	1014.200000
783.352051	1008.600000
783.388489	999.900000
783.424866	988.700000
783.461304	992.000000
783.497681	995.700000
783.534058	990.800000
783.570496	990.600000
783.606934	987.000000
783.643250	996.000000
783.679687	1007.700000
783.716125	1004.700000
783.752441	1019.800000
783.788879	1035.900000
783.825317	1041.800000
783.861633	1046.600000
783.898071	1046.000000
783.934448	1060.500000
783.970825	1072.000000
784.007263	1051.700000
784.043579	1002.300000
784.080017	906.800000
784.116394	767.700000
784.152710	647.700000
784.189148	583.600000
784.225525	592.700000
784.261902	667.600000
784.298279	775.400000
784.334656	890.200000
784.371033	973.100000
784.407410	1033.900000
784.443787	1052.100000
784.480164	1049.700000
784.516541	1033.200000
784.552856	1040.500000
784.589233	1028.500000
784.625610	1029.100000
784.661987	1066.100000
784.698364	1053.700000
784.734741	1042.000000
784.771057	1040.200000
784.807434	1041.300000
784.843811	1066.300000
784.880127	1075.900000
784.916504	1095.300000
784.952881	1102.100000
784.989197	1096.900000
785.025574	1094.200000
785.061951	1107.400000
785.098267	1137.300000
785.134644	1133.400000
785.170959	1139.700000
785.207275	1139.700000
785.243652	1141.300000
785.279968	1128.700000
785.316345	1141.400000
785.352722	1147.300000
785.388977	1142.100000
785.425354	1122.900000
785.461731	1091.600000
785.498047	1090.600000
785.534363	1086.100000
785.570679	1088.800000
785.606995	1092.800000
785.643372	1095.500000
785.679687	1087.900000
785.716003	1076.100000
785.752380	1065.800000
785.788635	1069.800000
785.825012	1091.100000
785.861328	1104.000000
785.897644	1094.900000
785.933960	1112.700000
785.970337	1114.200000
786.006592	1129.300000
786.042908	1140.200000
786.079285	1154.400000
786.115540	1172.300000
786.151855	1167.200000
786.188171	1151.100000
786.224487	1154.800000
786.260803	1160.400000
786.297119	1178.100000
786.333435	1178.800000
786.369751	1167.700000
786.406006	1184.000000
786.442322	1164.600000
786.478638	1149.600000
786.514954	1166.000000
786.551270	1165.100000
786.587585	1178.000000
786.623840	1159.800000
786.660156	1153.400000
786.696472	1139.700000
786.732727	1133.200000
786.769043	1139.300000
786.805298	1127.200000
786.841614	1141.700000
786.877930	1148.300000
786.914124	1127.800000
786.950439	1133.500000
786.986755	1137.400000
787.023010	1159.600000
787.059326	1165.300000
787.095642	1162.700000
787.131836	1182.800000
787.168152	1167.100000
787.204468	1172.100000
787.240723	1199.200000
787.276978	1215.300000
787.313293	1222.200000
787.349548	1223.100000
787.385803	1222.300000
787.422058	1208.700000
787.458313	1206.400000
787.494629	1217.700000
787.530823	1215.400000
787.567139	1199.600000
787.603455	1188.100000
787.639648	1172.000000
787.675903	1177.400000
787.712219	1176.900000
787.748413	1178.000000
787.784729	1183.600000
787.820984	1174.900000
787.857178	1162.800000
787.893494	1148.200000
787.929749	1146.400000
787.965942	1155.400000
788.002258	1168.000000
788.038452	1179.500000
788.074707	1166.300000
788.110962	1169.300000
788.147217	1160.000000
788.183472	1178.000000
788.219727	1183.800000
788.255920	1198.500000
788.292175	1206.200000
788.328430	1204.600000
788.364624	1189.900000
788.400879	1184.300000
788.437134	1188.100000
788.473328	1185.000000
788.509583	1176.800000
788.545837	1174.300000
788.582031	1169.000000
788.618286	1161.800000
788.654480	1158.000000
788.690735	1176.000000
788.726990	1187.500000
788.763184	1188.100000
788.799377	1200.800000
788.835632	1184.300000
788.871826	1195.100000
788.908081	1197.400000
788.944336	1192.000000
788.980469	1209.800000
789.016724	1198.000000
789.052979	1198.700000
789.089111	1173.200000
789.125366	1183.300000
789.161621	1169.100000
789.197754	1181.200000
789.234009	1176.400000
789.270142	1158.600000
789.306396	1139.300000
789.342590	1130.000000
789.378784	1109.100000
789.414978	1112.400000
789.451233	1122.200000
789.487366	1122.800000
789.523621	1136.100000
789.559814	1129.500000
789.595947	1124.100000
789.632202	1127.100000
789.668335	1143.900000
789.704529	1155.500000
789.740784	1182.500000
789.776917	1177.000000
789.813110	1166.500000
789.849304	1191.200000
789.885498	1193.000000
789.921692	1192.200000
789.957886	1200.200000
789.994019	1205.800000
790.030212	1203.500000
790.066406	1190.600000
790.102539	1192.900000
790.138733	1213.000000
790.174927	1204.900000
790.211060	1211.000000
790.247253	1201.400000
790.283386	1189.900000
790.319580	1168.100000
790.355774	1143.400000
790.391907	1161.400000
790.428101	1191.500000
790.464294	1188.200000
790.500427	1186.500000
790.536621	1169.100000
790.572754	1155.100000
790.608887	1163.000000
790.645081	1171.300000
790.681274	1184.500000
790.717346	1181.500000
790.753540	1134.900000
790.789734	1058.900000
790.825867	1004.600000
790.862000	998.700000
790.898132	1040.700000
790.934265	1097.700000
790.970459	1154.800000
791.006592	1172.100000
791.042725	1177.400000
791.078918	1170.400000
791.114990	1183.000000
791.151184	1191.100000
791.187317	1212.700000
791.223389	1204.500000
791.259583	1183.600000
791.295715	1196.400000
791.331848	1203.600000
791.367981	1216.500000
791.404114	1224.600000
791.440247	1215.000000
791.476379	1213.100000
791.512451	1188.100000
791.548584	1193.400000
791.584778	1193.900000
791.620850	1210.100000
791.656982	1217.100000
791.693115	1211.400000
791.729187	1210.500000
791.765381	1201.500000
791.801514	1188.100000
791.837585	1198.200000
791.873718	1207.200000
791.909851	1213.100000
791.945923	1220.400000
791.982056	1191.600000
792.018188	1182.800000
792.054260	1190.700000
792.090393	1195.100000
792.126465	1186.300000
792.162598	1193.100000
792.198669	1178.800000
792.234741	1175.300000
792.270874	1162.700000
792.307007	1153.000000
792.343079	1166.800000
792.379150	1177.700000
792.415283	1155.600000
792.451355	1162.300000
792.487488	1137.600000
792.523560	1142.600000
792.559631	1147.400000
792.595764	1143.200000
792.631836	1144.000000
792.667908	1155.000000
792.703979	1136.400000
792.740051	1129.300000
792.776184	1137.300000
792.812256	1143.200000
792.848328	1152.700000
792.884399	1155.900000
792.920471	1148.800000
792.956543	1147.800000
792.992615	1141.800000
793.028748	1141.300000
793.064758	1148.600000
793.100830	1166.900000
793.136963	1178.600000
793.172974	1166.600000
793.209045	1164.800000
793.245178	1168.000000
793.281189	1162.400000
793.317261	1164.300000
793.353271	1167.300000
793.389404	1170.200000
793.425476	1160.700000
793.461487	1148.300000
793.497559	1137.600000
793.533630	1152.300000
793.569641	1150.100000
793.605713	1153.000000
793.641785	1160.300000
793.677795	1163.900000
793.713867	1158.500000
793.749878	1169.100000
793.785950	1174.900000
793.822021	1180.000000
793.858032	1164.600000
793.894104	1174.200000
793.930176	1161.000000
793.966187	1163.200000
794.002258	1154.600000
794.038269	1158.500000
794.074280	1157.600000
794.110352	1175.300000
794.146423	1143.800000
794.182373	1144.000000
794.218445	1135.000000
794.254517	1119.300000
794.290466	1105.300000
794.326538	1116.800000
794.362549	1116.900000
794.398560	1117.700000
794.434631	1122.000000
794.470581	1100.700000
794.506653	1092.200000
794.542664	1092.000000
794.578674	1088.100000
794.614685	1082.200000
794.650757	1085.100000
794.686707	1077.200000
794.722778	1067.400000
794.758789	1078.600000
794.794739	1085.800000
794.830811	1109.900000
794.866821	1126.900000
794.902771	1115.400000
794.938843	1100.700000
794.974792	1095.600000
795.010803	1099.800000
795.046814	1108.200000
795.082825	1092.300000
795.118835	1106.700000
795.154846	1084.500000
795.190796	1091.000000
795.226807	1067.300000
795.262817	1073.200000
795.298767	1075.400000
795.334778	1079.600000
795.370850	1066.600000
795.406799	1068.900000
795.442810	1046.700000
795.478821	1048.500000
795.514709	1044.200000
795.550720	1063.500000
795.586670	1042.500000
795.622681	1051.000000
795.658691	1042.100000
795.694641	1034.300000
795.730652	1023.100000
795.766663	1038.300000
795.802551	1036.500000
795.838562	1057.500000
795.874573	1039.100000
795.910522	1032.800000
795.946472	1017.200000
795.982483	1031.800000
796.018433	1030.700000
796.054382	1037.700000
796.090393	1022.300000
796.126282	1011.200000
796.162292	1005.200000
796.198242	1006.600000
796.234192	1006.200000
796.270203	1004.200000
796.306091	1009.900000
796.342041	1026.200000
796.378052	1010.700000
796.413940	1003.200000
796.449951	1009.900000
796.485901	1007.700000
796.521790	1006.900000
796.557800	1024.300000
796.593689	1015.400000
796.629639	1005.500000
796.665649	1008.100000
796.701599	1003.400000
796.737488	999.700000
796.773437	1003.800000
796.809387	1011.900000
796.845337	1007.500000
796.881287	993.700000
796.917175	971.300000
796.953125	976.800000
796.989075	992.200000
797.024963	996.900000
797.060913	992.700000
797.096863	986.400000
797.132751	977.400000
797.168701	957.700000
797.204590	965.700000
797.240540	972.800000
797.276489	982.000000
797.312439	982.600000
797.348328	978.400000
797.384277	973.700000
797.420166	966.300000
797.456055	960.700000
797.492004	953.200000
797.527893	962.400000
797.563843	965.900000
797.599731	956.300000
797.635620	946.600000
797.671570	948.300000
797.707520	946.200000
797.743347	951.000000
797.779297	959.900000
797.815125	952.000000
797.851074	941.000000
797.887024	932.500000
797.922913	921.800000
797.958801	933.300000
797.994690	938.800000
798.030579	939.000000
798.066467	941.600000
798.102356	930.300000
798.138245	922.200000
798.174133	919.700000
798.210083	925.000000
798.245911	934.300000
798.281799	938.100000
798.317749	930.900000
798.353577	918.500000
798.389465	910.800000
798.425293	908.600000
798.461243	904.400000
798.497131	907.100000
798.532959	913.100000
798.568848	916.200000
798.604736	898.700000
798.640564	881.700000
798.676453	888.000000
798.712402	901.100000
798.748230	902.800000
798.784119	898.600000
798.820007	903.500000
798.855835	895.500000
798.891724	888.500000
798.927551	887.700000
798.963379	899.000000
798.999268	893.800000
799.035095	890.800000
799.070984	882.800000
799.106873	867.600000
799.142700	879.100000
799.178528	872.200000
799.214417	873.400000
799.250244	885.900000
799.286133	875.300000
799.321960	872.100000
799.357788	863.000000
799.393677	873.700000
799.429504	870.600000
799.465332	869.100000
799.501221	879.700000
799.537048	873.200000
799.572876	862.100000
799.608704	857.600000
799.644531	870.000000
799.680359	870.100000
799.716248	876.300000
799.752014	880.400000
799.787903	866.700000
799.823730	865.700000
799.859558	856.700000
799.895386	857.500000
799.931213	860.600000
799.967041	850.600000
800.002869	852.800000
800.038696	862.000000
800.074463	836.300000
800.110352	841.700000
800.146179	834.400000
800.181946	837.100000
800.217773	841.500000
800.253540	839.500000
800.289429	833.500000
800.325256	822.600000
800.361023	813.200000
800.396851	820.600000
800.432678	818.000000
800.468445	819.200000
800.504272	808.400000
800.540100	795.000000
800.575867	796.200000
800.611694	800.300000
800.647461	799.600000
800.683289	800.700000
800.719116	800.200000
800.754883	794.000000
800.790649	776.500000
800.826477	771.400000
800.862244	789.600000
800.898071	775.500000
800.933838	769.000000
800.969604	771.400000
801.005432	768.400000
801.041199	771.100000
801.076965	764.300000
801.112793	752.700000
801.148560	741.500000
801.184326	745.600000
801.220154	747.100000
801.255859	738.100000
801.291687	731.500000
801.327454	727.000000
801.363281	727.800000
801.398987	726.000000
801.434814	726.400000
801.470520	737.700000
801.506287	717.700000
801.542114	714.100000
801.577820	720.300000
801.613647	716.200000
801.649414	709.500000
801.685120	712.600000
801.720886	721.900000
801.756714	706.300000
801.792419	694.200000
801.828186	692.600000
801.863892	704.000000
801.899719	694.000000
801.935486	688.900000
801.971252	700.100000
802.006958	695.300000
802.042725	685.600000
802.078430	687.400000
802.114197	683.300000
802.149963	694.400000
802.185669	685.200000
802.221436	679.600000
802.257202	680.000000
802.292908	676.200000
802.328674	684.700000
802.364441	686.200000
802.400146	679.900000
802.435913	671.800000
802.471558	668.600000
802.507324	662.100000
802.543091	655.800000
802.578796	668.200000
802.614502	667.900000
802.650269	676.900000
802.685974	659.800000
802.721741	662.800000
802.757446	666.800000
802.793152	659.100000
802.828918	670.600000
802.864624	664.800000
802.900330	660.500000
802.936035	659.600000
802.971802	651.000000
803.007446	647.000000
803.043213	644.200000
803.078857	652.900000
803.114624	632.800000
803.150330	635.100000
803.185974	627.500000
803.221741	628.900000
803.257446	638.100000
803.293152	638.100000
803.328857	627.300000
803.364563	623.700000
803.400208	617.400000
803.435974	624.500000
803.471680	617.300000
803.507324	613.400000
803.543030	622.900000
803.578735	621.100000
803.614441	615.400000
803.650146	620.700000
803.685791	610.400000
803.721497	609.300000
803.757202	601.000000
803.792847	608.300000
803.828552	596.900000
803.864258	602.300000
803.899902	599.600000
803.935608	582.600000
803.971313	589.600000
804.006958	590.000000
804.042664	583.500000
804.078308	589.900000
804.113953	581.800000
804.149658	590.500000
804.185364	577.700000
804.221008	587.400000
804.256714	579.200000
804.292297	576.900000
804.328003	575.400000
804.363708	565.700000
804.399292	567.900000
804.434998	565.300000
804.470703	557.800000
804.506287	573.300000
804.541992	565.300000
804.577637	568.600000
804.613281	555.500000
804.648926	554.100000
804.684570	562.800000
804.720215	554.200000
804.755920	552.500000
804.791565	546.100000
804.827209	554.000000
804.862854	545.800000
804.898437	543.300000
804.934143	545.500000
804.969788	544.900000
805.005371	546.300000
805.041077	546.900000
805.076721	547.000000
805.112305	536.100000
805.147949	533.100000
805.183655	529.800000
805.219238	534.400000
805.254883	535.200000
805.290466	539.000000
805.326111	526.600000
805.361755	519.900000
805.397400	526.300000
805.432983	530.000000
805.468628	531.900000
805.504211	535.000000
805.539856	529.400000
805.575500	533.900000
805.611084	524.500000
805.646729	512.800000
805.682373	516.400000
805.717957	527.800000
805.753601	529.600000
805.789246	512.700000
805.824768	525.800000
805.860413	528.700000
805.895996	508.800000
805.931641	513.700000
805.967224	519.000000
806.002869	512.600000
806.038452	520.900000
806.074036	516.300000
806.109619	505.500000
806.145264	500.100000
806.180847	503.000000
806.216431	497.000000
806.252014	504.600000
806.287659	501.900000
806.323181	511.600000
806.358826	505.600000
806.394409	484.600000
806.429993	491.200000
806.465576	502.300000
806.501160	489.500000
806.536743	482.900000
806.572327	493.200000
806.607910	486.900000
806.643494	485.600000
806.679077	480.900000
806.714661	485.100000
806.750244	486.000000
806.785828	476.600000
806.821350	480.100000
806.856934	479.900000
806.892517	477.400000
806.928101	470.400000
806.963684	471.100000
806.999268	482.800000
807.034790	458.300000
807.070374	466.900000
807.105896	462.400000
807.141479	460.200000
807.177063	466.700000
807.212585	457.300000
807.248169	458.400000
807.283752	466.900000
807.319275	460.300000
807.354858	457.100000
807.390381	451.600000
807.425903	455.000000
807.461487	450.400000
807.497070	443.700000
807.532593	445.300000
807.568115	438.700000
807.603699	438.100000
807.639221	436.100000
807.674744	438.800000
807.710266	443.600000
807.745850	447.300000
807.781372	436.700000
807.816895	432.900000
807.852417	436.700000
807.888000	433.600000
807.923523	428.800000
807.959045	434.100000
807.994629	422.800000
808.030090	422.700000
808.065613	427.800000
808.101135	429.900000
808.136658	425.600000
808.172241	425.500000
808.207764	421.900000
808.243225	416.300000
808.278809	413.800000
808.314270	422.100000
808.349792	406.000000
808.385315	405.200000
808.420837	411.600000
808.456360	416.700000
808.491882	412.800000
808.527344	414.500000
808.562866	423.300000
808.598389	410.400000
808.633850	404.100000
808.669434	401.200000
808.704895	412.300000
808.740417	413.200000
808.775940	406.200000
808.811462	399.600000
808.846924	395.400000
808.882385	390.000000
808.917847	392.000000
808.953369	393.700000
808.988892	388.300000
809.024353	393.900000
809.059875	394.900000
809.095398	394.100000
809.130798	383.800000
809.166321	382.400000
809.201843	382.200000
809.237305	383.200000
809.272766	389.500000
809.308228	375.100000
809.343750	376.500000
809.379211	377.200000
809.414734	379.300000
809.450134	389.000000
809.485657	368.100000
809.521118	379.000000
809.556580	374.800000
809.592102	373.700000
809.627502	370.800000
809.663025	369.600000
809.698486	364.400000
809.733887	360.000000
809.769409	364.100000
809.804871	352.500000
809.840271	354.600000
809.875793	360.500000
809.911194	364.500000
809.946655	355.200000
809.982178	350.600000
810.017639	358.100000
810.053040	354.200000
810.088501	351.000000
810.123901	350.300000
810.159424	345.400000
810.194885	342.100000
810.230286	347.100000
810.265747	341.900000
810.301208	338.600000
810.336609	342.700000
810.372070	335.000000
810.407532	337.100000
810.442932	339.800000
810.478394	343.700000
810.513794	338.500000
810.549255	337.500000
810.584717	335.900000
810.620117	329.700000
810.655518	337.400000
810.690979	334.200000
810.726379	333.800000
810.761841	320.600000
810.797302	326.000000
810.832642	324.200000
810.868103	336.500000
810.903564	323.100000
810.938904	330.300000
810.974365	318.500000
811.009827	324.200000
811.045166	317.100000
811.080627	311.400000
811.115967	319.300000
811.151428	326.400000
811.186829	316.000000
811.222229	319.900000
811.257629	313.700000
811.293091	319.000000
811.328430	325.600000
811.363892	319.400000
811.399292	320.100000
811.434631	313.400000
811.470093	320.400000
811.505493	311.200000
811.540833	312.600000
811.576294	318.700000
811.611694	311.700000
811.647034	307.200000
811.682434	310.300000
811.717773	311.400000
811.753235	317.900000
811.788635	307.400000
811.823975	310.800000
811.859375	316.900000
811.894775	303.500000
811.930115	303.700000
811.965515	304.700000
812.000916	310.200000
812.036255	303.300000
812.071655	306.000000
812.106995	299.500000
812.142395	301.100000
812.177795	308.600000
812.213196	303.200000
812.248474	304.800000
812.283875	295.700000
812.319214	300.500000
812.354614	298.800000
812.390015	298.500000
812.425293	297.100000
812.460693	297.300000
812.496094	294.600000
812.531433	288.500000
812.566772	288.900000
812.602173	293.500000
812.637451	293.100000
812.672852	289.500000
812.708191	294.700000
812.743530	287.600000
812.778931	280.000000
812.814270	285.900000
812.849609	292.600000
812.884949	286.000000
812.920227	280.500000
812.955627	298.000000
812.990967	286.200000
813.026306	283.600000
813.061646	272.300000
813.096985	270.700000
813.132324	268.700000
813.167664	272.700000
813.203003	278.500000
813.238281	266.400000
813.273682	266.800000
813.308960	264.400000
813.344299	267.100000
813.379639	275.800000
813.414978	266.200000
813.450256	266.400000
813.485596	272.200000
813.520874	263.100000
813.556213	267.000000
813.591614	270.700000
813.626831	262.900000
813.662170	266.500000
813.697510	276.900000
813.732788	259.900000
813.768127	265.100000
813.803467	266.000000
813.838745	261.700000
813.874084	263.700000
813.909363	264.000000
813.944641	264.600000
813.979980	253.800000
814.015320	259.500000
814.050598	256.400000
814.085876	261.600000
814.121155	259.800000
814.156494	256.600000
814.191772	259.200000
814.227051	253.700000
814.262390	255.200000
814.297668	256.400000
814.332947	259.400000
814.368225	250.800000
814.403564	254.300000
814.438782	251.700000
814.474121	253.600000
814.509338	248.100000
814.544617	259.300000
814.579956	247.400000
814.615173	258.300000
814.650513	253.900000
814.685791	246.400000
814.721008	249.900000
814.756348	252.400000
814.791626	248.100000
814.826843	247.100000
814.862122	247.700000
814.897400	243.100000
814.932678	248.000000
814.967957	246.200000
815.003235	245.400000
815.038452	240.600000
815.073730	236.200000
815.108948	248.300000
815.144226	246.100000
815.179504	249.900000
815.214722	235.300000
815.250000	234.200000
815.285278	243.400000
815.320496	235.200000
815.355774	238.200000
815.391052	240.100000
815.426270	238.400000
815.461487	235.500000
815.496765	232.400000
815.531982	226.600000
815.567261	235.300000
815.602539	241.300000
815.637695	236.700000
815.672974	238.700000
815.708191	238.800000
815.743408	239.000000
815.778687	233.600000
815.813904	242.500000
815.849121	223.400000
815.884399	227.300000
815.919556	228.200000
815.954834	228.300000
815.990051	231.900000
816.025269	235.700000
816.060486	226.100000
816.095703	225.300000
816.130920	230.700000
816.166199	223.900000
816.201416	231.800000
816.236572	236.100000
816.271851	225.300000
816.307007	233.700000
816.342224	220.500000
816.377441	226.600000
816.412659	216.700000
816.447876	230.700000
816.483093	224.600000
816.518250	225.300000
816.553467	222.100000
816.588745	226.900000
816.623901	220.400000
816.659119	215.000000
816.694275	219.500000
816.729492	217.000000
816.764709	252.900000
816.799927	214.500000
816.835083	218.300000
816.870300	214.200000
816.905457	218.800000
816.940674	220.800000
816.975830	214.900000
817.010986	213.100000
817.046204	215.200000
817.081421	211.600000
817.116577	212.000000
817.151733	222.700000
817.186951	221.000000
817.222107	216.000000
817.257324	219.200000
817.292419	217.500000
817.327637	208.400000
817.362854	215.600000
817.398010	208.100000
817.433167	211.200000
817.468323	210.500000
817.503479	212.000000
817.538635	219.000000
817.573853	215.200000
817.608948	213.600000
817.644165	209.200000
817.679321	208.000000
817.714478	208.000000
817.749634	211.700000
817.784790	223.900000
817.819946	219.400000
817.855103	200.500000
817.890198	209.700000
817.925415	201.400000
817.960571	211.800000
817.995667	210.200000
818.030823	213.200000
818.066040	205.500000
818.101135	210.000000
818.136292	208.100000
818.171448	201.400000
818.206543	207.500000
818.241699	211.100000
818.276855	208.200000
818.311951	206.600000
818.347107	203.400000
818.382263	210.400000
818.417358	213.900000
818.452515	215.400000
818.487610	214.900000
818.522766	204.500000
818.557922	215.400000
818.593018	211.300000
818.628113	208.800000
818.663269	203.100000
818.698364	206.300000
818.733521	203.500000
818.768677	207.600000
818.803711	200.100000
818.838867	201.200000
818.874023	205.900000
818.909058	200.300000
818.944214	199.900000
818.979370	208.600000
819.014404	205.100000
819.049561	201.300000
819.084595	207.000000
819.119751	197.100000
819.154846	207.000000
819.189941	201.700000
819.225037	197.000000
819.260193	194.500000
819.295227	197.000000
819.330322	192.100000
819.365479	193.000000
819.400513	225.300000
819.435608	191.500000
819.470764	189.800000
819.505798	193.400000
819.540894	196.800000
819.575989	194.800000
819.611084	203.700000
819.646179	204.200000
819.681213	201.000000
819.716309	197.200000
819.751404	196.600000
819.786438	201.500000
819.821533	194.400000
819.856628	199.000000
819.891663	202.500000
819.926758	207.600000
819.961853	204.800000
819.996887	194.100000
820.031982	201.100000
820.067017	198.500000
820.102112	225.400000
820.137207	194.800000
820.172302	213.200000
820.207275	192.600000
820.242371	194.300000
820.277405	194.100000
820.312500	197.200000
820.347534	199.700000
820.382568	202.700000
820.417664	194.900000
820.452759	194.200000
820.487732	191.000000
820.522827	193.500000
820.557861	190.400000
820.592896	194.600000
820.627930	194.400000
820.662964	191.400000
820.698059	197.400000
820.733093	193.500000
820.768127	198.200000
820.803162	195.000000
820.838196	190.900000
820.873230	195.700000
820.908264	194.800000
820.943298	192.100000
820.978333	200.500000
821.013367	196.100000
821.048401	198.800000
821.083435	201.800000
821.118469	186.500000
821.153503	200.500000
821.188477	196.600000
821.223511	187.300000
821.258484	194.400000
821.293579	197.600000
821.328613	187.400000
821.363647	192.200000
821.398621	187.800000
821.433655	190.500000
821.468628	205.900000
821.503662	191.700000
821.538696	197.600000
821.573669	188.500000
821.608704	198.200000
821.643677	191.300000
821.678650	198.700000
821.713684	204.500000
821.748718	191.500000
821.783691	192.800000
821.818726	194.600000
821.853638	195.300000
821.888672	193.100000
821.923706	192.400000
821.958618	191.400000
821.993652	190.700000
822.028687	196.400000
822.063599	199.700000
822.098633	195.000000
822.133667	188.500000
822.168579	191.800000
822.203613	193.900000
822.238586	190.800000
822.273560	195.900000
822.308533	189.700000
822.343567	189.700000
822.378479	192.000000
822.413452	191.000000
822.448425	189.400000
822.483398	197.000000
822.518372	199.100000
822.553345	190.500000
822.588318	200.400000
822.623291	191.100000
822.658203	191.500000
822.693237	192.800000
822.728210	188.600000
822.763123	194.800000
822.798096	188.600000
822.833069	192.800000
822.867981	194.100000
822.902954	195.100000
822.937927	197.600000
822.972900	203.900000
823.007874	185.100000
823.042725	198.000000
823.077698	205.700000
823.112671	188.100000
823.147583	191.800000
823.182556	195.800000
823.217529	197.000000
823.252441	191.400000
823.287415	206.000000
823.322388	196.000000
823.357239	192.700000
823.392212	202.600000
823.427185	196.600000
823.462097	190.100000
823.497009	197.100000
823.531982	191.800000
823.566895	193.400000
823.601807	188.500000
823.636719	192.200000
823.671631	198.100000
823.706604	191.300000
823.741455	194.800000
823.776428	185.800000
823.811340	196.800000
823.846252	198.800000
823.881165	202.100000
823.916138	194.000000
823.950989	202.200000
823.985901	190.200000
824.020813	194.800000
824.055725	190.700000
824.090637	189.700000
824.125610	195.100000
824.160461	194.200000
824.195374	195.200000
824.230225	198.400000
824.265198	185.800000
824.300110	191.500000
824.334961	204.100000
824.369873	183.100000
824.404785	196.000000
824.439636	200.700000
824.474548	184.900000
824.509460	183.000000
824.544312	198.000000
824.579224	195.200000
824.614075	195.700000
824.648987	192.700000
824.683899	193.900000
824.718811	190.600000
824.753662	199.900000
824.788574	199.100000
824.823364	195.300000
824.858276	191.500000
824.893188	199.800000
824.928040	198.500000
824.962952	198.700000
824.997803	196.800000
825.032654	194.700000
825.067566	195.800000
825.102417	192.600000
825.137268	191.400000
825.172119	193.400000
825.206970	190.500000
825.241882	191.100000
825.276733	189.000000
825.311646	191.100000
825.346436	186.700000
825.381348	188.900000
825.416138	193.300000
825.450989	188.600000
825.485901	183.300000
825.520691	185.000000
825.555542	185.300000
825.590454	192.900000
825.625244	184.800000
825.660095	200.000000
825.695007	197.500000
825.729797	191.100000
825.764648	188.400000
825.799438	192.000000
825.834290	191.700000
825.869202	185.900000
825.903992	193.000000
825.938843	189.900000
825.973694	188.400000
826.008484	205.000000
826.043335	187.500000
826.078186	183.900000
826.112976	200.300000
826.147827	197.800000
826.182678	202.700000
826.217468	184.800000
826.252319	197.300000
826.287109	188.200000
826.321899	200.700000
826.356750	191.300000
826.391541	189.100000
826.426392	198.600000
826.461182	192.400000
826.495972	187.300000
826.530823	182.200000
826.565613	192.200000
826.600403	187.900000
826.635254	195.100000
826.670044	184.800000
826.704834	184.400000
826.739685	187.800000
826.774475	193.300000
826.809265	192.700000
826.844055	189.600000
826.878906	199.000000
826.913635	193.100000
826.948425	194.300000
826.983215	193.100000
827.018005	196.400000
827.052856	190.100000
827.087585	195.100000
827.122375	183.600000
827.157227	191.800000
827.191956	201.900000
827.226746	186.400000
827.261536	194.800000
827.296265	184.200000
827.331116	189.100000
827.365906	195.300000
827.400635	187.500000
827.435425	183.600000
827.470215	197.800000
827.504944	190.300000
827.539734	196.100000
827.574463	191.800000
827.609253	198.100000
827.644043	192.000000
827.678772	196.000000
827.713562	190.300000
827.748352	191.000000
827.783081	187.900000
827.817871	191.700000
827.852600	188.000000
827.887329	193.700000
827.922119	182.700000
827.956848	195.300000
827.991638	205.200000
828.026367	193.600000
828.061157	192.500000
828.095886	192.400000
828.130615	207.000000
828.165344	181.400000
828.200073	192.400000
828.234863	190.000000
828.269592	191.800000
828.304321	197.800000
828.339111	192.300000
828.373779	187.900000
828.408569	196.100000
828.443298	197.400000
828.477966	189.400000
828.512756	193.200000
828.547424	186.700000
828.582214	189.600000
828.616943	189.300000
828.651672	189.500000
828.686340	197.000000
828.721130	188.900000
828.755798	189.800000
828.790527	191.800000
828.825256	191.900000
828.859924	191.600000
828.894714	197.700000
828.929443	199.800000
828.964111	188.700000
828.998840	195.800000
829.033569	189.200000
829.068237	190.300000
829.102966	190.300000
829.137634	193.800000
829.172363	191.500000
829.207092	192.900000
829.241821	187.500000
829.276489	184.100000
829.311157	192.500000
829.345825	189.600000
829.380554	195.600000
829.415283	188.000000
829.449951	184.900000
829.484619	199.500000
829.519348	199.400000
829.554016	192.200000
829.588745	191.000000
829.623413	186.600000
829.658081	202.900000
829.692749	186.800000
829.727417	197.400000
829.762146	194.200000
829.796814	187.000000
829.831482	190.400000
829.866150	193.400000
829.900879	189.300000
829.935486	194.200000
829.970154	189.200000
830.004883	202.000000
830.039490	192.900000
830.074219	189.500000
830.108887	192.100000
830.143494	191.500000
830.178223	184.700000
830.212891	188.500000
830.247498	191.600000
830.282166	199.100000
830.316772	197.300000
830.351501	189.000000
830.386169	189.800000
830.420776	188.600000
830.455444	190.800000
830.490112	188.400000
830.524719	182.600000
830.559387	194.600000
830.594055	194.900000
830.628662	191.400000
830.663330	190.500000
830.697998	200.500000
830.732605	190.900000
830.767273	194.400000
830.801941	190.700000
830.836487	201.300000
830.871155	193.100000
830.905762	194.000000
830.940430	184.000000
830.975098	189.700000
831.009644	192.600000
831.044312	199.200000
831.078979	194.700000
831.113525	182.900000
831.148193	191.800000
831.182861	189.700000
831.217407	194.500000
831.252075	209.700000
831.286621	189.400000
831.321289	186.400000
831.355896	191.000000
831.390564	199.000000
831.425110	192.600000
831.459778	198.400000
831.494324	205.200000
831.528931	195.700000
831.563599	196.400000
831.598145	186.300000
831.632751	192.400000
831.667419	189.300000
831.701965	194.400000
831.736572	195.300000
831.771179	185.400000
831.805786	188.800000
831.840393	198.000000
831.874939	183.200000
831.909546	196.800000
831.944153	182.300000
831.978760	192.200000
832.013306	186.000000
832.047913	198.300000
832.082458	200.900000
832.117065	186.900000
832.151672	200.400000
832.186218	192.500000
832.220825	192.900000
832.255432	182.800000
832.289978	187.300000
832.324585	194.000000
832.359192	195.600000
832.393677	189.400000
832.428284	192.200000
832.462830	191.700000
832.497437	189.700000
832.531982	196.000000
832.566589	189.200000
832.601135	193.400000
832.635681	183.200000
832.670227	191.500000
832.704773	198.900000
832.739380	194.100000
832.773926	192.300000
832.808472	187.900000
832.843079	192.100000
832.877563	195.100000
832.912170	188.400000
832.946716	183.700000
832.981201	199.300000
833.015808	195.400000
833.050293	190.800000
833.084839	187.900000
833.119446	189.600000
833.153992	195.600000
833.188477	191.000000
833.223022	188.500000
833.257568	193.800000
833.292114	197.800000
833.326660	203.200000
833.361145	189.200000
833.395691	184.600000
833.430237	190.700000
833.464783	195.100000
833.499329	189.100000
833.533875	186.300000
833.568359	193.100000
833.602905	197.600000
833.637390	197.100000
833.671875	189.600000
833.706421	189.200000
833.740906	187.900000
833.775452	180.000000
833.809998	190.200000
833.844482	198.900000
833.879028	191.700000
833.913513	189.000000
833.947998	194.300000
833.982544	187.900000
834.017090	189.000000
834.051514	179.700000
834.086060	195.100000
834.120544	190.800000
834.155029	193.400000
834.189575	189.800000
834.223999	194.700000
834.258545	192.300000
834.293030	194.300000
834.327515	191.200000
834.362000	188.700000
834.396545	195.800000
834.430969	190.700000
834.465454	196.100000
834.500000	184.300000
834.534424	194.700000
834.568970	182.900000
834.603455	183.600000
834.637878	187.400000
834.672363	192.600000
834.706909	191.600000
834.741333	192.800000
834.775818	184.300000
834.810242	188.400000
834.844727	192.400000
834.879211	190.200000
834.913635	192.400000
834.948181	193.500000
834.982666	192.400000
835.017090	190.600000
835.051575	192.700000
835.086060	189.000000
835.120483	195.600000
835.154907	196.300000
835.189331	189.900000
835.223816	194.200000
835.258301	185.600000
835.292786	185.300000
835.327209	195.700000
835.361694	187.700000
835.396057	187.700000
835.430542	194.100000
835.465027	192.100000
835.499390	185.700000
835.533875	210.100000
835.568359	189.700000
835.602722	182.600000
835.637207	193.100000
835.671692	185.200000
835.706055	207.800000
835.740540	192.500000
835.774902	194.400000
835.809387	190.300000
835.843811	184.800000
835.878235	197.700000
835.912659	185.700000
835.947083	187.800000
835.981506	191.900000
836.015930	183.800000
836.050354	196.400000
836.084778	200.300000
836.119202	196.700000
836.153625	205.200000
836.187988	188.500000
836.222473	188.000000
836.256897	192.400000
836.291260	191.000000
836.325684	194.200000
836.360046	188.900000
836.394470	189.700000
836.428894	198.300000
836.463318	187.700000
836.497681	196.300000
836.532104	198.600000
836.566467	192.800000
836.600891	189.400000
836.635315	196.800000
836.669678	194.100000
836.704102	196.300000
836.738525	190.500000
836.772888	182.700000
836.807251	188.200000
836.841675	193.700000
836.876038	186.000000
836.910461	188.000000
836.944763	194.300000
836.979187	187.000000
837.013611	196.000000
837.047974	184.300000
837.082336	202.200000
837.116699	195.000000
837.151062	189.800000
837.185486	185.300000
837.219849	189.500000
837.254211	195.800000
837.288574	189.500000
837.322937	186.500000
837.357300	178.600000
837.391663	204.500000
837.426086	196.100000
837.460388	191.200000
837.494751	196.700000
837.529114	189.700000
837.563477	195.800000
837.597839	193.700000
837.632141	190.800000
837.666565	188.200000
837.700928	193.700000
837.735229	196.300000
837.769592	193.100000
837.803955	196.600000
837.838257	190.500000
837.872620	188.200000
837.906982	200.100000
837.941284	192.500000
837.975647	192.400000
838.010010	198.400000
838.044312	191.100000
838.078674	189.500000
838.112976	191.800000
838.147339	196.000000
838.181702	192.000000
838.216003	200.600000
838.250366	193.200000
838.284668	195.000000
838.318970	185.000000
838.353333	191.100000
838.387634	189.300000
838.421936	191.000000
838.456299	192.400000
838.490601	198.000000
838.524902	194.800000
838.559265	196.700000
838.593567	194.600000
838.627869	185.400000
838.662170	194.300000
838.696472	183.300000
838.730774	187.000000
838.765137	196.700000
838.799377	177.200000
838.833740	192.700000
838.868042	198.400000
838.902283	183.300000
838.936646	198.400000
838.970947	193.500000
839.005188	196.700000
839.039551	184.700000
839.073792	199.200000
839.108093	189.100000
839.142395	202.200000
839.176697	183.800000
839.210937	192.900000
839.245300	204.100000
839.279541	184.900000
839.313843	189.300000
839.348145	195.600000
839.382385	196.800000
839.416687	196.400000
839.450989	195.300000
839.485229	191.200000
839.519531	186.100000
839.553833	197.900000
839.588013	191.800000
839.622314	193.000000
839.656555	194.400000
839.690857	190.500000
839.725159	184.100000
839.759460	189.600000
839.793640	189.900000
839.827942	190.100000
839.862183	186.100000
839.896423	191.900000
839.930725	201.400000
839.964966	197.900000
839.999207	198.600000
840.033508	198.300000
840.067688	188.000000
840.101990	198.900000
840.136230	191.500000
840.170471	198.500000
840.204712	187.700000
840.238953	186.500000
840.273193	193.000000
840.307434	193.800000
840.341736	187.400000
840.375916	184.400000
840.410217	188.400000
840.444397	195.200000
840.478638	194.200000
840.512878	197.500000
840.547119	191.600000
840.581360	194.100000
840.615601	202.800000
840.649780	200.200000
840.684021	192.300000
840.718262	199.400000
840.752441	198.700000
840.786682	193.400000
840.820862	194.800000
840.855103	198.800000
840.889343	193.600000
840.923584	196.400000
840.957764	194.600000
840.992004	194.700000
841.026184	205.900000
841.060425	190.800000
841.094666	187.500000
841.128845	195.100000
841.163025	193.900000
841.197266	195.800000
841.231445	193.700000
841.265686	191.200000
841.299866	187.100000
841.334045	200.100000
841.368286	191.000000
841.402405	200.300000
841.436646	196.400000
841.470825	189.500000
841.505005	189.300000
841.539185	188.900000
841.573425	187.600000
841.607544	190.100000
841.641785	191.800000
841.675964	187.000000
841.710144	192.300000
841.744324	188.600000
841.778503	191.500000
841.812683	188.400000
841.846863	200.800000
841.881042	198.800000
841.915222	189.000000
841.949402	208.300000
841.983521	182.200000
842.017700	190.100000
842.051880	194.000000
842.086060	193.500000
842.120239	190.800000
842.154419	190.200000
842.188538	191.000000
842.222717	188.000000
842.256897	202.500000
842.291016	191.900000
842.325195	194.100000
842.359375	203.800000
842.393494	200.600000
842.427673	193.400000
842.461853	195.100000
842.495911	200.900000
842.530090	194.500000
842.564209	191.200000
842.598389	192.600000
842.632568	193.500000
842.666626	196.900000
842.700806	190.100000
842.734985	189.900000
842.769043	195.000000
842.803223	190.400000
842.837402	191.600000
842.871460	190.400000
842.905640	199.800000
842.939697	186.700000
842.973877	194.600000
843.007996	199.100000
843.042175	201.600000
843.076233	189.400000
843.110413	194.200000
843.144470	201.500000
843.178589	195.200000
843.212769	190.300000
843.246826	194.900000
843.280945	190.700000
843.315125	190.300000
843.349182	187.200000
843.383301	199.500000
843.417419	204.200000
843.451538	191.700000
843.485657	191.100000
843.519714	191.000000
843.553833	195.400000
843.587952	190.800000
843.622070	187.700000
843.656128	195.800000
843.690247	191.400000
843.724304	189.900000
843.758423	193.500000
843.792542	192.000000
843.826599	192.300000
843.860718	190.900000
843.894836	187.100000
843.928894	192.900000
843.963013	195.800000
843.997070	188.800000
844.031128	184.900000
844.065247	197.600000
844.099304	197.800000
844.133362	193.800000
844.167480	194.200000
844.201599	200.800000
844.235596	194.800000
844.269714	194.500000
844.303711	195.300000
844.337830	184.900000
844.371948	196.200000
844.405945	191.700000
844.440063	188.300000
844.474121	206.900000
844.508118	191.900000
844.542236	191.800000
844.576294	190.600000
844.610352	186.700000
844.644409	193.500000
844.678406	183.100000
844.712524	195.700000
844.746582	198.800000
844.780640	190.700000
844.814636	192.700000
844.848755	201.700000
844.882751	191.000000
844.916809	196.800000
844.950867	194.300000
844.984863	200.100000
845.018921	193.100000
845.052979	188.100000
845.086975	193.000000
845.121033	184.900000
845.155090	188.400000
845.189087	199.800000
845.223145	188.800000
845.257141	190.100000
845.291199	195.900000
845.325256	199.600000
845.359253	191.600000
845.393250	202.600000
845.427307	191.300000
845.461304	193.400000
845.495361	194.000000
845.529358	203.000000
845.563354	191.000000
845.597412	188.200000
845.631409	200.300000
845.665405	200.100000
845.699463	197.800000
845.733459	191.300000
845.767456	200.200000
845.801453	191.500000
845.835449	198.400000
845.869446	197.900000
845.903503	197.700000
845.937439	189.100000
845.971497	200.900000
846.005493	186.400000
846.039429	196.300000
846.073486	203.400000
846.107483	190.800000
846.141418	192.400000
846.175476	191.300000
846.209473	199.200000
846.243408	188.900000
846.277405	193.300000
846.311401	187.600000
846.345337	193.400000
846.379395	197.900000
846.413330	189.900000
846.447327	201.300000
846.481323	187.200000
846.515259	189.100000
846.549255	194.300000
846.583252	194.000000
846.617187	186.700000
846.651184	195.200000
846.685120	190.300000
846.719055	200.000000
846.753052	198.100000
846.786987	196.900000
846.820984	185.800000
846.854980	199.800000
846.888916	187.900000
846.922852	196.000000
846.956848	201.600000
846.990723	187.400000
847.024719	194.500000
847.058716	192.200000
847.092590	200.600000
847.126587	194.100000
847.160522	192.100000
847.194458	196.600000
847.228455	187.900000
847.262390	187.800000
847.296265	191.500000
847.330261	200.300000
847.364136	191.100000
847.398132	188.800000
847.432068	193.200000
847.466003	192.700000
847.499939	190.600000
847.533875	194.900000
847.567749	191.200000
847.601746	190.000000
847.635681	196.500000
847.669556	184.600000
847.703491	198.700000
847.737427	208.400000
847.771301	187.300000
847.805237	193.300000
847.839233	192.800000
847.873108	192.900000
847.907043	191.800000
847.940918	198.800000
847.974854	194.500000
848.008789	197.600000
848.042664	192.900000
848.076538	196.800000
848.110474	193.500000
848.144348	194.200000
848.178284	185.100000
848.212219	193.000000
848.246094	189.400000
848.279968	195.800000
848.313904	194.600000
848.347778	193.500000
848.381653	191.400000
848.415588	187.900000
848.449463	188.600000
848.483337	195.200000
848.517212	197.400000
848.551086	194.100000
848.585022	188.700000
848.618835	200.600000
848.652771	189.700000
848.686646	187.800000
848.720520	200.600000
848.754395	192.100000
848.788330	197.600000
848.822144	197.000000
848.856018	190.600000
848.889954	202.300000
848.923767	187.800000
848.957642	188.900000
848.991577	197.500000
849.025391	190.700000
849.059265	190.900000
849.093079	190.300000
849.126953	187.400000
849.160828	198.800000
849.194641	193.100000
849.228577	189.900000
849.262451	192.200000
849.296265	190.600000
849.330139	187.400000
849.364014	193.100000
849.397827	195.000000
849.431702	192.600000
849.465515	195.800000
849.499329	183.600000
849.533203	187.300000
849.567078	181.300000
849.600891	196.000000
849.634766	191.600000
849.668518	197.200000
849.702393	192.100000
849.736267	186.300000
849.770020	203.100000
849.803894	196.400000
849.837769	191.900000
849.871521	194.500000
849.905396	198.300000
849.939270	188.100000
849.973022	190.100000
850.006897	196.600000
850.040710	194.300000
850.074524	195.300000
850.108337	190.600000
850.142151	196.400000
850.175964	198.800000
850.209778	192.600000
850.243530	179.700000
850.277405	198.600000
850.311218	193.600000
850.344971	189.100000
850.378845	200.900000
850.412659	190.300000
850.446411	192.700000
850.480225	192.600000
850.514038	198.600000
850.547791	195.100000
850.581665	191.500000
850.615417	191.200000
850.649231	194.200000
850.683044	191.300000
850.716858	191.600000
850.750610	194.100000
850.784424	197.500000
850.818176	189.800000
850.851929	191.600000
850.885742	188.500000
850.919495	192.800000
850.953308	199.400000
850.987122	200.500000
851.020874	186.700000
851.054626	184.400000
851.088440	196.300000
851.122192	196.200000
851.156006	192.900000
851.189697	191.800000
851.223511	185.500000
851.257263	196.700000
851.291077	194.100000
851.324829	191.100000
851.358582	190.000000
851.392334	191.000000
851.426086	190.800000
851.459900	200.700000
851.493591	191.900000
851.527344	192.900000
851.561157	190.600000
851.594849	195.400000
851.628662	194.600000
851.662415	201.500000
851.696106	194.300000
851.729858	198.400000
851.763611	185.300000
851.797363	193.400000
851.831116	188.700000
851.864868	194.000000
851.898560	196.800000
851.932312	190.600000
851.966064	193.800000
851.999817	192.300000
852.033569	192.100000
852.067261	196.100000
852.101013	188.900000
852.134766	192.700000
852.168457	181.900000
852.202209	197.200000
852.235901	188.800000
852.269592	195.200000
852.303345	202.100000
852.337036	194.300000
852.370789	193.800000
852.404541	196.400000
852.438171	188.300000
852.471924	191.600000
852.505676	187.300000
852.539307	195.400000
852.573059	188.900000
852.606812	190.100000
852.640442	191.300000
852.674194	199.000000
852.707886	203.700000
852.741577	199.700000
852.775269	188.500000
852.809021	194.100000
852.842651	195.400000
852.876404	197.400000
852.910034	194.300000
852.943787	198.000000
852.977478	195.500000
853.011108	189.800000
853.044861	188.600000
853.078552	199.000000
853.112183	194.500000
853.145874	194.000000
853.179626	182.700000
853.213257	193.200000
853.246948	190.100000
853.280640	200.300000
853.314270	192.100000
853.347961	200.500000
853.381653	194.700000
853.415283	195.900000
853.448975	190.100000
853.482605	193.200000
853.516296	192.000000
853.549988	187.600000
853.583618	192.900000
853.617310	195.000000
853.651001	194.100000
853.684631	188.300000
853.718323	190.400000
853.751953	201.700000
853.785583	183.500000
853.819275	196.600000
853.852966	194.400000
853.886536	184.100000
853.920227	187.800000
853.953918	199.200000
853.987488	191.000000
854.021179	196.500000
854.054749	200.500000
854.088440	196.000000
854.122131	188.200000
854.155701	197.200000
854.189331	190.000000
854.223022	196.300000
854.256592	195.200000
854.290283	189.900000
854.323914	195.300000
854.357483	193.900000
854.391174	197.000000
854.424744	204.200000
854.458374	194.300000
854.492065	203.400000
854.525696	192.900000
854.559265	200.600000
854.592896	203.100000
854.626465	193.000000
854.660095	194.700000
854.693787	194.800000
854.727356	191.700000
854.760986	197.700000
854.794617	193.400000
854.828186	190.500000
854.861816	195.700000
854.895447	193.300000
854.929016	193.400000
854.962585	195.500000
854.996155	201.400000
855.029785	195.800000
855.063416	195.800000
855.097046	198.300000
855.130615	186.700000
855.164185	200.100000
855.197754	193.400000
855.231384	196.600000
855.264954	192.100000
855.298523	198.000000
855.332153	193.900000
855.365723	202.200000
855.399292	189.200000
855.432922	191.800000
855.466492	196.700000
855.500061	189.200000
855.533630	189.900000
855.567200	197.600000
855.600769	199.000000
855.634338	198.700000
855.667969	196.200000
855.701477	188.500000
855.735046	190.300000
855.768616	184.800000
855.802185	195.700000
855.835754	207.800000
855.869324	184.800000
855.902893	193.700000
855.936401	199.600000
855.969971	194.300000
856.003540	186.600000
856.037109	196.500000
856.070618	191.000000
856.104187	185.900000
856.137695	191.200000
856.171265	182.800000
856.204834	194.000000
856.238403	197.200000
856.271912	191.500000
856.305481	193.400000
856.338989	186.200000
856.372559	195.300000
856.406128	193.400000
856.439636	196.000000
856.473145	191.600000
856.506653	200.100000
856.540222	193.700000
856.573792	200.500000
856.607300	196.200000
856.640808	186.500000
856.674377	195.300000
856.707825	221.000000
856.741394	198.300000
856.774902	190.000000
856.808472	184.400000
856.841980	195.400000
856.875488	202.800000
856.908936	185.500000
856.942505	191.200000
856.976013	192.200000
857.009521	187.900000
857.043030	193.800000
857.076477	191.900000
857.110046	199.000000
857.143555	194.000000
857.177063	199.000000
857.210571	189.600000
857.244080	186.300000
857.277527	195.200000
857.311035	192.600000
857.344543	196.700000
857.378052	191.500000
857.411499	198.900000
857.445068	203.400000
857.478516	192.500000
857.512024	187.700000
857.545532	190.900000
857.578979	194.400000
857.612427	193.100000
857.645874	189.200000
857.679382	193.300000
857.712891	196.300000
857.746399	191.500000
857.779846	197.600000
857.813354	197.200000
857.846741	191.600000
857.880249	188.300000
857.913757	194.500000
857.947266	195.300000
857.980652	195.600000
858.014160	190.000000
858.047546	190.300000
858.081055	191.500000
858.114563	201.300000
858.147949	186.800000
858.181458	197.500000
858.214844	191.700000
858.248352	185.300000
858.281799	197.800000
858.315308	207.100000
858.348694	195.600000
858.382141	201.800000
858.415588	197.200000
858.449036	198.000000
858.482483	197.000000
858.515930	189.500000
858.549377	193.800000
858.582825	200.900000
858.616211	196.800000
858.649658	196.000000
858.683105	188.200000
858.716553	189.800000
858.750000	186.500000
858.783386	190.800000
858.816833	185.000000
858.850281	194.700000
858.883728	195.200000
858.917114	191.100000
858.950562	202.100000
858.983948	201.400000
859.017395	196.700000
859.050781	191.100000
859.084167	188.500000
859.117615	184.700000
859.151062	196.200000
859.184448	188.400000
859.217834	190.400000
859.251282	189.700000
859.284668	188.200000
859.318054	182.300000
859.351440	189.900000
859.384888	201.500000
859.418274	185.100000
859.451721	184.400000
859.485046	195.200000
859.518494	194.400000
859.551819	189.700000
859.585266	195.600000
859.618652	196.400000
859.652039	186.000000
859.685425	188.600000
859.718811	185.000000
859.752197	182.300000
859.785583	200.400000
859.819031	201.600000
859.852356	196.500000
859.885742	189.400000
859.919067	192.200000
859.952454	190.500000
859.985901	198.000000
860.019287	190.400000
860.052612	0.000000
860.085999	0.000000
860.119324	0.000000
860.152710	0.000000
860.186096	0.000000
860.219421	0.000000
860.252808	0.000000
860.286133	0.000000
860.319519	0.000000
860.352905	0.000000
860.386292	0.000000
860.419617	0.000000
860.452942	0.000000
860.486267	0.000000
860.519653	0.000000
860.553040	0.000000
860.586365	0.000000
860.619690	0.000000
860.653076	0.000000
860.686340	0.000000
860.719727	0.000000
860.753113	0.000000
860.786377	0.000000
860.819763	0.000000
860.853027	0.000000
860.886414	0.000000
860.919739	0.000000
860.953125	0.000000
860.986389	0.000000
861.019714	0.000000
861.053040	0.000000
861.086365	0.000000
861.119690	0.000000
861.153076	0.000000
861.186340	0.000000
861.219666	0.000000
861.252930	0.000000
861.286316	0.000000
861.319641	0.000000
861.352905	0.000000
861.386230	0.000000
861.419495	0.000000
861.452820	0.000000
861.486145	0.000000
861.519470	0.000000
861.552734	0.000000
861.586060	0.000000
861.619324	0.000000
861.652649	0.000000
861.685974	0.000000
861.719238	0.000000
861.752563	0.000000
861.785828	0.000000
861.819092	0.000000
861.852417	0.000000
861.885742	0.000000
861.918945	0.000000
861.952271	0.000000
861.985535	0.000000
862.018799	0.000000
862.052124	0.000000
862.085449	0.000000
862.118652	0.000000
862.151978	0.000000
862.185181	0.000000
862.218506	0.000000
862.251770	0.000000
862.285034	0.000000
862.318298	0.000000
862.351562	0.000000
862.384827	0.000000
862.418091	0.000000
862.451355	0.000000
862.484619	0.000000
862.517883	0.000000
862.551086	0.000000
862.584351	0.000000
862.617676	0.000000
862.650940	0.000000
862.684143	0.000000
862.717407	0.000000
862.750610	0.000000
862.783875	0.000000
862.817139	0.000000
862.850342	0.000000
862.883606	0.000000
862.916870	0.000000
862.950073	0.000000
862.983337	0.000000
863.016602	0.000000
863.049805	0.000000
863.083069	0.000000
863.116211	0.000000
863.149475	0.000000
863.182739	0.000000
863.216003	0.000000
863.249146	0.000000
863.282410	0.000000
863.315613	0.000000
863.348816	0.000000
863.382080	0.000000
863.415222	0.000000
863.448486	0.000000
863.481689	0.000000
863.514893	0.000000
863.548157	0.000000
863.581360	0.000000
863.614502	0.000000
863.647766	0.000000
863.680908	0.000000
863.714172	0.000000
863.747375	0.000000
863.780579	0.000000
863.813721	0.000000
863.846985	0.000000
863.880127	0.000000
863.913330	0.000000
863.946533	0.000000
863.979675	0.000000
864.012939	0.000000
