Model Number: SPM-001-M   
Serial Number: 10090201
Firmware Version: 004.17.6
Exposure Time: 500000.000000us
Data Taken on: 10-03-2021 12:05:24.964
Wavelength	Amplitude
733.770752	0.000000
733.808716	0.000000
733.846619	0.000000
733.884583	0.000000
733.922546	0.000000
733.960449	0.000000
733.998413	0.000000
734.036377	0.000000
734.074219	0.000000
734.112183	0.000000
734.150085	0.000000
734.188049	0.000000
734.226013	0.000000
734.263916	0.000000
734.301819	0.000000
734.339783	0.000000
734.377686	0.000000
734.415588	0.000000
734.453552	0.000000
734.491455	0.000000
734.529419	0.000000
734.567322	0.000000
734.605225	0.000000
734.643127	0.000000
734.681091	0.000000
734.718994	0.000000
734.756897	0.000000
734.794800	0.000000
734.832703	0.000000
734.870667	0.000000
734.908508	0.000000
734.946472	0.000000
734.984375	0.000000
735.022278	0.000000
735.060181	0.000000
735.098083	0.000000
735.135986	0.000000
735.173889	0.000000
735.211792	0.000000
735.249695	0.000000
735.287598	0.000000
735.325439	0.000000
735.363403	0.000000
735.401306	0.000000
735.439148	0.000000
735.477051	0.000000
735.515015	0.000000
735.552856	0.000000
735.590759	0.000000
735.628662	0.000000
735.666504	0.000000
735.704407	0.000000
735.742310	0.000000
735.780212	0.000000
735.818115	0.000000
735.856018	0.000000
735.893860	0.000000
735.931763	0.000000
735.969604	0.000000
736.007507	0.000000
736.045410	0.000000
736.083252	0.000000
736.121094	0.000000
736.158997	0.000000
736.196838	0.000000
736.234741	0.000000
736.272644	0.000000
736.310486	0.000000
736.348389	0.000000
736.386230	0.000000
736.424072	0.000000
736.461975	0.000000
736.499878	0.000000
736.537720	0.000000
736.575562	0.000000
736.613403	0.000000
736.651306	0.000000
736.689148	0.000000
736.726990	0.000000
736.764893	0.000000
736.802734	0.000000
736.840576	0.000000
736.878418	0.000000
736.916321	0.000000
736.954102	0.000000
736.992004	0.000000
737.029846	0.000000
737.067688	0.000000
737.105530	0.000000
737.143372	0.000000
737.181213	0.000000
737.219116	0.000000
737.256897	0.000000
737.294739	0.000000
737.332642	0.000000
737.370422	0.000000
737.408325	0.000000
737.446167	0.000000
737.483948	0.000000
737.521790	0.000000
737.559692	0.000000
737.597473	0.000000
737.635315	0.000000
737.673157	0.000000
737.710999	0.000000
737.748840	0.000000
737.786621	0.000000
737.824463	0.000000
737.862305	0.000000
737.900085	0.000000
737.937927	0.000000
737.975769	0.000000
738.013550	0.000000
738.051392	0.000000
738.089233	0.000000
738.127014	0.000000
738.164856	0.000000
738.202698	0.000000
738.240479	0.000000
738.278320	0.000000
738.316162	0.000000
738.353943	0.000000
738.391785	0.000000
738.429565	0.000000
738.467407	0.000000
738.505188	0.000000
738.542969	0.000000
738.580811	0.000000
738.618652	0.000000
738.656372	0.000000
738.694214	0.000000
738.732056	0.000000
738.769836	0.000000
738.807617	0.000000
738.845459	0.000000
738.883240	0.000000
738.921021	0.000000
738.958862	0.000000
738.996582	0.000000
739.034424	0.000000
739.072205	0.000000
739.109985	0.000000
739.147827	0.000000
739.185547	0.000000
739.223389	0.000000
739.261169	0.000000
739.298889	0.000000
739.336731	0.000000
739.374512	0.000000
739.412292	0.000000
739.450073	0.000000
739.487854	0.000000
739.525635	0.000000
739.563416	0.000000
739.601135	0.000000
739.638977	0.000000
739.676758	0.000000
739.714478	0.000000
739.752258	0.000000
739.790100	0.000000
739.827820	0.000000
739.865601	0.000000
739.903381	0.000000
739.941101	0.000000
739.978882	195.800000
740.016724	190.500000
740.054443	198.200000
740.092224	188.900000
740.130005	190.100000
740.167725	189.700000
740.205505	189.300000
740.243225	199.300000
740.281006	196.400000
740.318787	185.900000
740.356506	200.100000
740.394287	198.200000
740.432068	189.400000
740.469727	186.200000
740.507507	197.900000
740.545288	191.500000
740.583008	196.400000
740.620789	195.300000
740.658569	184.400000
740.696228	192.500000
740.734009	199.600000
740.771790	180.500000
740.809509	197.900000
740.847229	186.600000
740.884949	191.600000
740.922729	186.200000
740.960449	191.400000
740.998169	187.300000
741.035950	189.000000
741.073669	195.200000
741.111389	194.100000
741.149170	202.100000
741.186890	202.800000
741.224609	196.900000
741.262329	193.800000
741.300110	203.700000
741.337769	188.100000
741.375549	185.900000
741.413208	193.700000
741.450989	188.400000
741.488708	189.900000
741.526367	189.700000
741.564148	197.100000
741.601868	199.000000
741.639526	191.600000
741.677307	194.600000
741.715027	193.000000
741.752686	188.800000
741.790466	201.100000
741.828186	196.100000
741.865845	187.700000
741.903564	183.500000
741.941345	192.300000
741.979004	188.700000
742.016724	194.600000
742.054382	195.600000
742.092102	198.900000
742.129822	186.200000
742.167480	190.900000
742.205200	191.000000
742.242920	194.700000
742.280640	198.600000
742.318359	188.100000
742.356079	189.300000
742.393738	195.500000
742.431396	192.000000
742.469116	197.300000
742.506775	182.700000
742.544495	196.400000
742.582214	197.600000
742.619873	192.300000
742.657593	199.300000
742.695251	198.200000
742.732971	193.900000
742.770630	195.300000
742.808289	193.500000
742.846008	193.400000
742.883728	195.700000
742.921326	192.500000
742.959045	189.900000
742.996765	193.800000
743.034424	192.900000
743.072083	189.400000
743.109802	192.300000
743.147400	186.600000
743.185120	194.400000
743.222839	192.000000
743.260437	198.400000
743.298157	194.300000
743.335754	185.300000
743.373474	190.000000
743.411133	183.200000
743.448792	194.200000
743.486450	193.200000
743.524170	184.500000
743.561768	193.100000
743.599487	200.200000
743.637146	204.200000
743.674744	191.400000
743.712463	190.800000
743.750122	194.000000
743.787720	195.600000
743.825439	189.800000
743.863037	191.000000
743.900696	193.700000
743.938416	217.600000
743.976013	192.300000
744.013672	200.800000
744.051331	197.500000
744.088928	202.000000
744.126587	200.700000
744.164307	194.500000
744.201904	190.600000
744.239563	195.900000
744.277222	195.100000
744.314819	192.000000
744.352478	201.000000
744.390137	193.500000
744.427734	195.700000
744.465393	190.200000
744.502991	189.400000
744.540649	196.400000
744.578308	194.500000
744.615906	187.200000
744.653564	181.900000
744.691223	198.000000
744.728821	185.000000
744.766418	191.300000
744.804077	195.800000
744.841675	189.400000
744.879333	185.600000
744.916992	193.200000
744.954529	190.700000
744.992187	199.400000
745.029785	190.300000
745.067444	189.500000
745.105042	193.500000
745.142639	195.800000
745.180298	202.400000
745.217896	190.300000
745.255493	191.500000
745.293152	197.500000
745.330750	197.500000
745.368347	201.700000
745.405945	196.400000
745.443604	193.800000
745.481140	197.500000
745.518799	191.800000
745.556396	197.600000
745.593994	198.000000
745.631592	192.600000
745.669189	188.600000
745.706787	194.700000
745.744385	189.800000
745.781982	195.200000
745.819580	191.500000
745.857178	192.600000
745.894775	194.400000
745.932373	194.300000
745.969971	194.500000
746.007568	183.600000
746.045166	204.900000
746.082764	198.200000
746.120300	196.700000
746.157898	197.000000
746.195557	193.600000
746.233093	186.700000
746.270691	198.400000
746.308228	196.100000
746.345825	199.100000
746.383423	197.100000
746.420959	189.200000
746.458557	191.600000
746.496155	190.200000
746.533691	192.900000
746.571289	188.900000
746.608887	193.400000
746.646423	193.600000
746.684021	194.600000
746.721619	191.000000
746.759155	195.000000
746.796753	186.800000
746.834351	187.100000
746.871826	189.700000
746.909424	200.100000
746.946960	193.800000
746.984558	192.100000
747.022156	191.100000
747.059631	201.000000
747.097229	194.900000
747.134827	192.200000
747.172363	199.600000
747.209900	195.000000
747.247498	186.700000
747.285034	201.400000
747.322571	202.200000
747.360168	191.500000
747.397644	185.300000
747.435242	197.200000
747.472778	200.900000
747.510315	192.000000
747.547913	190.600000
747.585388	200.400000
747.622925	193.000000
747.660522	185.500000
747.697998	189.700000
747.735596	192.900000
747.773132	189.100000
747.810669	193.400000
747.848206	196.400000
747.885742	188.200000
747.923279	186.100000
747.960815	196.700000
747.998352	193.000000
748.035889	199.000000
748.073425	198.100000
748.110901	190.500000
748.148437	188.500000
748.185974	195.100000
748.223511	203.300000
748.261047	193.700000
748.298584	194.200000
748.336060	192.200000
748.373596	195.800000
748.411133	211.900000
748.448608	189.100000
748.486145	196.700000
748.523682	201.100000
748.561218	199.700000
748.598755	195.200000
748.636292	196.800000
748.673706	190.700000
748.711243	200.100000
748.748718	195.800000
748.786255	192.800000
748.823792	194.000000
748.861267	186.900000
748.898804	196.600000
748.936340	196.200000
748.973816	192.300000
749.011292	199.100000
749.048828	195.800000
749.086304	195.500000
749.123840	205.200000
749.161316	189.000000
749.198792	204.000000
749.236328	199.000000
749.273743	193.600000
749.311279	191.000000
749.348816	195.900000
749.386230	193.300000
749.423767	182.200000
749.461304	196.200000
749.498718	194.300000
749.536255	201.100000
749.573730	208.000000
749.611206	198.700000
749.648682	192.700000
749.686218	193.000000
749.723633	198.400000
749.761169	191.600000
749.798645	189.600000
749.836060	191.900000
749.873596	190.200000
749.911011	192.600000
749.948547	200.600000
749.986023	194.100000
750.023437	192.900000
750.060913	186.400000
750.098450	187.800000
750.135864	191.500000
750.173340	194.500000
750.210815	198.400000
750.248291	188.800000
750.285767	193.100000
750.323242	199.300000
750.360657	193.600000
750.398132	187.600000
750.435608	198.300000
750.473022	188.500000
750.510498	189.800000
750.547974	189.300000
750.585449	191.600000
750.622925	181.700000
750.660339	203.000000
750.697815	194.600000
750.735291	193.600000
750.772644	194.100000
750.810120	192.900000
750.847595	195.800000
750.885010	188.900000
750.922485	201.700000
750.959961	192.100000
750.997375	201.100000
751.034851	197.800000
751.072266	197.300000
751.109680	187.100000
751.147156	199.600000
751.184570	198.300000
751.221985	193.900000
751.259460	183.800000
751.296875	193.000000
751.334290	194.700000
751.371765	199.100000
751.409180	198.400000
751.446594	200.400000
751.484070	197.400000
751.521423	195.200000
751.558899	195.700000
751.596375	200.900000
751.633728	202.000000
751.671204	208.700000
751.708618	190.300000
751.746033	195.400000
751.783447	188.000000
751.820801	190.300000
751.858276	196.600000
751.895691	193.000000
751.933105	191.300000
751.970520	188.600000
752.007935	191.600000
752.045349	197.000000
752.082764	192.400000
752.120178	191.300000
752.157532	188.700000
752.195007	191.200000
752.232422	195.300000
752.269775	199.300000
752.307190	198.100000
752.344543	189.100000
752.382019	192.300000
752.419434	192.400000
752.456787	195.600000
752.494202	198.700000
752.531616	194.100000
752.568970	199.600000
752.606384	193.000000
752.643799	195.400000
752.681152	201.500000
752.718567	197.000000
752.755981	186.200000
752.793335	197.300000
752.830750	184.900000
752.868164	203.200000
752.905518	189.200000
752.942932	199.100000
752.980225	188.700000
753.017639	199.700000
753.055054	192.700000
753.092407	197.200000
753.129822	200.300000
753.167175	203.700000
753.204529	193.900000
753.241943	191.800000
753.279358	187.700000
753.316650	197.600000
753.354065	196.500000
753.391479	199.800000
753.428772	203.300000
753.466187	197.800000
753.503479	187.600000
753.540894	192.000000
753.578308	188.100000
753.615601	187.600000
753.653015	194.800000
753.690369	192.000000
753.727722	189.100000
753.765076	187.800000
753.802490	188.500000
753.839783	185.000000
753.877136	191.800000
753.914551	208.400000
753.951843	189.100000
753.989258	197.900000
754.026611	195.900000
754.063904	196.200000
754.101257	189.100000
754.138611	186.000000
754.175964	195.400000
754.213318	206.100000
754.250610	187.500000
754.288025	190.900000
754.325378	189.000000
754.362671	199.700000
754.400024	193.100000
754.437378	202.900000
754.474670	205.000000
754.512085	189.500000
754.549438	195.100000
754.586731	191.600000
754.624084	194.400000
754.661438	188.800000
754.698730	202.400000
754.736084	191.900000
754.773376	193.200000
754.810730	196.800000
754.848083	193.600000
754.885315	198.400000
754.922668	187.900000
754.960022	188.200000
754.997314	199.400000
755.034668	195.700000
755.072021	196.000000
755.109253	192.800000
755.146606	201.800000
755.183960	193.600000
755.221252	204.500000
755.258545	200.700000
755.295898	201.400000
755.333191	201.900000
755.370544	199.400000
755.407776	194.800000
755.445129	196.800000
755.482422	200.300000
755.519714	193.800000
755.557068	187.000000
755.594360	189.000000
755.631653	199.600000
755.668945	205.600000
755.706299	199.100000
755.743530	208.500000
755.780884	204.800000
755.818176	202.900000
755.855408	203.300000
755.892761	199.600000
755.930054	199.500000
755.967346	200.900000
756.004639	204.000000
756.041870	198.300000
756.079224	204.500000
756.116516	195.000000
756.153748	204.500000
756.191040	205.700000
756.228394	202.800000
756.265625	193.600000
756.302917	201.100000
756.340210	195.800000
756.377441	205.900000
756.414795	206.000000
756.452087	200.100000
756.489319	192.000000
756.526611	203.400000
756.563843	201.200000
756.601135	211.800000
756.638428	207.900000
756.675659	200.600000
756.712952	205.200000
756.750244	204.900000
756.787476	202.400000
756.824768	208.600000
756.862061	199.300000
756.899292	248.400000
756.936584	204.900000
756.973816	213.400000
757.011047	214.300000
757.048340	204.000000
757.085632	202.400000
757.122864	219.200000
757.160156	202.400000
757.197327	206.200000
757.234619	209.000000
757.271912	203.000000
757.309082	209.000000
757.346375	201.600000
757.383667	211.600000
757.420837	205.500000
757.458130	206.200000
757.495422	202.100000
757.532593	208.000000
757.569885	196.500000
757.607117	200.900000
757.644348	207.100000
757.681580	218.800000
757.718811	192.700000
757.756042	205.200000
757.793335	203.000000
757.830505	214.400000
757.867798	202.800000
757.905029	203.000000
757.942200	207.300000
757.979492	203.400000
758.016724	205.000000
758.053894	205.700000
758.091187	225.400000
758.128418	208.200000
758.165588	207.500000
758.202820	220.100000
758.240112	208.100000
758.277283	220.100000
758.314514	209.800000
758.351685	205.900000
758.388916	219.100000
758.426147	216.200000
758.463379	218.600000
758.500610	213.100000
758.537842	210.500000
758.575012	218.400000
758.612244	204.300000
758.649475	224.000000
758.686646	202.800000
758.723877	216.900000
758.761108	218.900000
758.798279	212.000000
758.835510	212.900000
758.872742	219.200000
758.909851	214.900000
758.947083	215.300000
758.984253	214.400000
759.021484	215.700000
759.058716	216.100000
759.095886	216.900000
759.133057	212.500000
759.170288	216.600000
759.207458	210.400000
759.244690	225.100000
759.281860	225.500000
759.319031	213.900000
759.356262	212.400000
759.393433	213.200000
759.430603	213.900000
759.467773	212.300000
759.505005	222.700000
759.542175	220.500000
759.579346	215.200000
759.616516	215.800000
759.653687	218.000000
759.690918	209.900000
759.728027	217.700000
759.765259	216.600000
759.802429	221.400000
759.839539	218.800000
759.876770	223.600000
759.913940	226.700000
759.951111	218.200000
759.988281	216.400000
760.025452	214.800000
760.062561	212.400000
760.099792	229.000000
760.136963	220.300000
760.174072	218.000000
760.211243	212.800000
760.248413	215.100000
760.285583	214.100000
760.322754	230.200000
760.359863	224.500000
760.397034	227.200000
760.434204	218.800000
760.471375	220.900000
760.508545	217.400000
760.545715	220.800000
760.582825	214.400000
760.619995	225.900000
760.657166	214.500000
760.694275	227.000000
760.731445	222.800000
760.768555	224.000000
760.805664	224.000000
760.842834	223.800000
760.879944	226.400000
760.917114	224.200000
760.954285	222.600000
760.991394	217.100000
761.028564	229.800000
761.065674	227.400000
761.102783	220.800000
761.139954	230.200000
761.177124	229.400000
761.214172	231.900000
761.251343	225.200000
761.288452	225.900000
761.325562	232.500000
761.362732	222.900000
761.399841	227.900000
761.436951	230.200000
761.474121	225.100000
761.511169	229.000000
761.548340	234.700000
761.585449	232.800000
761.622559	234.300000
761.659668	232.100000
761.696838	238.500000
761.733887	235.300000
761.771057	230.900000
761.808167	233.000000
761.845276	239.500000
761.882385	247.600000
761.919434	237.200000
761.956604	255.300000
761.993713	232.100000
762.030762	240.800000
762.067871	236.600000
762.105042	235.600000
762.142090	246.000000
762.179199	240.200000
762.216309	245.500000
762.253418	255.400000
762.290527	250.000000
762.327637	245.700000
762.364685	236.400000
762.401794	247.700000
762.438904	245.500000
762.475952	237.800000
762.513062	239.700000
762.550110	238.400000
762.587219	254.000000
762.624329	253.500000
762.661377	247.800000
762.698486	246.800000
762.735596	245.300000
762.772644	240.300000
762.809753	237.900000
762.846863	248.700000
762.883911	251.600000
762.921021	251.400000
762.958069	249.500000
762.995117	258.800000
763.032227	258.100000
763.069336	249.200000
763.106323	245.500000
763.143433	245.400000
763.180481	252.800000
763.217590	254.600000
763.254639	249.400000
763.291687	253.000000
763.328735	259.000000
763.365845	254.600000
763.402893	252.200000
763.439941	256.600000
763.477051	259.000000
763.514038	260.600000
763.551147	251.700000
763.588196	257.600000
763.625244	255.100000
763.662292	264.400000
763.699402	264.600000
763.736389	261.100000
763.773499	271.300000
763.810486	265.000000
763.847534	260.100000
763.884644	264.500000
763.921631	259.600000
763.958679	273.600000
763.995728	261.100000
764.032776	271.900000
764.069824	256.100000
764.106873	267.200000
764.143860	272.900000
764.180969	265.500000
764.218018	275.200000
764.255005	267.400000
764.292053	269.700000
764.329102	280.300000
764.366089	278.200000
764.403137	276.600000
764.440125	266.200000
764.477173	270.700000
764.514221	273.600000
764.551208	270.000000
764.588257	267.200000
764.625305	278.100000
764.662292	284.100000
764.699341	288.700000
764.736389	280.300000
764.773376	293.300000
764.810425	281.400000
764.847473	289.000000
764.884399	285.200000
764.921448	294.300000
764.958435	292.500000
764.995483	280.000000
765.032532	298.700000
765.069458	282.400000
765.106506	285.100000
765.143555	281.200000
765.180481	288.400000
765.217529	294.500000
765.254578	281.100000
765.291504	291.100000
765.328552	287.700000
765.365540	282.800000
765.402527	301.400000
765.439575	283.300000
765.476501	281.300000
765.513550	281.600000
765.550537	290.600000
765.587463	293.700000
765.624512	287.800000
765.661499	280.000000
765.698486	297.500000
765.735474	286.300000
765.772461	290.000000
765.809448	298.100000
765.846436	296.500000
765.883423	297.500000
765.920410	292.500000
765.957397	289.300000
765.994385	295.300000
766.031311	303.600000
766.068359	296.000000
766.105286	297.700000
766.142273	304.500000
766.179260	300.600000
766.216187	294.300000
766.253174	291.700000
766.290161	300.500000
766.327148	304.600000
766.364136	303.600000
766.401123	321.600000
766.438049	297.900000
766.475037	313.500000
766.512024	309.100000
766.548950	324.700000
766.585937	318.200000
766.622864	315.600000
766.659790	312.200000
766.696777	304.700000
766.733704	320.500000
766.770691	312.900000
766.807678	326.600000
766.844604	323.300000
766.881531	322.000000
766.918518	329.900000
766.955444	330.300000
766.992432	324.300000
767.029358	328.700000
767.066284	330.100000
767.103271	327.300000
767.140198	357.300000
767.177124	346.200000
767.214050	337.800000
767.251038	337.700000
767.287964	332.300000
767.324890	329.400000
767.361816	339.200000
767.398743	344.200000
767.435730	338.200000
767.472595	343.500000
767.509583	348.300000
767.546509	337.000000
767.583374	345.700000
767.620361	337.900000
767.657288	345.600000
767.694214	344.600000
767.731140	345.200000
767.768066	346.200000
767.804993	352.500000
767.841919	342.900000
767.878845	349.900000
767.915710	359.700000
767.952698	351.600000
767.989563	355.200000
768.026489	357.700000
768.063416	351.200000
768.100281	350.200000
768.137207	366.700000
768.174133	361.700000
768.211060	362.900000
768.247986	365.200000
768.284912	361.700000
768.321777	366.700000
768.358704	364.100000
768.395630	367.300000
768.432495	363.500000
768.469421	367.700000
768.506348	377.400000
768.543152	382.000000
768.580078	379.300000
768.616943	380.000000
768.653870	381.500000
768.690796	381.800000
768.727661	381.100000
768.764587	383.200000
768.801453	376.300000
768.838318	386.000000
768.875244	384.700000
768.912109	390.000000
768.948975	388.000000
768.985901	389.900000
769.022766	390.500000
769.059631	393.500000
769.096558	389.700000
769.133362	389.100000
769.170288	392.400000
769.207214	393.100000
769.244019	398.300000
769.280945	397.900000
769.317810	408.800000
769.354675	398.700000
769.391541	410.000000
769.428406	407.000000
769.465271	418.800000
769.502136	405.200000
769.539062	410.300000
769.575867	410.300000
769.612732	409.300000
769.649597	420.800000
769.686462	423.400000
769.723328	418.500000
769.760193	412.000000
769.797058	415.600000
769.833923	426.000000
769.870728	425.700000
769.907593	424.800000
769.944519	427.600000
769.981323	427.700000
770.018188	428.300000
770.055054	426.700000
770.091858	428.600000
770.128723	440.100000
770.165588	451.700000
770.202393	427.500000
770.239258	442.300000
770.276062	437.500000
770.312927	438.300000
770.349792	446.000000
770.386597	447.900000
770.423462	455.700000
770.460327	464.700000
770.497131	446.900000
770.533997	439.500000
770.570862	456.100000
770.607605	458.600000
770.644470	450.500000
770.681335	455.600000
770.718140	451.000000
770.754944	443.600000
770.791809	445.400000
770.828613	448.100000
770.865479	448.500000
770.902222	462.500000
770.939087	455.900000
770.975952	443.400000
771.012695	451.300000
771.049561	467.300000
771.086365	452.300000
771.123169	449.900000
771.159973	455.600000
771.196838	457.200000
771.233582	460.200000
771.270447	459.900000
771.307251	462.900000
771.344055	458.500000
771.380859	461.000000
771.417664	454.500000
771.454468	464.500000
771.491272	465.100000
771.528076	465.900000
771.564880	459.800000
771.601685	476.900000
771.638428	464.300000
771.675293	470.700000
771.712097	461.300000
771.748840	481.300000
771.785645	471.400000
771.822449	476.500000
771.859253	480.400000
771.896057	478.700000
771.932861	491.700000
771.969604	482.300000
772.006409	472.900000
772.043213	490.000000
772.079956	483.300000
772.116760	475.600000
772.153503	480.800000
772.190308	495.600000
772.227112	483.600000
772.263855	485.900000
772.300659	490.100000
772.337463	502.400000
772.374207	487.700000
772.411011	489.000000
772.447754	494.000000
772.484497	509.900000
772.521301	502.800000
772.558105	505.900000
772.594849	506.700000
772.631592	512.400000
772.668396	509.700000
772.705139	515.000000
772.741882	514.600000
772.778625	530.700000
772.815430	530.000000
772.852173	528.700000
772.888916	537.400000
772.925720	538.900000
772.962463	547.000000
772.999207	541.300000
773.035950	545.200000
773.072754	545.900000
773.109436	540.200000
773.146240	544.400000
773.182922	544.000000
773.219727	556.900000
773.256470	554.500000
773.293152	535.200000
773.329956	548.500000
773.366699	553.600000
773.403381	545.900000
773.440186	557.200000
773.476929	559.400000
773.513611	551.100000
773.550354	554.800000
773.587158	554.400000
773.623840	553.500000
773.660583	567.300000
773.697327	582.700000
773.734009	566.700000
773.770813	568.200000
773.807495	563.500000
773.844238	569.900000
773.880981	592.000000
773.917664	587.000000
773.954407	592.600000
773.991150	581.800000
774.027832	584.600000
774.064575	578.800000
774.101318	592.100000
774.138000	598.900000
774.174744	589.600000
774.211487	597.400000
774.248108	584.500000
774.284851	585.100000
774.321594	592.200000
774.358276	602.400000
774.395020	613.200000
774.431702	611.700000
774.468384	602.200000
774.505127	599.700000
774.541809	616.500000
774.578491	629.600000
774.615234	629.200000
774.651917	619.200000
774.688599	624.300000
774.725342	637.500000
774.762024	635.000000
774.798706	640.800000
774.835449	644.300000
774.872070	645.100000
774.908813	641.500000
774.945496	635.900000
774.982178	636.300000
775.018860	644.900000
775.055542	646.600000
775.092224	650.500000
775.128967	656.700000
775.165588	647.000000
775.202271	645.200000
775.239014	660.000000
775.275635	663.300000
775.312317	660.200000
775.349060	665.200000
775.385681	657.700000
775.422363	648.200000
775.459045	661.300000
775.495667	670.600000
775.532410	674.900000
775.569092	676.600000
775.605713	675.100000
775.642395	673.700000
775.679016	677.600000
775.715698	681.800000
775.752380	687.800000
775.789001	679.000000
775.825684	674.700000
775.862366	679.400000
775.898987	691.400000
775.935669	678.900000
775.972351	706.800000
776.008972	702.800000
776.045654	696.000000
776.082336	688.700000
776.118958	692.400000
776.155640	699.000000
776.192322	710.000000
776.228882	711.400000
776.265564	708.300000
776.302185	701.400000
776.338867	710.700000
776.375488	693.200000
776.412109	714.800000
776.448792	722.600000
776.485413	727.300000
776.522034	712.200000
776.558716	704.900000
776.595337	707.800000
776.631958	712.700000
776.668579	714.400000
776.705261	716.800000
776.741882	713.600000
776.778503	712.000000
776.815186	708.900000
776.851746	718.000000
776.888367	718.200000
776.924988	728.400000
776.961609	718.100000
776.998291	718.600000
777.034851	699.500000
777.071472	723.300000
777.108154	723.200000
777.144714	737.000000
777.181335	730.500000
777.218018	716.900000
777.254578	722.300000
777.291199	726.000000
777.327759	738.900000
777.364380	745.100000
777.401062	752.000000
777.437622	766.200000
777.474243	744.800000
777.510864	756.100000
777.547424	751.900000
777.584045	759.600000
777.620667	765.200000
777.657227	773.600000
777.693848	771.300000
777.730469	779.800000
777.767029	769.700000
777.803650	772.100000
777.840271	765.100000
777.876831	773.500000
777.913452	777.500000
777.950012	761.200000
777.986633	763.000000
778.023193	762.900000
778.059753	760.600000
778.096375	764.100000
778.132996	774.300000
778.169556	761.800000
778.206116	760.500000
778.242737	762.500000
778.279297	781.800000
778.315857	764.700000
778.352478	772.800000
778.389038	788.400000
778.425598	792.100000
778.462219	804.100000
778.498718	800.500000
778.535339	808.300000
778.571838	811.600000
778.608459	820.600000
778.645020	813.200000
778.681580	823.300000
778.718140	829.000000
778.754761	824.000000
778.791260	829.800000
778.827881	838.000000
778.864441	834.000000
778.900940	839.500000
778.937561	841.000000
778.974121	834.900000
779.010620	822.100000
779.047241	825.800000
779.083801	840.800000
779.120300	843.200000
779.156860	850.300000
779.193359	847.600000
779.229980	847.200000
779.266541	853.200000
779.303040	859.700000
779.339600	852.000000
779.376160	841.000000
779.412659	848.100000
779.449219	847.400000
779.485779	860.000000
779.522278	864.600000
779.558838	864.200000
779.595398	867.100000
779.631897	872.300000
779.668457	862.800000
779.705017	873.800000
779.741516	863.200000
779.778076	858.900000
779.814575	877.400000
779.851074	883.800000
779.887634	868.300000
779.924133	876.200000
779.960693	867.100000
779.997253	878.400000
780.033691	882.200000
780.070251	886.000000
780.106812	901.600000
780.143250	894.000000
780.179810	887.400000
780.216370	896.400000
780.252808	912.400000
780.289368	929.000000
780.325867	919.200000
780.362366	918.600000
780.398865	935.600000
780.435364	929.600000
780.471863	939.100000
780.508423	940.000000
780.544861	944.900000
780.581421	948.800000
780.617920	938.100000
780.654419	932.800000
780.690918	939.900000
780.727417	956.000000
780.763916	958.800000
780.800415	962.600000
780.836914	941.800000
780.873352	955.000000
780.909912	940.700000
780.946411	949.700000
780.982849	957.200000
781.019348	979.300000
781.055786	975.200000
781.092346	968.600000
781.128845	981.100000
781.165283	984.800000
781.201782	989.800000
781.238281	988.300000
781.274719	1001.100000
781.311218	991.500000
781.347717	1004.100000
781.384155	992.400000
781.420654	990.500000
781.457092	1005.100000
781.493591	998.500000
781.530090	984.800000
781.566528	1000.000000
781.602966	1005.300000
781.639465	1005.700000
781.675903	994.600000
781.712402	1007.100000
781.748901	1016.700000
781.785278	1001.500000
781.821777	1002.100000
781.858276	997.700000
781.894714	1024.500000
781.931152	1021.800000
781.967651	1026.000000
782.004089	1025.100000
782.040527	1031.900000
782.076965	1027.700000
782.113403	1027.100000
782.149902	1026.000000
782.186340	1008.900000
782.222778	1032.600000
782.259277	1026.100000
782.295654	1011.600000
782.332092	1018.500000
782.368591	1019.500000
782.404968	1012.500000
782.441467	1019.400000
782.477905	1017.000000
782.514282	1011.400000
782.550781	1034.900000
782.587219	1038.200000
782.623596	1037.200000
782.660095	1041.800000
782.696472	1049.800000
782.732910	1047.800000
782.769348	1050.800000
782.805786	1071.300000
782.842224	1064.700000
782.878662	1059.700000
782.915039	1055.700000
782.951477	1052.200000
782.987915	1049.500000
783.024292	1060.600000
783.060730	1061.900000
783.097168	1045.000000
783.133545	1042.500000
783.169983	1037.400000
783.206421	1033.400000
783.242798	1031.100000
783.279236	1017.900000
783.315613	1016.400000
783.352051	1008.900000
783.388489	997.400000
783.424866	983.800000
783.461304	980.600000
783.497681	993.500000
783.534058	991.900000
783.570496	980.500000
783.606934	982.500000
783.643250	992.700000
783.679687	1002.400000
783.716125	1009.000000
783.752441	1018.400000
783.788879	1033.200000
783.825317	1030.200000
783.861633	1036.100000
783.898071	1044.100000
783.934448	1064.400000
783.970825	1074.000000
784.007263	1061.600000
784.043579	1023.200000
784.080017	961.100000
784.116394	867.700000
784.152710	791.900000
784.189148	770.400000
784.225525	801.400000
784.261902	861.200000
784.298279	932.000000
784.334656	1003.100000
784.371033	1041.100000
784.407410	1062.300000
784.443787	1058.300000
784.480164	1043.600000
784.516541	1033.200000
784.552856	1037.900000
784.589233	1029.700000
784.625610	1022.300000
784.661987	1061.900000
784.698364	1046.800000
784.734741	1039.900000
784.771057	1039.500000
784.807434	1042.600000
784.843811	1056.600000
784.880127	1063.500000
784.916504	1094.500000
784.952881	1106.100000
784.989197	1095.600000
785.025574	1093.400000
785.061951	1102.600000
785.098267	1139.300000
785.134644	1134.700000
785.170959	1134.500000
785.207275	1142.700000
785.243652	1135.900000
785.279968	1120.600000
785.316345	1134.900000
785.352722	1141.300000
785.388977	1133.100000
785.425354	1108.900000
785.461731	1090.600000
785.498047	1090.200000
785.534363	1087.500000
785.570679	1089.300000
785.606995	1086.600000
785.643372	1083.200000
785.679687	1068.900000
785.716003	1063.800000
785.752380	1065.500000
785.788635	1067.900000
785.825012	1083.900000
785.861328	1100.300000
785.897644	1089.000000
785.933960	1099.600000
785.970337	1109.800000
786.006592	1136.000000
786.042908	1137.900000
786.079285	1158.200000
786.115540	1169.600000
786.151855	1166.700000
786.188171	1152.100000
786.224487	1157.200000
786.260803	1151.800000
786.297119	1169.100000
786.333435	1169.300000
786.369751	1163.600000
786.406006	1167.900000
786.442322	1152.600000
786.478638	1139.300000
786.514954	1153.500000
786.551270	1154.400000
786.587585	1165.600000
786.623840	1158.600000
786.660156	1146.900000
786.696472	1131.800000
786.732727	1121.400000
786.769043	1126.100000
786.805298	1123.600000
786.841614	1127.300000
786.877930	1138.700000
786.914124	1107.600000
786.950439	1125.700000
786.986755	1141.600000
787.023010	1158.300000
787.059326	1162.300000
787.095642	1160.900000
787.131836	1182.200000
787.168152	1166.600000
787.204468	1175.100000
787.240723	1196.200000
787.276978	1215.200000
787.313293	1226.900000
787.349548	1222.200000
787.385803	1219.000000
787.422058	1211.300000
787.458313	1204.200000
787.494629	1208.100000
787.530823	1208.900000
787.567139	1193.900000
787.603455	1184.000000
787.639648	1179.700000
787.675903	1176.000000
787.712219	1179.000000
787.748413	1168.200000
787.784729	1184.000000
787.820984	1169.000000
787.857178	1158.900000
787.893494	1150.600000
787.929749	1143.800000
787.965942	1141.500000
788.002258	1160.500000
788.038452	1166.700000
788.074707	1156.100000
788.110962	1158.100000
788.147217	1154.300000
788.183472	1163.200000
788.219727	1172.800000
788.255920	1184.000000
788.292175	1188.100000
788.328430	1193.700000
788.364624	1175.900000
788.400879	1182.500000
788.437134	1181.300000
788.473328	1178.000000
788.509583	1178.000000
788.545837	1168.100000
788.582031	1164.700000
788.618286	1149.300000
788.654480	1136.200000
788.690735	1158.700000
788.726990	1173.000000
788.763184	1176.200000
788.799377	1185.900000
788.835632	1177.000000
788.871826	1198.700000
788.908081	1197.700000
788.944336	1192.800000
788.980469	1211.300000
789.016724	1198.400000
789.052979	1198.300000
789.089111	1179.400000
789.125366	1175.900000
789.161621	1156.400000
789.197754	1183.300000
789.234009	1165.300000
789.270142	1144.300000
789.306396	1147.300000
789.342590	1139.200000
789.378784	1108.100000
789.414978	1105.800000
789.451233	1126.500000
789.487366	1131.900000
789.523621	1143.000000
789.559814	1126.900000
789.595947	1109.800000
789.632202	1119.000000
789.668335	1128.000000
789.704529	1155.900000
789.740784	1177.800000
789.776917	1173.000000
789.813110	1154.100000
789.849304	1173.000000
789.885498	1190.900000
789.921692	1212.000000
789.957886	1217.200000
789.994019	1203.400000
790.030212	1195.500000
790.066406	1190.400000
790.102539	1180.100000
790.138733	1195.300000
790.174927	1196.000000
790.211060	1217.300000
790.247253	1197.900000
790.283386	1184.400000
790.319580	1171.800000
790.355774	1157.200000
790.391907	1158.900000
790.428101	1177.400000
790.464294	1182.700000
790.500427	1180.900000
790.536621	1166.500000
790.572754	1151.100000
790.608887	1156.200000
790.645081	1163.100000
790.681274	1172.300000
790.717346	1155.500000
790.753540	1120.700000
790.789734	1052.400000
790.825867	992.700000
790.862000	989.000000
790.898132	1026.500000
790.934265	1081.800000
790.970459	1136.200000
791.006592	1146.300000
791.042725	1162.200000
791.078918	1156.100000
791.114990	1159.100000
791.151184	1166.900000
791.187317	1191.100000
791.223389	1167.500000
791.259583	1161.300000
791.295715	1165.000000
791.331848	1175.800000
791.367981	1187.300000
791.404114	1195.700000
791.440247	1177.400000
791.476379	1179.400000
791.512451	1158.400000
791.548584	1168.100000
791.584778	1173.000000
791.620850	1190.500000
791.656982	1193.300000
791.693115	1183.600000
791.729187	1171.000000
791.765381	1166.400000
791.801514	1164.200000
791.837585	1164.900000
791.873718	1182.200000
791.909851	1195.600000
791.945923	1202.100000
791.982056	1168.300000
792.018188	1165.000000
792.054260	1157.800000
792.090393	1164.300000
792.126465	1157.900000
792.162598	1175.000000
792.198669	1167.800000
792.234741	1155.600000
792.270874	1138.700000
792.307007	1125.000000
792.343079	1132.300000
792.379150	1149.500000
792.415283	1128.700000
792.451355	1137.600000
792.487488	1112.400000
792.523560	1111.600000
792.559631	1117.300000
792.595764	1111.400000
792.631836	1118.100000
792.667908	1131.700000
792.703979	1107.900000
792.740051	1107.800000
792.776184	1108.600000
792.812256	1114.900000
792.848328	1131.100000
792.884399	1140.600000
792.920471	1129.300000
792.956543	1122.500000
792.992615	1117.600000
793.028748	1116.400000
793.064758	1123.000000
793.100830	1144.800000
793.136963	1155.400000
793.172974	1146.000000
793.209045	1138.400000
793.245178	1144.700000
793.281189	1127.000000
793.317261	1135.900000
793.353271	1134.500000
793.389404	1140.900000
793.425476	1137.900000
793.461487	1122.500000
793.497559	1118.200000
793.533630	1129.700000
793.569641	1135.300000
793.605713	1138.100000
793.641785	1135.700000
793.677795	1144.400000
793.713867	1124.500000
793.749878	1130.700000
793.785950	1149.300000
793.822021	1154.900000
793.858032	1148.300000
793.894104	1157.300000
793.930176	1142.800000
793.966187	1129.800000
794.002258	1124.600000
794.038269	1131.600000
794.074280	1132.200000
794.110352	1146.100000
794.146423	1120.600000
794.182373	1113.500000
794.218445	1103.400000
794.254517	1099.900000
794.290466	1087.400000
794.326538	1092.200000
794.362549	1097.400000
794.398560	1103.200000
794.434631	1103.700000
794.470581	1068.600000
794.506653	1067.100000
794.542664	1067.100000
794.578674	1066.000000
794.614685	1070.700000
794.650757	1067.800000
794.686707	1054.900000
794.722778	1039.800000
794.758789	1058.200000
794.794739	1069.000000
794.830811	1094.000000
794.866821	1102.600000
794.902771	1088.600000
794.938843	1083.300000
794.974792	1069.000000
795.010803	1072.100000
795.046814	1079.600000
795.082825	1074.000000
795.118835	1087.300000
795.154846	1061.900000
795.190796	1062.300000
795.226807	1039.200000
795.262817	1053.500000
795.298767	1053.300000
795.334778	1055.200000
795.370850	1044.100000
795.406799	1038.400000
795.442810	1017.500000
795.478821	1020.900000
795.514709	1015.300000
795.550720	1035.100000
795.586670	1015.400000
795.622681	1018.700000
795.658691	1018.200000
795.694641	1016.200000
795.730652	1004.000000
795.766663	1008.900000
795.802551	1013.900000
795.838562	1028.800000
795.874573	1010.900000
795.910522	1013.600000
795.946472	995.200000
795.982483	1001.400000
796.018433	1010.800000
796.054382	1016.400000
796.090393	1003.400000
796.126282	1002.100000
796.162292	992.200000
796.198242	989.500000
796.234192	994.700000
796.270203	987.600000
796.306091	991.700000
796.342041	1005.700000
796.378052	993.000000
796.413940	988.200000
796.449951	989.500000
796.485901	987.600000
796.521790	994.800000
796.557800	1003.100000
796.593689	994.800000
796.629639	980.200000
796.665649	974.700000
796.701599	971.900000
796.737488	973.600000
796.773437	980.900000
796.809387	978.600000
796.845337	980.700000
796.881287	966.100000
796.917175	947.800000
796.953125	949.800000
796.989075	964.100000
797.024963	972.500000
797.060913	969.100000
797.096863	968.800000
797.132751	956.500000
797.168701	938.200000
797.204590	946.500000
797.240540	948.400000
797.276489	955.700000
797.312439	963.300000
797.348328	949.800000
797.384277	947.400000
797.420166	937.800000
797.456055	941.000000
797.492004	940.000000
797.527893	950.500000
797.563843	952.600000
797.599731	932.700000
797.635620	915.500000
797.671570	933.900000
797.707520	932.500000
797.743347	927.400000
797.779297	938.000000
797.815125	927.600000
797.851074	924.900000
797.887024	914.600000
797.922913	902.600000
797.958801	920.400000
797.994690	917.800000
798.030579	926.300000
798.066467	926.900000
798.102356	912.900000
798.138245	904.200000
798.174133	899.800000
798.210083	914.400000
798.245911	918.500000
798.281799	914.900000
798.317749	902.800000
798.353577	893.300000
798.389465	898.500000
798.425293	899.600000
798.461243	895.200000
798.497131	903.400000
798.532959	899.800000
798.568848	895.900000
798.604736	888.800000
798.640564	879.100000
798.676453	877.100000
798.712402	883.500000
798.748230	890.100000
798.784119	886.400000
798.820007	889.900000
798.855835	886.500000
798.891724	880.000000
798.927551	876.100000
798.963379	881.700000
798.999268	874.800000
799.035095	874.900000
799.070984	868.100000
799.106873	854.500000
799.142700	864.100000
799.178528	851.900000
799.214417	858.800000
799.250244	872.300000
799.286133	862.600000
799.321960	858.100000
799.357788	848.000000
799.393677	852.600000
799.429504	850.200000
799.465332	848.300000
799.501221	861.500000
799.537048	855.300000
799.572876	850.900000
799.608704	849.700000
799.644531	854.200000
799.680359	851.500000
799.716248	863.600000
799.752014	862.600000
799.787903	856.100000
799.823730	850.600000
799.859558	840.700000
799.895386	840.500000
799.931213	841.000000
799.967041	834.200000
800.002869	835.500000
800.038696	847.000000
800.074463	821.200000
800.110352	827.500000
800.146179	822.400000
800.181946	824.000000
800.217773	829.300000
800.253540	823.200000
800.289429	820.600000
800.325256	815.700000
800.361023	804.700000
800.396851	811.300000
800.432678	811.300000
800.468445	803.200000
800.504272	797.900000
800.540100	786.200000
800.575867	786.800000
800.611694	789.400000
800.647461	775.700000
800.683289	785.300000
800.719116	792.200000
800.754883	780.000000
800.790649	762.700000
800.826477	757.300000
800.862244	780.700000
800.898071	768.200000
800.933838	757.700000
800.969604	757.700000
801.005432	760.700000
801.041199	757.200000
801.076965	747.700000
801.112793	742.600000
801.148560	737.600000
801.184326	737.100000
801.220154	737.700000
801.255859	728.600000
801.291687	723.800000
801.327454	710.200000
801.363281	714.800000
801.398987	716.600000
801.434814	717.500000
801.470520	726.000000
801.506287	713.500000
801.542114	708.100000
801.577820	713.700000
801.613647	711.200000
801.649414	699.600000
801.685120	705.700000
801.720886	709.600000
801.756714	698.700000
801.792419	688.000000
801.828186	683.700000
801.863892	691.200000
801.899719	683.300000
801.935486	679.600000
801.971252	685.400000
802.006958	683.800000
802.042725	676.700000
802.078430	678.300000
802.114197	672.200000
802.149963	686.200000
802.185669	675.600000
802.221436	672.000000
802.257202	674.700000
802.292908	673.700000
802.328674	679.000000
802.364441	676.400000
802.400146	668.200000
802.435913	660.700000
802.471558	660.300000
802.507324	655.600000
802.543091	643.100000
802.578796	659.300000
802.614502	656.500000
802.650269	661.800000
802.685974	644.500000
802.721741	651.600000
802.757446	652.300000
802.793152	648.500000
802.828918	658.500000
802.864624	651.900000
802.900330	646.600000
802.936035	646.100000
802.971802	646.200000
803.007446	646.000000
803.043213	636.100000
803.078857	643.200000
803.114624	625.500000
803.150330	633.500000
803.185974	622.700000
803.221741	625.500000
803.257446	628.000000
803.293152	628.200000
803.328857	621.700000
803.364563	616.800000
803.400208	610.800000
803.435974	621.900000
803.471680	618.600000
803.507324	610.300000
803.543030	617.800000
803.578735	617.700000
803.614441	605.500000
803.650146	615.300000
803.685791	603.500000
803.721497	605.400000
803.757202	590.500000
803.792847	601.700000
803.828552	590.400000
803.864258	592.700000
803.899902	590.500000
803.935608	577.800000
803.971313	583.400000
804.006958	581.000000
804.042664	578.500000
804.078308	584.600000
804.113953	576.900000
804.149658	580.600000
804.185364	568.200000
804.221008	578.700000
804.256714	573.900000
804.292297	572.900000
804.328003	565.400000
804.363708	556.800000
804.399292	558.400000
804.434998	558.600000
804.470703	552.100000
804.506287	566.700000
804.541992	562.700000
804.577637	563.500000
804.613281	549.800000
804.648926	545.200000
804.684570	552.700000
804.720215	549.500000
804.755920	548.900000
804.791565	538.700000
804.827209	549.200000
804.862854	541.900000
804.898437	534.800000
804.934143	538.600000
804.969788	538.900000
805.005371	541.100000
805.041077	541.500000
805.076721	537.100000
805.112305	529.400000
805.147949	526.000000
805.183655	527.300000
805.219238	527.400000
805.254883	526.600000
805.290466	532.500000
805.326111	527.600000
805.361755	519.900000
805.397400	523.900000
805.432983	526.600000
805.468628	524.700000
805.504211	534.200000
805.539856	528.000000
805.575500	531.800000
805.611084	520.900000
805.646729	508.500000
805.682373	517.500000
805.717957	524.900000
805.753601	527.600000
805.789246	507.800000
805.824768	519.800000
805.860413	521.000000
805.895996	506.800000
805.931641	505.100000
805.967224	513.500000
806.002869	509.100000
806.038452	517.700000
806.074036	514.100000
806.109619	498.300000
806.145264	499.500000
806.180847	496.500000
806.216431	494.000000
806.252014	498.900000
806.287659	497.100000
806.323181	506.600000
806.358826	500.800000
806.394409	482.600000
806.429993	487.500000
806.465576	500.900000
806.501160	487.700000
806.536743	476.700000
806.572327	485.500000
806.607910	483.300000
806.643494	485.500000
806.679077	476.800000
806.714661	481.900000
806.750244	482.000000
806.785828	473.700000
806.821350	472.200000
806.856934	480.200000
806.892517	475.100000
806.928101	466.300000
806.963684	467.500000
806.999268	477.000000
807.034790	459.100000
807.070374	466.500000
807.105896	459.000000
807.141479	459.700000
807.177063	464.700000
807.212585	453.500000
807.248169	456.800000
807.283752	461.800000
807.319275	453.600000
807.354858	454.500000
807.390381	449.200000
807.425903	447.500000
807.461487	445.600000
807.497070	438.900000
807.532593	442.600000
807.568115	440.800000
807.603699	437.000000
807.639221	430.400000
807.674744	432.900000
807.710266	435.600000
807.745850	443.900000
807.781372	435.700000
807.816895	432.700000
807.852417	434.700000
807.888000	436.300000
807.923523	428.100000
807.959045	436.400000
807.994629	421.800000
808.030090	417.800000
808.065613	425.500000
808.101135	427.800000
808.136658	424.900000
808.172241	423.200000
808.207764	417.400000
808.243225	413.900000
808.278809	408.500000
808.314270	418.300000
808.349792	404.700000
808.385315	407.700000
808.420837	412.200000
808.456360	417.800000
808.491882	414.800000
808.527344	410.400000
808.562866	416.600000
808.598389	408.600000
808.633850	400.900000
808.669434	398.400000
808.704895	410.300000
808.740417	412.800000
808.775940	401.000000
808.811462	397.600000
808.846924	392.100000
808.882385	389.800000
808.917847	389.100000
808.953369	390.500000
808.988892	386.400000
809.024353	396.600000
809.059875	394.500000
809.095398	387.000000
809.130798	382.500000
809.166321	384.500000
809.201843	381.800000
809.237305	381.600000
809.272766	387.300000
809.308228	375.600000
809.343750	372.800000
809.379211	376.900000
809.414734	378.800000
809.450134	386.000000
809.485657	366.200000
809.521118	374.700000
809.556580	373.300000
809.592102	371.500000
809.627502	367.900000
809.663025	366.200000
809.698486	362.700000
809.733887	359.400000
809.769409	362.600000
809.804871	351.800000
809.840271	356.900000
809.875793	357.500000
809.911194	363.500000
809.946655	353.800000
809.982178	350.000000
810.017639	353.700000
810.053040	352.800000
810.088501	348.000000
810.123901	349.900000
810.159424	344.800000
810.194885	341.700000
810.230286	344.600000
810.265747	339.600000
810.301208	338.000000
810.336609	342.000000
810.372070	334.300000
810.407532	336.700000
810.442932	338.300000
810.478394	343.900000
810.513794	338.100000
810.549255	336.700000
810.584717	332.500000
810.620117	326.800000
810.655518	337.800000
810.690979	332.400000
810.726379	332.400000
810.761841	323.300000
810.797302	325.000000
810.832642	323.800000
810.868103	335.400000
810.903564	320.100000
810.938904	330.700000
810.974365	315.900000
811.009827	324.000000
811.045166	319.300000
811.080627	312.600000
811.115967	318.800000
811.151428	328.500000
811.186829	317.300000
811.222229	317.700000
811.257629	309.900000
811.293091	317.000000
811.328430	324.000000
811.363892	317.500000
811.399292	318.800000
811.434631	313.200000
811.470093	319.100000
811.505493	311.100000
811.540833	312.000000
811.576294	316.000000
811.611694	309.300000
811.647034	306.600000
811.682434	306.000000
811.717773	311.100000
811.753235	313.500000
811.788635	306.200000
811.823975	307.400000
811.859375	316.600000
811.894775	299.200000
811.930115	305.700000
811.965515	304.300000
812.000916	308.100000
812.036255	302.300000
812.071655	305.400000
812.106995	298.800000
812.142395	300.300000
812.177795	308.400000
812.213196	305.100000
812.248474	304.600000
812.283875	295.700000
812.319214	299.000000
812.354614	300.300000
812.390015	295.900000
812.425293	296.200000
812.460693	295.100000
812.496094	292.200000
812.531433	288.800000
812.566772	288.900000
812.602173	292.100000
812.637451	293.200000
812.672852	290.000000
812.708191	294.700000
812.743530	288.400000
812.778931	281.800000
812.814270	285.100000
812.849609	290.900000
812.884949	285.700000
812.920227	278.900000
812.955627	296.400000
812.990967	286.200000
813.026306	282.000000
813.061646	270.300000
813.096985	268.600000
813.132324	266.100000
813.167664	273.800000
813.203003	276.600000
813.238281	266.700000
813.273682	267.600000
813.308960	264.200000
813.344299	266.100000
813.379639	276.900000
813.414978	266.200000
813.450256	267.600000
813.485596	270.700000
813.520874	262.400000
813.556213	267.600000
813.591614	272.100000
813.626831	262.500000
813.662170	265.200000
813.697510	277.600000
813.732788	260.500000
813.768127	265.400000
813.803467	264.300000
813.838745	261.000000
813.874084	264.100000
813.909363	263.700000
813.944641	264.600000
813.979980	253.600000
814.015320	259.900000
814.050598	255.400000
814.085876	262.600000
814.121155	259.400000
814.156494	257.600000
814.191772	259.400000
814.227051	254.300000
814.262390	255.900000
814.297668	255.900000
814.332947	256.700000
814.368225	251.100000
814.403564	255.200000
814.438782	250.900000
814.474121	252.800000
814.509338	250.400000
814.544617	259.400000
814.579956	248.600000
814.615173	258.400000
814.650513	254.000000
814.685791	247.500000
814.721008	250.400000
814.756348	252.500000
814.791626	247.500000
814.826843	247.800000
814.862122	246.000000
814.897400	242.900000
814.932678	246.900000
814.967957	247.200000
815.003235	244.200000
815.038452	239.700000
815.073730	236.500000
815.108948	249.400000
815.144226	247.500000
815.179504	250.700000
815.214722	234.700000
815.250000	235.200000
815.285278	241.500000
815.320496	236.300000
815.355774	240.000000
815.391052	241.400000
815.426270	238.600000
815.461487	236.700000
815.496765	232.800000
815.531982	228.300000
815.567261	234.200000
815.602539	243.300000
815.637695	237.900000
815.672974	240.700000
815.708191	240.600000
815.743408	240.800000
815.778687	233.300000
815.813904	243.200000
815.849121	224.500000
815.884399	227.100000
815.919556	229.100000
815.954834	227.900000
815.990051	232.400000
816.025269	234.900000
816.060486	227.300000
816.095703	226.100000
816.130920	230.900000
816.166199	224.500000
816.201416	231.900000
816.236572	235.300000
816.271851	227.000000
816.307007	233.100000
816.342224	223.500000
816.377441	226.100000
816.412659	220.000000
816.447876	229.000000
816.483093	223.700000
816.518250	226.400000
816.553467	224.800000
816.588745	227.500000
816.623901	222.600000
816.659119	214.300000
816.694275	221.100000
816.729492	216.900000
816.764709	253.300000
816.799927	213.600000
816.835083	221.500000
816.870300	213.600000
816.905457	219.600000
816.940674	222.600000
816.975830	215.900000
817.010986	212.100000
817.046204	215.800000
817.081421	213.100000
817.116577	212.800000
817.151733	220.900000
817.186951	221.700000
817.222107	217.400000
817.257324	220.600000
817.292419	218.800000
817.327637	209.700000
817.362854	214.400000
817.398010	207.500000
817.433167	212.100000
817.468323	211.100000
817.503479	212.000000
817.538635	220.000000
817.573853	216.200000
817.608948	213.000000
817.644165	209.300000
817.679321	209.000000
817.714478	209.500000
817.749634	212.900000
817.784790	226.200000
817.819946	218.600000
817.855103	202.500000
817.890198	209.700000
817.925415	203.200000
817.960571	211.300000
817.995667	212.000000
818.030823	211.000000
818.066040	206.800000
818.101135	210.300000
818.136292	209.800000
818.171448	202.300000
818.206543	209.400000
818.241699	209.700000
818.276855	208.900000
818.311951	207.900000
818.347107	204.400000
818.382263	207.800000
818.417358	215.600000
818.452515	214.500000
818.487610	216.400000
818.522766	203.900000
818.557922	215.400000
818.593018	212.100000
818.628113	209.200000
818.663269	202.900000
818.698364	209.100000
818.733521	204.400000
818.768677	208.500000
818.803711	199.600000
818.838867	201.500000
818.874023	205.200000
818.909058	202.100000
818.944214	201.300000
818.979370	207.500000
819.014404	205.200000
819.049561	201.300000
819.084595	207.700000
819.119751	197.500000
819.154846	208.700000
819.189941	202.600000
819.225037	198.300000
819.260193	193.900000
819.295227	197.500000
819.330322	192.700000
819.365479	193.700000
819.400513	225.100000
819.435608	191.700000
819.470764	189.800000
819.505798	193.500000
819.540894	196.300000
819.575989	196.800000
819.611084	202.700000
819.646179	203.900000
819.681213	199.700000
819.716309	198.300000
819.751404	197.100000
819.786438	202.500000
819.821533	194.300000
819.856628	199.500000
819.891663	202.000000
819.926758	208.200000
819.961853	203.400000
819.996887	195.300000
820.031982	200.400000
820.067017	196.700000
820.102112	224.300000
820.137207	195.400000
820.172302	212.700000
820.207275	193.900000
820.242371	193.300000
820.277405	194.500000
820.312500	195.700000
820.347534	199.300000
820.382568	200.700000
820.417664	195.800000
820.452759	194.600000
820.487732	193.400000
820.522827	195.100000
820.557861	191.900000
820.592896	193.800000
820.627930	194.300000
820.662964	193.200000
820.698059	197.500000
820.733093	194.500000
820.768127	199.800000
820.803162	195.200000
820.838196	192.600000
820.873230	197.400000
820.908264	195.800000
820.943298	192.300000
820.978333	201.300000
821.013367	197.100000
821.048401	200.200000
821.083435	202.800000
821.118469	187.900000
821.153503	201.100000
821.188477	195.200000
821.223511	189.300000
821.258484	195.100000
821.293579	196.600000
821.328613	187.600000
821.363647	195.600000
821.398621	187.900000
821.433655	192.700000
821.468628	207.500000
821.503662	193.500000
821.538696	196.500000
821.573669	190.700000
821.608704	197.600000
821.643677	192.200000
821.678650	197.900000
821.713684	203.200000
821.748718	190.900000
821.783691	194.000000
821.818726	196.300000
821.853638	197.300000
821.888672	194.100000
821.923706	194.600000
821.958618	189.800000
821.993652	192.800000
822.028687	197.700000
822.063599	199.800000
822.098633	196.700000
822.133667	189.500000
822.168579	192.000000
822.203613	196.000000
822.238586	190.700000
822.273560	195.900000
822.308533	190.700000
822.343567	190.800000
822.378479	191.600000
822.413452	190.400000
822.448425	189.600000
822.483398	198.100000
822.518372	198.100000
822.553345	191.900000
822.588318	202.200000
822.623291	191.800000
822.658203	192.100000
822.693237	194.200000
822.728210	191.000000
822.763123	194.700000
822.798096	189.600000
822.833069	195.200000
822.867981	194.600000
822.902954	194.000000
822.937927	198.700000
822.972900	204.600000
823.007874	187.000000
823.042725	197.600000
823.077698	206.300000
823.112671	190.200000
823.147583	193.000000
823.182556	195.900000
823.217529	197.900000
823.252441	190.300000
823.287415	206.900000
823.322388	194.600000
823.357239	194.100000
823.392212	200.100000
823.427185	197.100000
823.462097	189.300000
823.497009	197.600000
823.531982	190.000000
823.566895	193.600000
823.601807	188.000000
823.636719	191.500000
823.671631	197.900000
823.706604	190.200000
823.741455	196.400000
823.776428	186.200000
823.811340	198.200000
823.846252	199.800000
823.881165	203.400000
823.916138	194.700000
823.950989	202.200000
823.985901	190.200000
824.020813	194.900000
824.055725	192.000000
824.090637	190.100000
824.125610	195.200000
824.160461	195.200000
824.195374	196.000000
824.230225	200.400000
824.265198	184.500000
824.300110	190.600000
824.334961	204.400000
824.369873	184.600000
824.404785	196.000000
824.439636	201.900000
824.474548	184.100000
824.509460	183.400000
824.544312	198.600000
824.579224	196.900000
824.614075	195.600000
824.648987	192.800000
824.683899	192.300000
824.718811	191.800000
824.753662	200.100000
824.788574	198.200000
824.823364	194.900000
824.858276	190.700000
824.893188	197.800000
824.928040	200.300000
824.962952	195.500000
824.997803	199.700000
825.032654	194.300000
825.067566	197.200000
825.102417	191.400000
825.137268	193.900000
825.172119	195.600000
825.206970	190.700000
825.241882	190.600000
825.276733	189.700000
825.311646	190.200000
825.346436	189.100000
825.381348	188.800000
825.416138	193.700000
825.450989	189.300000
825.485901	184.900000
825.520691	184.800000
825.555542	186.600000
825.590454	193.900000
825.625244	185.400000
825.660095	199.800000
825.695007	196.400000
825.729797	192.500000
825.764648	188.400000
825.799438	193.800000
825.834290	193.200000
825.869202	187.100000
825.903992	193.900000
825.938843	190.200000
825.973694	188.000000
826.008484	205.500000
826.043335	188.000000
826.078186	185.200000
826.112976	199.800000
826.147827	198.800000
826.182678	202.200000
826.217468	187.000000
826.252319	196.600000
826.287109	189.700000
826.321899	199.300000
826.356750	192.600000
826.391541	186.800000
826.426392	200.300000
826.461182	191.900000
826.495972	187.300000
826.530823	182.900000
826.565613	193.600000
826.600403	187.900000
826.635254	196.400000
826.670044	184.900000
826.704834	186.400000
826.739685	187.400000
826.774475	195.200000
826.809265	192.300000
826.844055	190.700000
826.878906	199.200000
826.913635	193.600000
826.948425	195.000000
826.983215	193.700000
827.018005	198.800000
827.052856	190.700000
827.087585	194.800000
827.122375	184.500000
827.157227	192.800000
827.191956	205.400000
827.226746	187.800000
827.261536	195.900000
827.296265	185.000000
827.331116	190.700000
827.365906	197.000000
827.400635	188.700000
827.435425	185.200000
827.470215	198.200000
827.504944	191.300000
827.539734	197.400000
827.574463	194.000000
827.609253	199.600000
827.644043	192.800000
827.678772	197.600000
827.713562	190.900000
827.748352	190.400000
827.783081	190.500000
827.817871	193.300000
827.852600	189.100000
827.887329	192.900000
827.922119	182.300000
827.956848	195.400000
827.991638	207.100000
828.026367	194.100000
828.061157	194.300000
828.095886	191.400000
828.130615	208.600000
828.165344	181.200000
828.200073	193.400000
828.234863	190.400000
828.269592	192.000000
828.304321	196.700000
828.339111	194.900000
828.373779	187.900000
828.408569	198.600000
828.443298	196.100000
828.477966	190.200000
828.512756	192.800000
828.547424	187.600000
828.582214	189.500000
828.616943	190.500000
828.651672	190.700000
828.686340	196.600000
828.721130	189.200000
828.755798	189.500000
828.790527	192.700000
828.825256	193.300000
828.859924	192.900000
828.894714	199.100000
828.929443	201.100000
828.964111	189.400000
828.998840	195.400000
829.033569	189.800000
829.068237	190.600000
829.102966	189.300000
829.137634	195.800000
829.172363	193.200000
829.207092	194.800000
829.241821	189.000000
829.276489	185.500000
829.311157	193.400000
829.345825	191.500000
829.380554	197.700000
829.415283	187.700000
829.449951	184.700000
829.484619	201.100000
829.519348	199.100000
829.554016	193.400000
829.588745	191.500000
829.623413	188.400000
829.658081	203.600000
829.692749	186.200000
829.727417	197.700000
829.762146	194.900000
829.796814	187.900000
829.831482	190.700000
829.866150	191.200000
829.900879	190.100000
829.935486	195.200000
829.970154	190.300000
830.004883	203.100000
830.039490	193.200000
830.074219	188.600000
830.108887	194.500000
830.143494	189.700000
830.178223	185.500000
830.212891	190.800000
830.247498	190.200000
830.282166	200.300000
830.316772	198.600000
830.351501	189.300000
830.386169	191.000000
830.420776	189.600000
830.455444	192.600000
830.490112	189.700000
830.524719	182.900000
830.559387	195.400000
830.594055	195.100000
830.628662	192.600000
830.663330	192.600000
830.697998	201.700000
830.732605	191.900000
830.767273	194.000000
830.801941	192.300000
830.836487	202.300000
830.871155	194.700000
830.905762	195.300000
830.940430	186.100000
830.975098	190.500000
831.009644	191.700000
831.044312	201.000000
831.078979	194.100000
831.113525	183.600000
831.148193	192.800000
831.182861	192.100000
831.217407	195.200000
831.252075	210.200000
831.286621	188.500000
831.321289	189.400000
831.355896	191.700000
831.390564	201.100000
831.425110	191.700000
831.459778	199.700000
831.494324	205.100000
831.528931	195.000000
831.563599	195.700000
831.598145	186.700000
831.632751	190.600000
831.667419	191.300000
831.701965	193.400000
831.736572	197.300000
831.771179	185.500000
831.805786	189.900000
831.840393	197.300000
831.874939	183.800000
831.909546	197.200000
831.944153	183.000000
831.978760	190.700000
832.013306	187.100000
832.047913	199.800000
832.082458	202.000000
832.117065	188.200000
832.151672	201.700000
832.186218	194.200000
832.220825	195.500000
832.255432	183.700000
832.289978	187.600000
832.324585	194.800000
832.359192	194.200000
832.393677	191.900000
832.428284	193.900000
832.462830	191.900000
832.497437	190.500000
832.531982	195.600000
832.566589	190.500000
832.601135	193.800000
832.635681	184.000000
832.670227	192.700000
832.704773	200.000000
832.739380	194.400000
832.773926	190.800000
832.808472	189.100000
832.843079	191.900000
832.877563	195.700000
832.912170	189.900000
832.946716	185.900000
832.981201	198.100000
833.015808	196.600000
833.050293	191.700000
833.084839	188.800000
833.119446	190.500000
833.153992	195.800000
833.188477	191.800000
833.223022	188.000000
833.257568	193.300000
833.292114	199.800000
833.326660	202.100000
833.361145	188.900000
833.395691	185.400000
833.430237	191.400000
833.464783	196.100000
833.499329	188.400000
833.533875	187.000000
833.568359	195.900000
833.602905	197.100000
833.637390	196.900000
833.671875	188.600000
833.706421	191.600000
833.740906	188.900000
833.775452	182.500000
833.809998	189.700000
833.844482	199.600000
833.879028	191.400000
833.913513	189.300000
833.947998	195.100000
833.982544	187.900000
834.017090	190.400000
834.051514	181.200000
834.086060	196.000000
834.120544	191.900000
834.155029	194.300000
834.189575	189.100000
834.223999	195.300000
834.258545	192.500000
834.293030	193.900000
834.327515	191.800000
834.362000	189.100000
834.396545	196.400000
834.430969	192.500000
834.465454	196.500000
834.500000	186.000000
834.534424	196.200000
834.568970	183.100000
834.603455	183.300000
834.637878	190.000000
834.672363	192.200000
834.706909	194.000000
834.741333	191.600000
834.775818	184.900000
834.810242	187.700000
834.844727	194.100000
834.879211	190.500000
834.913635	193.300000
834.948181	194.600000
834.982666	193.900000
835.017090	189.800000
835.051575	194.500000
835.086060	189.100000
835.120483	194.800000
835.154907	197.100000
835.189331	191.600000
835.223816	195.100000
835.258301	186.600000
835.292786	186.000000
835.327209	197.400000
835.361694	188.300000
835.396057	188.800000
835.430542	196.000000
835.465027	192.500000
835.499390	187.000000
835.533875	210.800000
835.568359	189.800000
835.602722	183.800000
835.637207	193.600000
835.671692	185.000000
835.706055	208.300000
835.740540	194.600000
835.774902	195.100000
835.809387	192.900000
835.843811	186.700000
835.878235	200.100000
835.912659	185.900000
835.947083	188.900000
835.981506	193.900000
836.015930	185.000000
836.050354	197.700000
836.084778	200.600000
836.119202	198.400000
836.153625	204.100000
836.187988	188.900000
836.222473	188.500000
836.256897	193.500000
836.291260	190.400000
836.325684	194.600000
836.360046	189.000000
836.394470	190.400000
836.428894	199.000000
836.463318	190.100000
836.497681	196.500000
836.532104	199.300000
836.566467	193.300000
836.600891	190.700000
836.635315	197.100000
836.669678	195.600000
836.704102	195.200000
836.738525	193.400000
836.772888	182.500000
836.807251	189.000000
836.841675	193.000000
836.876038	185.700000
836.910461	187.500000
836.944763	196.400000
836.979187	188.100000
837.013611	198.400000
837.047974	185.900000
837.082336	203.400000
837.116699	196.000000
837.151062	191.700000
837.185486	186.600000
837.219849	190.600000
837.254211	196.800000
837.288574	192.400000
837.322937	188.700000
837.357300	180.200000
837.391663	204.800000
837.426086	198.100000
837.460388	193.700000
837.494751	196.700000
837.529114	191.300000
837.563477	198.400000
837.597839	194.400000
837.632141	192.500000
837.666565	189.400000
837.700928	193.900000
837.735229	195.900000
837.769592	193.900000
837.803955	198.200000
837.838257	190.600000
837.872620	190.000000
837.906982	200.000000
837.941284	194.200000
837.975647	193.100000
838.010010	200.400000
838.044312	189.500000
838.078674	189.700000
838.112976	192.600000
838.147339	195.100000
838.181702	191.900000
838.216003	202.000000
838.250366	192.600000
838.284668	195.000000
838.318970	183.600000
838.353333	191.500000
838.387634	191.300000
838.421936	193.100000
838.456299	193.300000
838.490601	200.900000
838.524902	195.600000
838.559265	197.000000
838.593567	196.100000
838.627869	186.300000
838.662170	196.000000
838.696472	184.500000
838.730774	189.400000
838.765137	197.100000
838.799377	178.300000
838.833740	192.700000
838.868042	199.800000
838.902283	184.800000
838.936646	199.100000
838.970947	193.700000
839.005188	197.700000
839.039551	185.100000
839.073792	201.400000
839.108093	189.700000
839.142395	203.100000
839.176697	185.800000
839.210937	195.600000
839.245300	203.500000
839.279541	187.200000
839.313843	191.200000
839.348145	195.900000
839.382385	197.300000
839.416687	198.800000
839.450989	195.600000
839.485229	192.000000
839.519531	187.900000
839.553833	199.400000
839.588013	192.200000
839.622314	194.900000
839.656555	196.200000
839.690857	192.200000
839.725159	185.800000
839.759460	191.700000
839.793640	189.200000
839.827942	192.100000
839.862183	187.900000
839.896423	194.700000
839.930725	201.200000
839.964966	199.500000
839.999207	200.300000
840.033508	200.500000
840.067688	189.700000
840.101990	201.400000
840.136230	191.900000
840.170471	199.500000
840.204712	187.400000
840.238953	187.900000
840.273193	194.300000
840.307434	195.500000
840.341736	188.800000
840.375916	186.400000
840.410217	191.100000
840.444397	196.700000
840.478638	197.700000
840.512878	199.300000
840.547119	193.700000
840.581360	194.300000
840.615601	202.800000
840.649780	200.800000
840.684021	193.100000
840.718262	201.800000
840.752441	200.000000
840.786682	194.300000
840.820862	195.900000
840.855103	200.800000
840.889343	193.900000
840.923584	197.400000
840.957764	197.000000
840.992004	195.800000
841.026184	206.700000
841.060425	190.600000
841.094666	190.000000
841.128845	196.100000
841.163025	194.800000
841.197266	194.700000
841.231445	195.200000
841.265686	194.100000
841.299866	188.900000
841.334045	200.900000
841.368286	192.600000
841.402405	199.300000
841.436646	198.600000
841.470825	189.800000
841.505005	192.600000
841.539185	188.000000
841.573425	190.300000
841.607544	193.000000
841.641785	192.700000
841.675964	187.100000
841.710144	194.500000
841.744324	189.100000
841.778503	193.700000
841.812683	188.300000
841.846863	204.200000
841.881042	199.000000
841.915222	191.000000
841.949402	209.500000
841.983521	183.000000
842.017700	190.700000
842.051880	194.800000
842.086060	196.300000
842.120239	193.200000
842.154419	192.400000
842.188538	193.400000
842.222717	190.000000
842.256897	203.200000
842.291016	192.100000
842.325195	194.700000
842.359375	203.900000
842.393494	201.400000
842.427673	194.300000
842.461853	196.200000
842.495911	202.100000
842.530090	195.400000
842.564209	192.600000
842.598389	194.100000
842.632568	196.600000
842.666626	197.800000
842.700806	190.200000
842.734985	191.200000
842.769043	197.700000
842.803223	192.200000
842.837402	193.100000
842.871460	190.900000
842.905640	202.400000
842.939697	189.000000
842.973877	195.600000
843.007996	198.900000
843.042175	202.600000
843.076233	190.200000
843.110413	195.500000
843.144470	200.700000
843.178589	198.200000
843.212769	188.400000
843.246826	198.400000
843.280945	189.900000
843.315125	191.400000
843.349182	188.700000
843.383301	200.100000
843.417419	204.800000
843.451538	193.500000
843.485657	191.800000
843.519714	192.000000
843.553833	195.000000
843.587952	191.300000
843.622070	189.800000
843.656128	197.500000
843.690247	191.900000
843.724304	192.200000
843.758423	195.500000
843.792542	191.700000
843.826599	194.200000
843.860718	191.200000
843.894836	186.300000
843.928894	194.000000
843.963013	196.300000
843.997070	188.400000
844.031128	187.800000
844.065247	198.000000
844.099304	199.100000
844.133362	194.000000
844.167480	197.800000
844.201599	199.900000
844.235596	196.900000
844.269714	193.900000
844.303711	196.000000
844.337830	186.100000
844.371948	198.500000
844.405945	193.200000
844.440063	189.000000
844.474121	206.500000
844.508118	194.300000
844.542236	192.200000
844.576294	192.700000
844.610352	188.500000
844.644409	194.000000
844.678406	183.200000
844.712524	198.300000
844.746582	200.000000
844.780640	192.800000
844.814636	193.100000
844.848755	204.800000
844.882751	192.000000
844.916809	198.400000
844.950867	194.900000
844.984863	201.200000
845.018921	193.000000
845.052979	190.000000
845.086975	194.200000
845.121033	188.400000
845.155090	189.700000
845.189087	200.700000
845.223145	191.900000
845.257141	192.400000
845.291199	197.100000
845.325256	201.100000
845.359253	195.000000
845.393250	203.900000
845.427307	192.600000
845.461304	195.700000
845.495361	194.100000
845.529358	205.000000
845.563354	193.300000
845.597412	189.700000
845.631409	202.000000
845.665405	201.500000
845.699463	200.200000
845.733459	192.500000
845.767456	200.900000
845.801453	191.700000
845.835449	203.400000
845.869446	198.600000
845.903503	199.800000
845.937439	189.800000
845.971497	200.900000
846.005493	187.800000
846.039429	198.400000
846.073486	203.100000
846.107483	193.900000
846.141418	192.800000
846.175476	193.300000
846.209473	199.800000
846.243408	190.000000
846.277405	194.400000
846.311401	190.800000
846.345337	194.500000
846.379395	200.500000
846.413330	189.200000
846.447327	202.400000
846.481323	186.800000
846.515259	190.800000
846.549255	194.700000
846.583252	196.000000
846.617187	188.600000
846.651184	195.300000
846.685120	191.000000
846.719055	200.800000
846.753052	199.200000
846.786987	199.700000
846.820984	187.200000
846.854980	201.200000
846.888916	189.100000
846.922852	195.500000
846.956848	203.900000
846.990723	188.200000
847.024719	194.600000
847.058716	192.800000
847.092590	202.400000
847.126587	194.500000
847.160522	192.300000
847.194458	198.000000
847.228455	191.400000
847.262390	188.700000
847.296265	191.900000
847.330261	201.100000
847.364136	193.100000
847.398132	191.100000
847.432068	196.200000
847.466003	191.400000
847.499939	195.100000
847.533875	195.400000
847.567749	193.500000
847.601746	191.200000
847.635681	198.500000
847.669556	185.100000
847.703491	199.800000
847.737427	210.000000
847.771301	188.600000
847.805237	195.200000
847.839233	195.000000
847.873108	193.900000
847.907043	193.100000
847.940918	199.000000
847.974854	195.600000
848.008789	198.200000
848.042664	194.000000
848.076538	196.900000
848.110474	193.300000
848.144348	196.200000
848.178284	187.700000
848.212219	193.800000
848.246094	192.200000
848.279968	195.000000
848.313904	198.100000
848.347778	194.300000
848.381653	192.700000
848.415588	189.300000
848.449463	192.300000
848.483337	196.800000
848.517212	199.700000
848.551086	195.800000
848.585022	189.900000
848.618835	201.600000
848.652771	190.600000
848.686646	189.300000
848.720520	201.800000
848.754395	193.200000
848.788330	199.200000
848.822144	198.700000
848.856018	192.500000
848.889954	204.800000
848.923767	187.800000
848.957642	192.600000
848.991577	198.000000
849.025391	192.700000
849.059265	193.100000
849.093079	191.200000
849.126953	186.900000
849.160828	200.400000
849.194641	193.800000
849.228577	192.400000
849.262451	191.300000
849.296265	192.900000
849.330139	188.600000
849.364014	196.000000
849.397827	197.200000
849.431702	194.400000
849.465515	198.400000
849.499329	186.400000
849.533203	189.200000
849.567078	183.900000
849.600891	197.000000
849.634766	192.700000
849.668518	197.900000
849.702393	193.400000
849.736267	186.900000
849.770020	205.500000
849.803894	197.500000
849.837769	194.100000
849.871521	194.100000
849.905396	199.900000
849.939270	188.400000
849.973022	191.700000
850.006897	198.400000
850.040710	196.600000
850.074524	196.900000
850.108337	192.800000
850.142151	198.400000
850.175964	199.500000
850.209778	194.900000
850.243530	181.100000
850.277405	201.000000
850.311218	194.700000
850.344971	191.000000
850.378845	201.400000
850.412659	191.700000
850.446411	195.500000
850.480225	194.800000
850.514038	200.700000
850.547791	197.100000
850.581665	193.400000
850.615417	191.600000
850.649231	195.000000
850.683044	194.700000
850.716858	193.000000
850.750610	194.300000
850.784424	198.800000
850.818176	192.400000
850.851929	190.700000
850.885742	192.100000
850.919495	193.600000
850.953308	202.000000
850.987122	202.500000
851.020874	189.500000
851.054626	185.000000
851.088440	197.700000
851.122192	197.800000
851.156006	195.500000
851.189697	193.200000
851.223511	188.500000
851.257263	197.300000
851.291077	197.500000
851.324829	191.900000
851.358582	191.700000
851.392334	191.500000
851.426086	192.600000
851.459900	201.000000
851.493591	192.600000
851.527344	194.400000
851.561157	192.900000
851.594849	196.300000
851.628662	196.100000
851.662415	201.800000
851.696106	196.800000
851.729858	199.200000
851.763611	188.600000
851.797363	195.100000
851.831116	190.200000
851.864868	196.600000
851.898560	197.000000
851.932312	192.300000
851.966064	195.900000
851.999817	194.000000
852.033569	193.600000
852.067261	198.700000
852.101013	188.700000
852.134766	194.100000
852.168457	184.400000
852.202209	199.100000
852.235901	189.500000
852.269592	197.600000
852.303345	202.100000
852.337036	197.600000
852.370789	193.700000
852.404541	199.800000
852.438171	190.600000
852.471924	193.500000
852.505676	187.900000
852.539307	195.900000
852.573059	191.000000
852.606812	193.000000
852.640442	192.300000
852.674194	200.100000
852.707886	205.700000
852.741577	202.200000
852.775269	189.600000
852.809021	195.800000
852.842651	197.800000
852.876404	199.300000
852.910034	195.000000
852.943787	199.000000
852.977478	196.600000
853.011108	189.900000
853.044861	191.600000
853.078552	201.700000
853.112183	196.500000
853.145874	194.100000
853.179626	185.200000
853.213257	196.300000
853.246948	192.400000
853.280640	201.900000
853.314270	194.100000
853.347961	201.900000
853.381653	198.200000
853.415283	198.500000
853.448975	192.900000
853.482605	195.700000
853.516296	193.900000
853.549988	189.300000
853.583618	195.600000
853.617310	196.400000
853.651001	196.800000
853.684631	188.200000
853.718323	193.500000
853.751953	201.100000
853.785583	185.200000
853.819275	200.300000
853.852966	196.700000
853.886536	185.400000
853.920227	190.000000
853.953918	199.100000
853.987488	192.000000
854.021179	197.800000
854.054749	201.300000
854.088440	196.300000
854.122131	190.200000
854.155701	197.900000
854.189331	190.300000
854.223022	197.200000
854.256592	196.400000
854.290283	189.800000
854.323914	198.300000
854.357483	196.100000
854.391174	197.500000
854.424744	203.800000
854.458374	196.200000
854.492065	206.000000
854.525696	192.100000
854.559265	201.000000
854.592896	204.400000
854.626465	194.600000
854.660095	195.200000
854.693787	195.700000
854.727356	192.200000
854.760986	196.600000
854.794617	195.300000
854.828186	193.200000
854.861816	198.000000
854.895447	194.700000
854.929016	195.200000
854.962585	198.500000
854.996155	202.000000
855.029785	196.100000
855.063416	197.800000
855.097046	199.400000
855.130615	189.000000
855.164185	201.700000
855.197754	194.700000
855.231384	198.800000
855.264954	192.600000
855.298523	199.400000
855.332153	195.700000
855.365723	205.200000
855.399292	191.000000
855.432922	194.200000
855.466492	196.400000
855.500061	190.800000
855.533630	190.800000
855.567200	199.900000
855.600769	199.400000
855.634338	200.100000
855.667969	196.000000
855.701477	191.700000
855.735046	189.700000
855.768616	187.400000
855.802185	195.800000
855.835754	209.800000
855.869324	185.000000
855.902893	193.300000
855.936401	200.400000
855.969971	195.500000
856.003540	187.700000
856.037109	199.400000
856.070618	193.600000
856.104187	188.200000
856.137695	192.500000
856.171265	184.200000
856.204834	194.000000
856.238403	198.900000
856.271912	191.800000
856.305481	196.300000
856.338989	187.200000
856.372559	196.700000
856.406128	196.600000
856.439636	199.500000
856.473145	193.000000
856.506653	202.200000
856.540222	194.700000
856.573792	202.000000
856.607300	198.100000
856.640808	187.600000
856.674377	197.000000
856.707825	223.100000
856.741394	200.300000
856.774902	190.000000
856.808472	186.300000
856.841980	196.400000
856.875488	203.700000
856.908936	187.600000
856.942505	194.600000
856.976013	193.500000
857.009521	190.000000
857.043030	193.400000
857.076477	193.700000
857.110046	198.300000
857.143555	196.800000
857.177063	199.900000
857.210571	193.200000
857.244080	187.600000
857.277527	199.200000
857.311035	195.100000
857.344543	199.100000
857.378052	192.700000
857.411499	199.700000
857.445068	204.000000
857.478516	193.800000
857.512024	188.300000
857.545532	193.200000
857.578979	197.600000
857.612427	194.200000
857.645874	191.400000
857.679382	195.100000
857.712891	197.400000
857.746399	194.900000
857.779846	199.600000
857.813354	198.900000
857.846741	193.200000
857.880249	189.700000
857.913757	194.700000
857.947266	196.300000
857.980652	197.500000
858.014160	191.400000
858.047546	193.000000
858.081055	194.000000
858.114563	202.900000
858.147949	188.400000
858.181458	198.400000
858.214844	192.600000
858.248352	186.500000
858.281799	200.100000
858.315308	208.500000
858.348694	198.000000
858.382141	205.000000
858.415588	198.000000
858.449036	200.900000
858.482483	196.000000
858.515930	190.800000
858.549377	193.900000
858.582825	202.400000
858.616211	196.500000
858.649658	196.800000
858.683105	189.700000
858.716553	192.700000
858.750000	187.500000
858.783386	192.000000
858.816833	186.100000
858.850281	196.800000
858.883728	196.300000
858.917114	194.000000
858.950562	203.700000
858.983948	204.000000
859.017395	197.600000
859.050781	193.700000
859.084167	190.700000
859.117615	187.700000
859.151062	196.200000
859.184448	190.500000
859.217834	191.400000
859.251282	192.900000
859.284668	190.600000
859.318054	184.700000
859.351440	191.500000
859.384888	202.500000
859.418274	185.700000
859.451721	185.600000
859.485046	198.000000
859.518494	195.500000
859.551819	190.100000
859.585266	197.500000
859.618652	196.600000
859.652039	189.100000
859.685425	189.900000
859.718811	187.600000
859.752197	182.800000
859.785583	201.900000
859.819031	204.100000
859.852356	198.100000
859.885742	192.000000
859.919067	194.100000
859.952454	191.100000
859.985901	197.700000
860.019287	192.000000
860.052612	0.000000
860.085999	0.000000
860.119324	0.000000
860.152710	0.000000
860.186096	0.000000
860.219421	0.000000
860.252808	0.000000
860.286133	0.000000
860.319519	0.000000
860.352905	0.000000
860.386292	0.000000
860.419617	0.000000
860.452942	0.000000
860.486267	0.000000
860.519653	0.000000
860.553040	0.000000
860.586365	0.000000
860.619690	0.000000
860.653076	0.000000
860.686340	0.000000
860.719727	0.000000
860.753113	0.000000
860.786377	0.000000
860.819763	0.000000
860.853027	0.000000
860.886414	0.000000
860.919739	0.000000
860.953125	0.000000
860.986389	0.000000
861.019714	0.000000
861.053040	0.000000
861.086365	0.000000
861.119690	0.000000
861.153076	0.000000
861.186340	0.000000
861.219666	0.000000
861.252930	0.000000
861.286316	0.000000
861.319641	0.000000
861.352905	0.000000
861.386230	0.000000
861.419495	0.000000
861.452820	0.000000
861.486145	0.000000
861.519470	0.000000
861.552734	0.000000
861.586060	0.000000
861.619324	0.000000
861.652649	0.000000
861.685974	0.000000
861.719238	0.000000
861.752563	0.000000
861.785828	0.000000
861.819092	0.000000
861.852417	0.000000
861.885742	0.000000
861.918945	0.000000
861.952271	0.000000
861.985535	0.000000
862.018799	0.000000
862.052124	0.000000
862.085449	0.000000
862.118652	0.000000
862.151978	0.000000
862.185181	0.000000
862.218506	0.000000
862.251770	0.000000
862.285034	0.000000
862.318298	0.000000
862.351562	0.000000
862.384827	0.000000
862.418091	0.000000
862.451355	0.000000
862.484619	0.000000
862.517883	0.000000
862.551086	0.000000
862.584351	0.000000
862.617676	0.000000
862.650940	0.000000
862.684143	0.000000
862.717407	0.000000
862.750610	0.000000
862.783875	0.000000
862.817139	0.000000
862.850342	0.000000
862.883606	0.000000
862.916870	0.000000
862.950073	0.000000
862.983337	0.000000
863.016602	0.000000
863.049805	0.000000
863.083069	0.000000
863.116211	0.000000
863.149475	0.000000
863.182739	0.000000
863.216003	0.000000
863.249146	0.000000
863.282410	0.000000
863.315613	0.000000
863.348816	0.000000
863.382080	0.000000
863.415222	0.000000
863.448486	0.000000
863.481689	0.000000
863.514893	0.000000
863.548157	0.000000
863.581360	0.000000
863.614502	0.000000
863.647766	0.000000
863.680908	0.000000
863.714172	0.000000
863.747375	0.000000
863.780579	0.000000
863.813721	0.000000
863.846985	0.000000
863.880127	0.000000
863.913330	0.000000
863.946533	0.000000
863.979675	0.000000
864.012939	0.000000
