Model Number: SPM-001-M   
Serial Number: 10090201
Firmware Version: 004.17.6
Exposure Time: 500000.000000us
Data Taken on: 10-03-2021 12:06:42.985
Wavelength	Amplitude
733.770752	0.000000
733.808716	0.000000
733.846619	0.000000
733.884583	0.000000
733.922546	0.000000
733.960449	0.000000
733.998413	0.000000
734.036377	0.000000
734.074219	0.000000
734.112183	0.000000
734.150085	0.000000
734.188049	0.000000
734.226013	0.000000
734.263916	0.000000
734.301819	0.000000
734.339783	0.000000
734.377686	0.000000
734.415588	0.000000
734.453552	0.000000
734.491455	0.000000
734.529419	0.000000
734.567322	0.000000
734.605225	0.000000
734.643127	0.000000
734.681091	0.000000
734.718994	0.000000
734.756897	0.000000
734.794800	0.000000
734.832703	0.000000
734.870667	0.000000
734.908508	0.000000
734.946472	0.000000
734.984375	0.000000
735.022278	0.000000
735.060181	0.000000
735.098083	0.000000
735.135986	0.000000
735.173889	0.000000
735.211792	0.000000
735.249695	0.000000
735.287598	0.000000
735.325439	0.000000
735.363403	0.000000
735.401306	0.000000
735.439148	0.000000
735.477051	0.000000
735.515015	0.000000
735.552856	0.000000
735.590759	0.000000
735.628662	0.000000
735.666504	0.000000
735.704407	0.000000
735.742310	0.000000
735.780212	0.000000
735.818115	0.000000
735.856018	0.000000
735.893860	0.000000
735.931763	0.000000
735.969604	0.000000
736.007507	0.000000
736.045410	0.000000
736.083252	0.000000
736.121094	0.000000
736.158997	0.000000
736.196838	0.000000
736.234741	0.000000
736.272644	0.000000
736.310486	0.000000
736.348389	0.000000
736.386230	0.000000
736.424072	0.000000
736.461975	0.000000
736.499878	0.000000
736.537720	0.000000
736.575562	0.000000
736.613403	0.000000
736.651306	0.000000
736.689148	0.000000
736.726990	0.000000
736.764893	0.000000
736.802734	0.000000
736.840576	0.000000
736.878418	0.000000
736.916321	0.000000
736.954102	0.000000
736.992004	0.000000
737.029846	0.000000
737.067688	0.000000
737.105530	0.000000
737.143372	0.000000
737.181213	0.000000
737.219116	0.000000
737.256897	0.000000
737.294739	0.000000
737.332642	0.000000
737.370422	0.000000
737.408325	0.000000
737.446167	0.000000
737.483948	0.000000
737.521790	0.000000
737.559692	0.000000
737.597473	0.000000
737.635315	0.000000
737.673157	0.000000
737.710999	0.000000
737.748840	0.000000
737.786621	0.000000
737.824463	0.000000
737.862305	0.000000
737.900085	0.000000
737.937927	0.000000
737.975769	0.000000
738.013550	0.000000
738.051392	0.000000
738.089233	0.000000
738.127014	0.000000
738.164856	0.000000
738.202698	0.000000
738.240479	0.000000
738.278320	0.000000
738.316162	0.000000
738.353943	0.000000
738.391785	0.000000
738.429565	0.000000
738.467407	0.000000
738.505188	0.000000
738.542969	0.000000
738.580811	0.000000
738.618652	0.000000
738.656372	0.000000
738.694214	0.000000
738.732056	0.000000
738.769836	0.000000
738.807617	0.000000
738.845459	0.000000
738.883240	0.000000
738.921021	0.000000
738.958862	0.000000
738.996582	0.000000
739.034424	0.000000
739.072205	0.000000
739.109985	0.000000
739.147827	0.000000
739.185547	0.000000
739.223389	0.000000
739.261169	0.000000
739.298889	0.000000
739.336731	0.000000
739.374512	0.000000
739.412292	0.000000
739.450073	0.000000
739.487854	0.000000
739.525635	0.000000
739.563416	0.000000
739.601135	0.000000
739.638977	0.000000
739.676758	0.000000
739.714478	0.000000
739.752258	0.000000
739.790100	0.000000
739.827820	0.000000
739.865601	0.000000
739.903381	0.000000
739.941101	0.000000
739.978882	196.500000
740.016724	192.600000
740.054443	199.100000
740.092224	190.200000
740.130005	190.000000
740.167725	190.700000
740.205505	188.700000
740.243225	199.900000
740.281006	194.400000
740.318787	186.200000
740.356506	198.100000
740.394287	197.300000
740.432068	189.000000
740.469727	186.600000
740.507507	197.700000
740.545288	192.900000
740.583008	195.600000
740.620789	194.200000
740.658569	185.500000
740.696228	192.900000
740.734009	198.100000
740.771790	181.200000
740.809509	197.700000
740.847229	189.200000
740.884949	191.500000
740.922729	187.000000
740.960449	189.900000
740.998169	188.400000
741.035950	188.200000
741.073669	194.900000
741.111389	193.300000
741.149170	203.000000
741.186890	203.300000
741.224609	197.000000
741.262329	193.200000
741.300110	202.800000
741.337769	186.800000
741.375549	187.900000
741.413208	194.500000
741.450989	189.300000
741.488708	190.200000
741.526367	191.000000
741.564148	195.600000
741.601868	199.500000
741.639526	193.100000
741.677307	195.000000
741.715027	194.200000
741.752686	189.300000
741.790466	201.500000
741.828186	197.200000
741.865845	190.100000
741.903564	184.700000
741.941345	193.900000
741.979004	189.300000
742.016724	196.300000
742.054382	194.900000
742.092102	199.700000
742.129822	185.800000
742.167480	191.200000
742.205200	190.900000
742.242920	196.000000
742.280640	198.100000
742.318359	188.700000
742.356079	191.500000
742.393738	197.300000
742.431396	191.300000
742.469116	196.500000
742.506775	182.000000
742.544495	195.900000
742.582214	197.800000
742.619873	193.000000
742.657593	200.500000
742.695251	196.900000
742.732971	192.800000
742.770630	195.700000
742.808289	192.200000
742.846008	193.500000
742.883728	196.400000
742.921326	194.100000
742.959045	190.100000
742.996765	193.400000
743.034424	191.700000
743.072083	190.800000
743.109802	192.700000
743.147400	186.300000
743.185120	194.900000
743.222839	192.800000
743.260437	197.700000
743.298157	196.500000
743.335754	186.000000
743.373474	190.700000
743.411133	184.000000
743.448792	194.200000
743.486450	193.800000
743.524170	185.400000
743.561768	193.400000
743.599487	202.000000
743.637146	205.300000
743.674744	191.000000
743.712463	191.000000
743.750122	193.700000
743.787720	195.000000
743.825439	190.100000
743.863037	190.900000
743.900696	192.600000
743.938416	217.500000
743.976013	192.200000
744.013672	202.000000
744.051331	198.200000
744.088928	202.400000
744.126587	199.400000
744.164307	195.300000
744.201904	189.400000
744.239563	196.500000
744.277222	195.300000
744.314819	193.800000
744.352478	198.400000
744.390137	194.800000
744.427734	194.600000
744.465393	191.400000
744.502991	188.000000
744.540649	196.700000
744.578308	193.400000
744.615906	187.700000
744.653564	181.900000
744.691223	198.500000
744.728821	185.400000
744.766418	192.600000
744.804077	195.200000
744.841675	191.800000
744.879333	186.000000
744.916992	191.600000
744.954529	190.100000
744.992187	199.900000
745.029785	191.600000
745.067444	190.100000
745.105042	193.700000
745.142639	195.600000
745.180298	202.800000
745.217896	191.500000
745.255493	192.700000
745.293152	196.600000
745.330750	197.600000
745.368347	201.200000
745.405945	197.200000
745.443604	194.700000
745.481140	196.700000
745.518799	192.300000
745.556396	198.000000
745.593994	198.400000
745.631592	192.600000
745.669189	188.800000
745.706787	195.300000
745.744385	190.100000
745.781982	196.300000
745.819580	190.300000
745.857178	192.300000
745.894775	193.500000
745.932373	196.200000
745.969971	193.000000
746.007568	185.600000
746.045166	202.700000
746.082764	199.600000
746.120300	196.100000
746.157898	198.400000
746.195557	192.800000
746.233093	187.600000
746.270691	195.700000
746.308228	195.600000
746.345825	198.800000
746.383423	197.900000
746.420959	188.100000
746.458557	191.600000
746.496155	190.700000
746.533691	193.300000
746.571289	188.600000
746.608887	194.900000
746.646423	194.600000
746.684021	194.900000
746.721619	190.800000
746.759155	194.000000
746.796753	184.700000
746.834351	186.000000
746.871826	188.300000
746.909424	200.700000
746.946960	196.300000
746.984558	192.400000
747.022156	190.500000
747.059631	200.700000
747.097229	194.100000
747.134827	192.100000
747.172363	201.200000
747.209900	195.100000
747.247498	189.500000
747.285034	200.900000
747.322571	201.900000
747.360168	191.800000
747.397644	185.900000
747.435242	197.500000
747.472778	200.400000
747.510315	190.700000
747.547913	192.300000
747.585388	201.100000
747.622925	193.500000
747.660522	183.300000
747.697998	190.900000
747.735596	193.100000
747.773132	191.900000
747.810669	193.500000
747.848206	196.400000
747.885742	189.000000
747.923279	188.600000
747.960815	194.800000
747.998352	194.600000
748.035889	196.100000
748.073425	198.600000
748.110901	190.500000
748.148437	190.700000
748.185974	193.600000
748.223511	205.300000
748.261047	194.100000
748.298584	194.300000
748.336060	192.300000
748.373596	196.900000
748.411133	211.600000
748.448608	189.800000
748.486145	197.400000
748.523682	200.800000
748.561218	198.600000
748.598755	194.700000
748.636292	196.600000
748.673706	190.800000
748.711243	201.300000
748.748718	195.600000
748.786255	193.100000
748.823792	194.500000
748.861267	189.400000
748.898804	196.000000
748.936340	196.300000
748.973816	191.400000
749.011292	198.900000
749.048828	194.700000
749.086304	197.400000
749.123840	205.900000
749.161316	188.800000
749.198792	203.700000
749.236328	200.800000
749.273743	194.500000
749.311279	192.800000
749.348816	197.500000
749.386230	193.900000
749.423767	182.000000
749.461304	197.400000
749.498718	194.500000
749.536255	201.700000
749.573730	207.300000
749.611206	199.700000
749.648682	192.100000
749.686218	193.400000
749.723633	197.300000
749.761169	193.600000
749.798645	189.100000
749.836060	192.900000
749.873596	189.600000
749.911011	194.300000
749.948547	199.400000
749.986023	193.800000
750.023437	193.200000
750.060913	187.700000
750.098450	186.900000
750.135864	192.900000
750.173340	194.800000
750.210815	199.100000
750.248291	187.600000
750.285767	193.600000
750.323242	200.800000
750.360657	197.200000
750.398132	188.100000
750.435608	197.800000
750.473022	188.500000
750.510498	189.300000
750.547974	189.600000
750.585449	191.200000
750.622925	182.900000
750.660339	203.100000
750.697815	193.900000
750.735291	193.000000
750.772644	196.300000
750.810120	193.200000
750.847595	196.800000
750.885010	189.900000
750.922485	203.300000
750.959961	192.900000
750.997375	201.000000
751.034851	198.000000
751.072266	199.600000
751.109680	186.600000
751.147156	199.700000
751.184570	196.300000
751.221985	196.800000
751.259460	185.100000
751.296875	194.400000
751.334290	193.400000
751.371765	200.200000
751.409180	196.600000
751.446594	200.700000
751.484070	195.700000
751.521423	196.000000
751.558899	195.400000
751.596375	202.300000
751.633728	200.600000
751.671204	207.200000
751.708618	189.100000
751.746033	194.500000
751.783447	187.000000
751.820801	191.400000
751.858276	196.200000
751.895691	194.200000
751.933105	191.900000
751.970520	188.100000
752.007935	191.500000
752.045349	198.500000
752.082764	193.500000
752.120178	191.900000
752.157532	188.600000
752.195007	191.400000
752.232422	195.700000
752.269775	199.200000
752.307190	196.300000
752.344543	190.500000
752.382019	193.400000
752.419434	192.400000
752.456787	195.400000
752.494202	197.900000
752.531616	195.200000
752.568970	199.700000
752.606384	194.000000
752.643799	196.700000
752.681152	202.800000
752.718567	196.800000
752.755981	185.700000
752.793335	196.900000
752.830750	187.000000
752.868164	201.400000
752.905518	190.900000
752.942932	198.500000
752.980225	189.500000
753.017639	198.000000
753.055054	193.100000
753.092407	197.000000
753.129822	201.700000
753.167175	204.200000
753.204529	193.200000
753.241943	190.900000
753.279358	188.100000
753.316650	197.700000
753.354065	196.200000
753.391479	197.900000
753.428772	203.300000
753.466187	197.300000
753.503479	188.900000
753.540894	191.500000
753.578308	189.100000
753.615601	187.000000
753.653015	194.300000
753.690369	191.500000
753.727722	189.300000
753.765076	186.000000
753.802490	188.900000
753.839783	186.500000
753.877136	191.000000
753.914551	209.400000
753.951843	187.600000
753.989258	197.600000
754.026611	194.000000
754.063904	194.500000
754.101257	188.700000
754.138611	186.400000
754.175964	193.200000
754.213318	206.500000
754.250610	186.700000
754.288025	190.500000
754.325378	189.100000
754.362671	199.600000
754.400024	192.200000
754.437378	201.800000
754.474670	204.600000
754.512085	191.100000
754.549438	195.000000
754.586731	192.700000
754.624084	193.200000
754.661438	190.000000
754.698730	201.200000
754.736084	192.100000
754.773376	191.500000
754.810730	198.000000
754.848083	192.500000
754.885315	198.600000
754.922668	185.300000
754.960022	189.000000
754.997314	198.700000
755.034668	194.900000
755.072021	195.600000
755.109253	193.400000
755.146606	202.000000
755.183960	193.100000
755.221252	203.600000
755.258545	200.900000
755.295898	200.800000
755.333191	202.100000
755.370544	198.400000
755.407776	197.000000
755.445129	195.500000
755.482422	200.900000
755.519714	192.000000
755.557068	188.100000
755.594360	187.100000
755.631653	202.600000
755.668945	206.400000
755.706299	197.900000
755.743530	207.700000
755.780884	205.200000
755.818176	203.900000
755.855408	203.400000
755.892761	200.200000
755.930054	197.800000
755.967346	199.500000
756.004639	202.900000
756.041870	198.600000
756.079224	204.000000
756.116516	195.100000
756.153748	203.100000
756.191040	206.300000
756.228394	201.600000
756.265625	195.800000
756.302917	200.400000
756.340210	195.600000
756.377441	204.900000
756.414795	207.000000
756.452087	199.300000
756.489319	194.700000
756.526611	203.600000
756.563843	201.200000
756.601135	211.600000
756.638428	208.500000
756.675659	199.400000
756.712952	205.800000
756.750244	204.300000
756.787476	204.000000
756.824768	208.700000
756.862061	199.600000
756.899292	248.300000
756.936584	207.500000
756.973816	213.500000
757.011047	215.300000
757.048340	201.200000
757.085632	202.600000
757.122864	217.900000
757.160156	201.200000
757.197327	205.000000
757.234619	207.700000
757.271912	201.500000
757.309082	209.500000
757.346375	199.500000
757.383667	210.100000
757.420837	205.200000
757.458130	206.800000
757.495422	203.400000
757.532593	206.700000
757.569885	199.000000
757.607117	201.700000
757.644348	205.800000
757.681580	219.400000
757.718811	194.800000
757.756042	204.400000
757.793335	203.300000
757.830505	214.000000
757.867798	202.500000
757.905029	202.900000
757.942200	207.600000
757.979492	203.400000
758.016724	206.100000
758.053894	204.500000
758.091187	225.300000
758.128418	208.300000
758.165588	206.700000
758.202820	219.100000
758.240112	209.200000
758.277283	218.300000
758.314514	210.200000
758.351685	205.300000
758.388916	218.600000
758.426147	216.800000
758.463379	220.300000
758.500610	212.800000
758.537842	210.500000
758.575012	217.100000
758.612244	206.300000
758.649475	222.700000
758.686646	204.800000
758.723877	216.900000
758.761108	218.500000
758.798279	208.700000
758.835510	212.800000
758.872742	217.500000
758.909851	216.000000
758.947083	213.600000
758.984253	214.100000
759.021484	218.500000
759.058716	216.200000
759.095886	215.400000
759.133057	211.100000
759.170288	217.000000
759.207458	209.800000
759.244690	225.500000
759.281860	224.500000
759.319031	213.000000
759.356262	212.600000
759.393433	211.400000
759.430603	214.200000
759.467773	213.800000
759.505005	222.600000
759.542175	220.800000
759.579346	213.700000
759.616516	217.500000
759.653687	217.500000
759.690918	213.200000
759.728027	218.700000
759.765259	217.600000
759.802429	220.000000
759.839539	219.900000
759.876770	223.100000
759.913940	227.700000
759.951111	218.700000
759.988281	217.500000
760.025452	216.000000
760.062561	213.800000
760.099792	226.500000
760.136963	221.700000
760.174072	216.800000
760.211243	213.200000
760.248413	213.600000
760.285583	214.600000
760.322754	230.200000
760.359863	225.000000
760.397034	226.400000
760.434204	218.700000
760.471375	219.800000
760.508545	218.600000
760.545715	219.300000
760.582825	214.800000
760.619995	225.700000
760.657166	213.800000
760.694275	227.800000
760.731445	222.500000
760.768555	222.800000
760.805664	224.400000
760.842834	223.700000
760.879944	226.400000
760.917114	224.800000
760.954285	223.800000
760.991394	216.400000
761.028564	230.500000
761.065674	228.400000
761.102783	220.500000
761.139954	228.800000
761.177124	230.000000
761.214172	232.100000
761.251343	225.900000
761.288452	227.300000
761.325562	229.600000
761.362732	224.100000
761.399841	227.200000
761.436951	229.800000
761.474121	226.200000
761.511169	232.300000
761.548340	233.500000
761.585449	234.200000
761.622559	234.700000
761.659668	233.400000
761.696838	238.600000
761.733887	236.200000
761.771057	232.200000
761.808167	235.200000
761.845276	238.500000
761.882385	247.100000
761.919434	235.700000
761.956604	255.600000
761.993713	233.100000
762.030762	243.700000
762.067871	236.500000
762.105042	237.600000
762.142090	246.000000
762.179199	241.600000
762.216309	244.600000
762.253418	257.000000
762.290527	250.100000
762.327637	246.200000
762.364685	235.100000
762.401794	246.600000
762.438904	244.600000
762.475952	238.800000
762.513062	237.800000
762.550110	240.300000
762.587219	254.600000
762.624329	254.500000
762.661377	247.400000
762.698486	245.500000
762.735596	244.100000
762.772644	241.900000
762.809753	237.500000
762.846863	244.300000
762.883911	249.900000
762.921021	250.600000
762.958069	250.400000
762.995117	258.500000
763.032227	257.800000
763.069336	250.300000
763.106323	244.700000
763.143433	243.800000
763.180481	252.800000
763.217590	252.000000
763.254639	250.900000
763.291687	249.000000
763.328735	258.600000
763.365845	254.600000
763.402893	252.400000
763.439941	257.300000
763.477051	259.700000
763.514038	259.300000
763.551147	252.500000
763.588196	255.000000
763.625244	255.500000
763.662292	262.900000
763.699402	267.100000
763.736389	261.400000
763.773499	271.700000
763.810486	264.600000
763.847534	262.000000
763.884644	265.300000
763.921631	259.400000
763.958679	271.000000
763.995728	262.500000
764.032776	272.700000
764.069824	258.200000
764.106873	266.700000
764.143860	274.200000
764.180969	264.000000
764.218018	273.900000
764.255005	265.300000
764.292053	266.200000
764.329102	278.600000
764.366089	278.400000
764.403137	274.500000
764.440125	266.300000
764.477173	270.000000
764.514221	273.500000
764.551208	269.800000
764.588257	267.100000
764.625305	277.400000
764.662292	283.300000
764.699341	288.100000
764.736389	279.100000
764.773376	294.800000
764.810425	281.200000
764.847473	288.800000
764.884399	283.800000
764.921448	292.900000
764.958435	292.900000
764.995483	280.100000
765.032532	297.300000
765.069458	282.500000
765.106506	284.900000
765.143555	282.500000
765.180481	285.700000
765.217529	296.100000
765.254578	279.800000
765.291504	290.900000
765.328552	285.300000
765.365540	282.500000
765.402527	300.800000
765.439575	285.600000
765.476501	281.800000
765.513550	282.300000
765.550537	289.900000
765.587463	295.800000
765.624512	285.700000
765.661499	278.300000
765.698486	293.700000
765.735474	287.000000
765.772461	289.600000
765.809448	298.400000
765.846436	294.800000
765.883423	299.300000
765.920410	292.300000
765.957397	290.400000
765.994385	295.900000
766.031311	305.700000
766.068359	298.500000
766.105286	296.900000
766.142273	303.800000
766.179260	301.500000
766.216187	295.100000
766.253174	291.500000
766.290161	301.100000
766.327148	304.200000
766.364136	306.700000
766.401123	320.800000
766.438049	296.500000
766.475037	312.700000
766.512024	310.500000
766.548950	323.600000
766.585937	317.800000
766.622864	315.500000
766.659790	311.300000
766.696777	304.000000
766.733704	320.900000
766.770691	310.000000
766.807678	327.600000
766.844604	320.500000
766.881531	320.200000
766.918518	327.700000
766.955444	330.600000
766.992432	323.800000
767.029358	327.000000
767.066284	331.700000
767.103271	327.700000
767.140198	356.600000
767.177124	344.900000
767.214050	334.200000
767.251038	336.500000
767.287964	332.300000
767.324890	329.700000
767.361816	339.400000
767.398743	346.400000
767.435730	338.400000
767.472595	343.900000
767.509583	348.500000
767.546509	335.700000
767.583374	344.300000
767.620361	335.100000
767.657288	342.600000
767.694214	344.700000
767.731140	343.100000
767.768066	344.600000
767.804993	349.600000
767.841919	340.900000
767.878845	350.200000
767.915710	357.500000
767.952698	350.200000
767.989563	354.100000
768.026489	357.700000
768.063416	350.400000
768.100281	348.800000
768.137207	364.700000
768.174133	360.300000
768.211060	361.700000
768.247986	360.900000
768.284912	362.400000
768.321777	365.800000
768.358704	362.000000
768.395630	368.000000
768.432495	362.000000
768.469421	367.200000
768.506348	374.600000
768.543152	378.900000
768.580078	379.500000
768.616943	382.300000
768.653870	383.100000
768.690796	379.800000
768.727661	377.300000
768.764587	384.300000
768.801453	375.900000
768.838318	387.000000
768.875244	386.100000
768.912109	391.800000
768.948975	385.700000
768.985901	388.200000
769.022766	387.200000
769.059631	394.100000
769.096558	387.600000
769.133362	391.700000
769.170288	392.200000
769.207214	391.600000
769.244019	399.400000
769.280945	398.800000
769.317810	404.600000
769.354675	400.900000
769.391541	412.000000
769.428406	407.800000
769.465271	416.400000
769.502136	404.600000
769.539062	406.300000
769.575867	407.700000
769.612732	411.700000
769.649597	418.900000
769.686462	421.700000
769.723328	416.700000
769.760193	412.600000
769.797058	416.500000
769.833923	424.500000
769.870728	424.900000
769.907593	425.300000
769.944519	425.600000
769.981323	427.700000
770.018188	431.000000
770.055054	424.200000
770.091858	426.200000
770.128723	442.300000
770.165588	446.800000
770.202393	429.600000
770.239258	438.600000
770.276062	437.000000
770.312927	440.900000
770.349792	446.000000
770.386597	443.600000
770.423462	454.000000
770.460327	459.800000
770.497131	442.100000
770.533997	437.400000
770.570862	453.600000
770.607605	456.700000
770.644470	449.000000
770.681335	450.800000
770.718140	447.600000
770.754944	441.900000
770.791809	444.400000
770.828613	448.500000
770.865479	450.900000
770.902222	460.000000
770.939087	451.300000
770.975952	440.700000
771.012695	448.700000
771.049561	466.700000
771.086365	454.200000
771.123169	447.400000
771.159973	454.700000
771.196838	455.000000
771.233582	457.200000
771.270447	457.400000
771.307251	458.400000
771.344055	457.200000
771.380859	462.700000
771.417664	455.600000
771.454468	462.500000
771.491272	463.400000
771.528076	465.200000
771.564880	465.100000
771.601685	475.800000
771.638428	464.700000
771.675293	471.500000
771.712097	459.200000
771.748840	481.400000
771.785645	471.800000
771.822449	477.300000
771.859253	477.800000
771.896057	474.400000
771.932861	489.700000
771.969604	476.400000
772.006409	472.000000
772.043213	486.900000
772.079956	483.500000
772.116760	477.100000
772.153503	481.300000
772.190308	495.200000
772.227112	484.300000
772.263855	482.500000
772.300659	490.900000
772.337463	498.000000
772.374207	489.600000
772.411011	484.000000
772.447754	490.800000
772.484497	508.500000
772.521301	502.800000
772.558105	497.900000
772.594849	503.000000
772.631592	507.800000
772.668396	508.000000
772.705139	514.500000
772.741882	513.400000
772.778625	527.100000
772.815430	531.700000
772.852173	525.300000
772.888916	533.300000
772.925720	536.800000
772.962463	545.700000
772.999207	536.400000
773.035950	546.600000
773.072754	542.500000
773.109436	540.000000
773.146240	542.800000
773.182922	542.400000
773.219727	553.200000
773.256470	550.500000
773.293152	538.400000
773.329956	544.700000
773.366699	549.100000
773.403381	543.500000
773.440186	556.900000
773.476929	557.300000
773.513611	549.900000
773.550354	553.000000
773.587158	552.900000
773.623840	547.400000
773.660583	564.000000
773.697327	577.900000
773.734009	567.800000
773.770813	564.800000
773.807495	562.200000
773.844238	566.900000
773.880981	590.600000
773.917664	581.300000
773.954407	591.100000
773.991150	576.300000
774.027832	582.200000
774.064575	577.100000
774.101318	587.700000
774.138000	599.900000
774.174744	592.300000
774.211487	593.800000
774.248108	581.400000
774.284851	581.700000
774.321594	595.600000
774.358276	599.800000
774.395020	608.900000
774.431702	610.400000
774.468384	600.800000
774.505127	600.200000
774.541809	613.900000
774.578491	629.100000
774.615234	628.700000
774.651917	621.100000
774.688599	625.300000
774.725342	632.700000
774.762024	629.800000
774.798706	636.600000
774.835449	637.800000
774.872070	642.100000
774.908813	642.900000
774.945496	638.500000
774.982178	643.600000
775.018860	650.500000
775.055542	648.800000
775.092224	651.000000
775.128967	656.600000
775.165588	653.600000
775.202271	638.700000
775.239014	664.200000
775.275635	663.300000
775.312317	659.300000
775.349060	668.200000
775.385681	666.100000
775.422363	656.600000
775.459045	665.200000
775.495667	670.100000
775.532410	676.400000
775.569092	676.500000
775.605713	674.100000
775.642395	669.200000
775.679016	673.600000
775.715698	677.000000
775.752380	683.800000
775.789001	674.500000
775.825684	673.600000
775.862366	676.700000
775.898987	694.100000
775.935669	684.900000
775.972351	704.500000
776.008972	697.300000
776.045654	696.300000
776.082336	691.300000
776.118958	696.300000
776.155640	699.800000
776.192322	710.800000
776.228882	711.900000
776.265564	707.100000
776.302185	699.300000
776.338867	709.500000
776.375488	694.800000
776.412109	707.700000
776.448792	713.900000
776.485413	720.100000
776.522034	712.000000
776.558716	708.900000
776.595337	705.700000
776.631958	716.200000
776.668579	713.600000
776.705261	721.900000
776.741882	710.000000
776.778503	710.600000
776.815186	703.600000
776.851746	715.300000
776.888367	716.100000
776.924988	725.900000
776.961609	710.300000
776.998291	714.500000
777.034851	707.200000
777.071472	716.500000
777.108154	720.400000
777.144714	731.400000
777.181335	725.700000
777.218018	721.900000
777.254578	734.400000
777.291199	727.700000
777.327759	740.100000
777.364380	741.500000
777.401062	748.400000
777.437622	763.400000
777.474243	745.700000
777.510864	748.000000
777.547424	747.900000
777.584045	755.300000
777.620667	759.100000
777.657227	763.300000
777.693848	764.100000
777.730469	780.000000
777.767029	771.500000
777.803650	774.700000
777.840271	764.600000
777.876831	768.700000
777.913452	777.500000
777.950012	758.400000
777.986633	763.700000
778.023193	755.500000
778.059753	756.600000
778.096375	762.000000
778.132996	774.000000
778.169556	763.200000
778.206116	764.500000
778.242737	762.500000
778.279297	772.900000
778.315857	764.300000
778.352478	774.000000
778.389038	782.400000
778.425598	788.200000
778.462219	796.800000
778.498718	800.200000
778.535339	805.700000
778.571838	798.100000
778.608459	812.300000
778.645020	808.800000
778.681580	825.600000
778.718140	828.500000
778.754761	821.300000
778.791260	827.200000
778.827881	842.000000
778.864441	834.100000
778.900940	839.900000
778.937561	837.800000
778.974121	834.600000
779.010620	828.500000
779.047241	831.300000
779.083801	843.900000
779.120300	841.900000
779.156860	845.900000
779.193359	844.800000
779.229980	845.700000
779.266541	859.400000
779.303040	857.700000
779.339600	849.800000
779.376160	843.800000
779.412659	854.400000
779.449219	850.600000
779.485779	859.300000
779.522278	858.300000
779.558838	862.000000
779.595398	871.100000
779.631897	870.400000
779.668457	848.600000
779.705017	868.400000
779.741516	863.900000
779.778076	858.100000
779.814575	870.400000
779.851074	884.800000
779.887634	874.100000
779.924133	885.500000
779.960693	869.000000
779.997253	881.900000
780.033691	878.900000
780.070251	885.100000
780.106812	900.600000
780.143250	902.500000
780.179810	892.300000
780.216370	902.000000
780.252808	907.500000
780.289368	923.200000
780.325867	928.700000
780.362366	920.100000
780.398865	930.700000
780.435364	921.900000
780.471863	933.400000
780.508423	932.900000
780.544861	949.200000
780.581421	953.100000
780.617920	940.400000
780.654419	938.600000
780.690918	946.300000
780.727417	958.300000
780.763916	957.700000
780.800415	958.800000
780.836914	942.600000
780.873352	956.300000
780.909912	938.800000
780.946411	950.900000
780.982849	955.400000
781.019348	982.200000
781.055786	971.000000
781.092346	959.000000
781.128845	970.400000
781.165283	978.100000
781.201782	992.000000
781.238281	998.500000
781.274719	994.900000
781.311218	982.400000
781.347717	999.800000
781.384155	989.400000
781.420654	995.900000
781.457092	1011.100000
781.493591	1005.000000
781.530090	992.800000
781.566528	997.700000
781.602966	1002.800000
781.639465	1003.300000
781.675903	993.800000
781.712402	1008.700000
781.748901	1014.700000
781.785278	1000.100000
781.821777	1009.500000
781.858276	1004.200000
781.894714	1023.700000
781.931152	1013.600000
781.967651	1020.400000
782.004089	1014.000000
782.040527	1023.600000
782.076965	1018.500000
782.113403	1022.400000
782.149902	1034.700000
782.186340	1021.400000
782.222778	1031.600000
782.259277	1014.500000
782.295654	1009.700000
782.332092	1026.200000
782.368591	1015.400000
782.404968	1007.300000
782.441467	1019.400000
782.477905	1016.000000
782.514282	1008.600000
782.550781	1029.700000
782.587219	1033.200000
782.623596	1039.800000
782.660095	1035.500000
782.696472	1043.000000
782.732910	1048.600000
782.769348	1053.700000
782.805786	1067.000000
782.842224	1065.700000
782.878662	1052.000000
782.915039	1048.400000
782.951477	1051.600000
782.987915	1046.600000
783.024292	1058.900000
783.060730	1059.200000
783.097168	1043.900000
783.133545	1042.300000
783.169983	1036.200000
783.206421	1032.300000
783.242798	1029.000000
783.279236	1015.100000
783.315613	1020.500000
783.352051	1008.900000
783.388489	999.700000
783.424866	980.400000
783.461304	990.300000
783.497681	997.900000
783.534058	990.400000
783.570496	985.200000
783.606934	973.900000
783.643250	984.800000
783.679687	996.900000
783.716125	996.000000
783.752441	1008.000000
783.788879	1026.200000
783.825317	1029.700000
783.861633	1033.500000
783.898071	1040.700000
783.934448	1063.200000
783.970825	1073.600000
784.007263	1079.600000
784.043579	1075.000000
784.080017	1082.300000
784.116394	1075.200000
784.152710	1070.700000
784.189148	1056.800000
784.225525	1016.600000
784.261902	887.400000
784.298279	725.400000
784.334656	559.400000
784.371033	415.100000
784.407410	364.700000
784.443787	373.700000
784.480164	399.100000
784.516541	398.000000
784.552856	392.200000
784.589233	366.600000
784.625610	392.400000
784.661987	535.100000
784.698364	684.700000
784.734741	829.900000
784.771057	943.300000
784.807434	1005.400000
784.843811	1042.500000
784.880127	1049.100000
784.916504	1085.300000
784.952881	1088.100000
784.989197	1081.500000
785.025574	1078.400000
785.061951	1089.300000
785.098267	1114.100000
785.134644	1113.300000
785.170959	1116.500000
785.207275	1119.300000
785.243652	1124.800000
785.279968	1106.900000
785.316345	1118.100000
785.352722	1120.300000
785.388977	1125.100000
785.425354	1098.200000
785.461731	1080.400000
785.498047	1076.800000
785.534363	1071.000000
785.570679	1078.600000
785.606995	1086.200000
785.643372	1086.900000
785.679687	1082.800000
785.716003	1065.500000
785.752380	1058.500000
785.788635	1066.100000
785.825012	1091.200000
785.861328	1091.500000
785.897644	1080.000000
785.933960	1101.900000
785.970337	1102.600000
786.006592	1121.500000
786.042908	1133.000000
786.079285	1148.300000
786.115540	1156.800000
786.151855	1156.600000
786.188171	1152.000000
786.224487	1153.400000
786.260803	1157.500000
786.297119	1175.600000
786.333435	1181.000000
786.369751	1170.300000
786.406006	1168.700000
786.442322	1151.000000
786.478638	1144.400000
786.514954	1170.800000
786.551270	1160.800000
786.587585	1167.500000
786.623840	1152.100000
786.660156	1145.500000
786.696472	1134.900000
786.732727	1125.700000
786.769043	1128.300000
786.805298	1117.600000
786.841614	1127.100000
786.877930	1137.800000
786.914124	1114.600000
786.950439	1122.500000
786.986755	1134.300000
787.023010	1154.500000
787.059326	1160.300000
787.095642	1161.500000
787.131836	1177.900000
787.168152	1165.600000
787.204468	1181.200000
787.240723	1194.600000
787.276978	1203.400000
787.313293	1211.700000
787.349548	1213.900000
787.385803	1211.900000
787.422058	1202.100000
787.458313	1201.500000
787.494629	1197.700000
787.530823	1203.600000
787.567139	1199.900000
787.603455	1186.700000
787.639648	1167.500000
787.675903	1176.400000
787.712219	1177.800000
787.748413	1176.300000
787.784729	1184.600000
787.820984	1168.800000
787.857178	1157.100000
787.893494	1146.100000
787.929749	1141.500000
787.965942	1146.300000
788.002258	1156.400000
788.038452	1170.700000
788.074707	1159.400000
788.110962	1165.400000
788.147217	1157.000000
788.183472	1172.200000
788.219727	1178.100000
788.255920	1197.100000
788.292175	1203.100000
788.328430	1196.400000
788.364624	1178.500000
788.400879	1169.700000
788.437134	1177.600000
788.473328	1179.000000
788.509583	1181.100000
788.545837	1173.600000
788.582031	1174.200000
788.618286	1158.300000
788.654480	1147.500000
788.690735	1159.500000
788.726990	1177.100000
788.763184	1180.700000
788.799377	1200.400000
788.835632	1184.600000
788.871826	1197.000000
788.908081	1203.100000
788.944336	1198.900000
788.980469	1212.800000
789.016724	1204.800000
789.052979	1194.600000
789.089111	1180.100000
789.125366	1190.100000
789.161621	1170.400000
789.197754	1183.900000
789.234009	1180.200000
789.270142	1163.400000
789.306396	1144.700000
789.342590	1126.900000
789.378784	1110.000000
789.414978	1107.200000
789.451233	1124.400000
789.487366	1131.100000
789.523621	1144.200000
789.559814	1123.700000
789.595947	1115.200000
789.632202	1126.000000
789.668335	1142.800000
789.704529	1166.500000
789.740784	1180.400000
789.776917	1178.000000
789.813110	1163.300000
789.849304	1182.300000
789.885498	1185.700000
789.921692	1196.700000
789.957886	1206.500000
789.994019	1208.500000
790.030212	1206.200000
790.066406	1196.200000
790.102539	1194.200000
790.138733	1211.200000
790.174927	1206.400000
790.211060	1211.500000
790.247253	1196.300000
790.283386	1184.500000
790.319580	1164.300000
790.355774	1151.400000
790.391907	1164.700000
790.428101	1181.500000
790.464294	1179.100000
790.500427	1188.500000
790.536621	1168.100000
790.572754	1147.200000
790.608887	1167.200000
790.645081	1178.600000
790.681274	1180.500000
790.717346	1169.600000
790.753540	1145.700000
790.789734	1064.700000
790.825867	1007.500000
790.862000	1004.700000
790.898132	1043.400000
790.934265	1099.900000
790.970459	1159.000000
791.006592	1179.500000
791.042725	1180.100000
791.078918	1175.700000
791.114990	1175.500000
791.151184	1188.600000
791.187317	1213.600000
791.223389	1201.100000
791.259583	1183.800000
791.295715	1193.400000
791.331848	1199.000000
791.367981	1216.000000
791.404114	1216.000000
791.440247	1211.500000
791.476379	1208.500000
791.512451	1196.700000
791.548584	1198.900000
791.584778	1192.300000
791.620850	1214.400000
791.656982	1218.400000
791.693115	1209.100000
791.729187	1205.400000
791.765381	1193.500000
791.801514	1191.500000
791.837585	1192.100000
791.873718	1209.700000
791.909851	1226.600000
791.945923	1229.600000
791.982056	1195.300000
792.018188	1186.400000
792.054260	1195.400000
792.090393	1198.900000
792.126465	1186.300000
792.162598	1189.200000
792.198669	1187.000000
792.234741	1184.300000
792.270874	1165.900000
792.307007	1154.600000
792.343079	1166.300000
792.379150	1183.800000
792.415283	1165.600000
792.451355	1163.100000
792.487488	1138.100000
792.523560	1146.500000
792.559631	1145.200000
792.595764	1139.400000
792.631836	1153.000000
792.667908	1165.200000
792.703979	1143.600000
792.740051	1142.200000
792.776184	1145.000000
792.812256	1148.200000
792.848328	1157.400000
792.884399	1169.000000
792.920471	1155.600000
792.956543	1140.400000
792.992615	1143.300000
793.028748	1148.600000
793.064758	1152.900000
793.100830	1171.300000
793.136963	1183.200000
793.172974	1170.400000
793.209045	1169.000000
793.245178	1176.700000
793.281189	1162.000000
793.317261	1174.600000
793.353271	1173.700000
793.389404	1176.300000
793.425476	1164.700000
793.461487	1159.500000
793.497559	1154.400000
793.533630	1161.700000
793.569641	1167.000000
793.605713	1167.600000
793.641785	1168.400000
793.677795	1171.700000
793.713867	1156.500000
793.749878	1159.700000
793.785950	1179.400000
793.822021	1189.600000
793.858032	1171.200000
793.894104	1179.400000
793.930176	1163.400000
793.966187	1166.700000
794.002258	1155.700000
794.038269	1165.100000
794.074280	1157.500000
794.110352	1176.900000
794.146423	1160.100000
794.182373	1155.100000
794.218445	1139.500000
794.254517	1131.400000
794.290466	1122.200000
794.326538	1120.300000
794.362549	1121.600000
794.398560	1129.100000
794.434631	1126.000000
794.470581	1096.200000
794.506653	1094.300000
794.542664	1101.100000
794.578674	1096.500000
794.614685	1094.900000
794.650757	1095.800000
794.686707	1085.000000
794.722778	1073.100000
794.758789	1087.400000
794.794739	1091.000000
794.830811	1118.700000
794.866821	1135.400000
794.902771	1124.400000
794.938843	1112.300000
794.974792	1113.800000
795.010803	1117.400000
795.046814	1114.800000
795.082825	1103.700000
795.118835	1111.600000
795.154846	1093.900000
795.190796	1097.900000
795.226807	1071.200000
795.262817	1083.700000
795.298767	1079.600000
795.334778	1083.000000
795.370850	1068.800000
795.406799	1077.500000
795.442810	1050.700000
795.478821	1049.200000
795.514709	1047.000000
795.550720	1071.100000
795.586670	1051.900000
795.622681	1058.300000
795.658691	1054.300000
795.694641	1044.000000
795.730652	1033.500000
795.766663	1042.400000
795.802551	1047.400000
795.838562	1064.200000
795.874573	1048.000000
795.910522	1038.200000
795.946472	1030.100000
795.982483	1043.200000
796.018433	1042.100000
796.054382	1047.900000
796.090393	1036.800000
796.126282	1029.600000
796.162292	1015.500000
796.198242	1012.700000
796.234192	1016.400000
796.270203	1016.300000
796.306091	1021.600000
796.342041	1037.000000
796.378052	1021.800000
796.413940	1012.700000
796.449951	1019.700000
796.485901	1014.300000
796.521790	1014.900000
796.557800	1027.100000
796.593689	1033.500000
796.629639	1017.600000
796.665649	1016.800000
796.701599	1014.100000
796.737488	1004.400000
796.773437	1015.600000
796.809387	1019.200000
796.845337	1006.500000
796.881287	991.900000
796.917175	972.700000
796.953125	981.100000
796.989075	995.100000
797.024963	1002.800000
797.060913	1001.800000
797.096863	1001.600000
797.132751	990.800000
797.168701	969.300000
797.204590	976.000000
797.240540	977.900000
797.276489	982.700000
797.312439	981.300000
797.348328	975.300000
797.384277	969.000000
797.420166	962.400000
797.456055	962.400000
797.492004	961.100000
797.527893	972.800000
797.563843	976.000000
797.599731	955.100000
797.635620	951.100000
797.671570	955.100000
797.707520	953.100000
797.743347	956.400000
797.779297	969.400000
797.815125	958.500000
797.851074	949.800000
797.887024	940.300000
797.922913	932.800000
797.958801	947.800000
797.994690	946.100000
798.030579	952.700000
798.066467	959.200000
798.102356	936.400000
798.138245	930.300000
798.174133	925.000000
798.210083	939.900000
798.245911	939.800000
798.281799	946.200000
798.317749	936.600000
798.353577	934.100000
798.389465	928.600000
798.425293	923.000000
798.461243	923.000000
798.497131	926.600000
798.532959	918.600000
798.568848	930.600000
798.604736	921.200000
798.640564	905.800000
798.676453	906.600000
798.712402	915.600000
798.748230	914.700000
798.784119	903.900000
798.820007	903.400000
798.855835	903.500000
798.891724	896.000000
798.927551	900.300000
798.963379	907.100000
798.999268	903.900000
799.035095	896.600000
799.070984	890.700000
799.106873	879.300000
799.142700	898.500000
799.178528	890.700000
799.214417	884.500000
799.250244	899.200000
799.286133	885.300000
799.321960	880.700000
799.357788	876.600000
799.393677	879.600000
799.429504	876.200000
799.465332	877.200000
799.501221	890.800000
799.537048	889.400000
799.572876	874.000000
799.608704	879.300000
799.644531	880.900000
799.680359	881.100000
799.716248	884.900000
799.752014	895.700000
799.787903	881.400000
799.823730	874.500000
799.859558	867.700000
799.895386	873.200000
799.931213	871.200000
799.967041	858.200000
800.002869	856.600000
800.038696	875.400000
800.074463	848.600000
800.110352	855.400000
800.146179	844.800000
800.181946	850.800000
800.217773	850.900000
800.253540	847.000000
800.289429	843.300000
800.325256	842.600000
800.361023	833.800000
800.396851	835.100000
800.432678	832.600000
800.468445	830.600000
800.504272	824.500000
800.540100	809.700000
800.575867	808.900000
800.611694	815.600000
800.647461	803.000000
800.683289	806.600000
800.719116	812.300000
800.754883	813.500000
800.790649	790.000000
800.826477	785.500000
800.862244	805.800000
800.898071	788.000000
800.933838	777.900000
800.969604	778.000000
801.005432	777.900000
801.041199	779.100000
801.076965	768.500000
801.112793	763.800000
801.148560	754.200000
801.184326	758.200000
801.220154	759.200000
801.255859	751.000000
801.291687	751.900000
801.327454	742.700000
801.363281	741.800000
801.398987	739.500000
801.434814	739.000000
801.470520	748.000000
801.506287	732.700000
801.542114	726.300000
801.577820	730.400000
801.613647	730.600000
801.649414	725.200000
801.685120	722.500000
801.720886	733.100000
801.756714	718.200000
801.792419	707.400000
801.828186	699.700000
801.863892	712.000000
801.899719	702.500000
801.935486	703.200000
801.971252	711.700000
802.006958	703.700000
802.042725	697.000000
802.078430	698.000000
802.114197	688.700000
802.149963	705.200000
802.185669	694.200000
802.221436	689.400000
802.257202	685.900000
802.292908	687.700000
802.328674	696.200000
802.364441	696.000000
802.400146	690.000000
802.435913	686.600000
802.471558	679.200000
802.507324	673.900000
802.543091	668.800000
802.578796	678.800000
802.614502	681.000000
802.650269	687.300000
802.685974	669.000000
802.721741	673.400000
802.757446	676.400000
802.793152	671.400000
802.828918	681.800000
802.864624	672.500000
802.900330	664.100000
802.936035	664.400000
802.971802	664.700000
803.007446	660.300000
803.043213	653.800000
803.078857	659.200000
803.114624	643.800000
803.150330	651.400000
803.185974	642.600000
803.221741	639.600000
803.257446	648.100000
803.293152	649.500000
803.328857	639.100000
803.364563	637.200000
803.400208	629.400000
803.435974	640.900000
803.471680	630.000000
803.507324	624.900000
803.543030	630.400000
803.578735	633.100000
803.614441	626.500000
803.650146	631.900000
803.685791	621.600000
803.721497	619.600000
803.757202	609.200000
803.792847	619.300000
803.828552	610.300000
803.864258	613.100000
803.899902	608.400000
803.935608	594.500000
803.971313	599.600000
804.006958	601.800000
804.042664	600.300000
804.078308	603.600000
804.113953	593.700000
804.149658	601.700000
804.185364	595.700000
804.221008	600.400000
804.256714	590.300000
804.292297	590.000000
804.328003	588.900000
804.363708	578.700000
804.399292	577.500000
804.434998	584.400000
804.470703	570.900000
804.506287	581.700000
804.541992	574.500000
804.577637	576.300000
804.613281	565.800000
804.648926	561.900000
804.684570	570.700000
804.720215	565.100000
804.755920	563.400000
804.791565	559.500000
804.827209	566.500000
804.862854	555.800000
804.898437	550.600000
804.934143	552.100000
804.969788	555.000000
805.005371	556.400000
805.041077	552.300000
805.076721	553.900000
805.112305	541.000000
805.147949	545.700000
805.183655	543.100000
805.219238	547.700000
805.254883	544.000000
805.290466	551.300000
805.326111	540.700000
805.361755	529.700000
805.397400	538.400000
805.432983	539.000000
805.468628	538.300000
805.504211	542.300000
805.539856	539.800000
805.575500	542.600000
805.611084	538.100000
805.646729	522.300000
805.682373	529.000000
805.717957	540.100000
805.753601	541.600000
805.789246	518.200000
805.824768	534.800000
805.860413	536.100000
805.895996	522.600000
805.931641	522.800000
805.967224	529.500000
806.002869	521.700000
806.038452	532.300000
806.074036	526.000000
806.109619	514.400000
806.145264	511.400000
806.180847	511.600000
806.216431	509.300000
806.252014	511.300000
806.287659	515.600000
806.323181	523.600000
806.358826	513.300000
806.394409	499.000000
806.429993	503.600000
806.465576	513.100000
806.501160	501.400000
806.536743	494.500000
806.572327	503.500000
806.607910	497.100000
806.643494	498.900000
806.679077	491.700000
806.714661	495.300000
806.750244	493.600000
806.785828	484.400000
806.821350	484.800000
806.856934	491.600000
806.892517	488.200000
806.928101	480.600000
806.963684	485.200000
806.999268	491.800000
807.034790	471.800000
807.070374	476.400000
807.105896	473.800000
807.141479	469.700000
807.177063	478.000000
807.212585	469.600000
807.248169	470.200000
807.283752	475.000000
807.319275	470.100000
807.354858	469.800000
807.390381	461.400000
807.425903	463.100000
807.461487	458.600000
807.497070	450.600000
807.532593	456.000000
807.568115	451.200000
807.603699	450.200000
807.639221	443.200000
807.674744	448.800000
807.710266	451.500000
807.745850	454.800000
807.781372	446.500000
807.816895	441.800000
807.852417	444.400000
807.888000	443.900000
807.923523	438.500000
807.959045	444.000000
807.994629	434.700000
808.030090	430.600000
808.065613	435.100000
808.101135	441.700000
808.136658	435.200000
808.172241	432.200000
808.207764	429.800000
808.243225	424.500000
808.278809	422.800000
808.314270	431.500000
808.349792	419.700000
808.385315	416.200000
808.420837	422.800000
808.456360	427.500000
808.491882	422.500000
808.527344	417.400000
808.562866	428.400000
808.598389	418.100000
808.633850	410.700000
808.669434	409.300000
808.704895	420.600000
808.740417	422.200000
808.775940	415.000000
808.811462	410.400000
808.846924	402.200000
808.882385	398.900000
808.917847	399.000000
808.953369	403.300000
808.988892	392.700000
809.024353	405.100000
809.059875	404.200000
809.095398	396.700000
809.130798	394.100000
809.166321	393.900000
809.201843	393.900000
809.237305	393.000000
809.272766	397.300000
809.308228	382.600000
809.343750	383.200000
809.379211	387.100000
809.414734	387.100000
809.450134	395.200000
809.485657	374.200000
809.521118	382.700000
809.556580	380.200000
809.592102	376.600000
809.627502	376.700000
809.663025	378.800000
809.698486	372.300000
809.733887	370.600000
809.769409	371.900000
809.804871	362.700000
809.840271	365.500000
809.875793	368.700000
809.911194	372.000000
809.946655	364.500000
809.982178	359.900000
810.017639	363.600000
810.053040	360.800000
810.088501	358.500000
810.123901	358.300000
810.159424	354.100000
810.194885	349.600000
810.230286	354.200000
810.265747	348.000000
810.301208	344.700000
810.336609	348.400000
810.372070	342.200000
810.407532	345.000000
810.442932	348.200000
810.478394	351.100000
810.513794	344.000000
810.549255	344.100000
810.584717	341.600000
810.620117	336.000000
810.655518	344.100000
810.690979	340.200000
810.726379	341.200000
810.761841	331.100000
810.797302	331.400000
810.832642	329.100000
810.868103	341.200000
810.903564	330.100000
810.938904	337.800000
810.974365	324.600000
811.009827	331.600000
811.045166	325.200000
811.080627	316.900000
811.115967	324.100000
811.151428	331.600000
811.186829	324.100000
811.222229	324.800000
811.257629	316.000000
811.293091	323.700000
811.328430	331.100000
811.363892	322.200000
811.399292	326.600000
811.434631	317.300000
811.470093	323.300000
811.505493	316.600000
811.540833	319.400000
811.576294	324.900000
811.611694	317.200000
811.647034	312.900000
811.682434	315.900000
811.717773	316.800000
811.753235	319.200000
811.788635	315.100000
811.823975	316.600000
811.859375	324.200000
811.894775	308.200000
811.930115	311.100000
811.965515	312.900000
812.000916	312.700000
812.036255	308.500000
812.071655	313.300000
812.106995	306.700000
812.142395	304.600000
812.177795	313.600000
812.213196	310.000000
812.248474	309.700000
812.283875	302.100000
812.319214	306.500000
812.354614	305.300000
812.390015	302.800000
812.425293	302.600000
812.460693	302.400000
812.496094	299.100000
812.531433	293.100000
812.566772	293.700000
812.602173	299.000000
812.637451	297.200000
812.672852	294.200000
812.708191	302.100000
812.743530	293.300000
812.778931	283.900000
812.814270	289.100000
812.849609	296.100000
812.884949	290.500000
812.920227	284.900000
812.955627	299.600000
812.990967	292.000000
813.026306	286.500000
813.061646	276.700000
813.096985	275.400000
813.132324	270.800000
813.167664	279.000000
813.203003	282.400000
813.238281	269.600000
813.273682	272.700000
813.308960	266.000000
813.344299	270.500000
813.379639	279.400000
813.414978	273.400000
813.450256	272.700000
813.485596	275.700000
813.520874	265.600000
813.556213	270.300000
813.591614	274.200000
813.626831	267.300000
813.662170	272.200000
813.697510	282.700000
813.732788	262.700000
813.768127	269.800000
813.803467	268.900000
813.838745	264.400000
813.874084	267.600000
813.909363	268.400000
813.944641	268.900000
813.979980	259.800000
814.015320	260.300000
814.050598	260.900000
814.085876	266.300000
814.121155	264.200000
814.156494	260.400000
814.191772	263.000000
814.227051	256.300000
814.262390	259.300000
814.297668	258.800000
814.332947	260.600000
814.368225	253.800000
814.403564	257.100000
814.438782	255.800000
814.474121	257.200000
814.509338	253.000000
814.544617	262.500000
814.579956	252.300000
814.615173	262.400000
814.650513	259.500000
814.685791	250.900000
814.721008	253.900000
814.756348	254.000000
814.791626	249.200000
814.826843	251.000000
814.862122	251.300000
814.897400	247.300000
814.932678	251.600000
814.967957	250.300000
815.003235	249.400000
815.038452	242.400000
815.073730	241.300000
815.108948	252.500000
815.144226	249.700000
815.179504	252.400000
815.214722	237.700000
815.250000	235.400000
815.285278	245.500000
815.320496	238.200000
815.355774	242.400000
815.391052	244.400000
815.426270	241.300000
815.461487	239.100000
815.496765	235.200000
815.531982	229.100000
815.567261	237.400000
815.602539	246.100000
815.637695	239.900000
815.672974	243.200000
815.708191	241.800000
815.743408	242.400000
815.778687	235.100000
815.813904	247.000000
815.849121	227.800000
815.884399	230.600000
815.919556	231.100000
815.954834	230.800000
815.990051	235.400000
816.025269	238.400000
816.060486	228.400000
816.095703	227.800000
816.130920	232.400000
816.166199	228.500000
816.201416	232.900000
816.236572	237.900000
816.271851	228.600000
816.307007	236.000000
816.342224	225.700000
816.377441	229.600000
816.412659	220.300000
816.447876	233.200000
816.483093	227.600000
816.518250	229.200000
816.553467	227.400000
816.588745	231.700000
816.623901	223.100000
816.659119	216.400000
816.694275	222.000000
816.729492	219.900000
816.764709	256.700000
816.799927	218.400000
816.835083	222.600000
816.870300	217.300000
816.905457	221.400000
816.940674	223.000000
816.975830	217.400000
817.010986	215.500000
817.046204	217.800000
817.081421	214.700000
817.116577	213.600000
817.151733	223.600000
817.186951	223.200000
817.222107	220.700000
817.257324	221.100000
817.292419	220.000000
817.327637	211.000000
817.362854	216.500000
817.398010	210.900000
817.433167	213.700000
817.468323	213.600000
817.503479	213.300000
817.538635	221.700000
817.573853	217.700000
817.608948	215.100000
817.644165	210.400000
817.679321	209.100000
817.714478	210.500000
817.749634	212.900000
817.784790	224.800000
817.819946	220.400000
817.855103	202.200000
817.890198	211.900000
817.925415	203.200000
817.960571	213.000000
817.995667	210.800000
818.030823	213.900000
818.066040	206.700000
818.101135	210.700000
818.136292	208.700000
818.171448	204.000000
818.206543	207.800000
818.241699	213.900000
818.276855	209.400000
818.311951	209.600000
818.347107	204.100000
818.382263	211.600000
818.417358	215.900000
818.452515	217.100000
818.487610	216.800000
818.522766	206.300000
818.557922	216.100000
818.593018	212.800000
818.628113	209.600000
818.663269	205.100000
818.698364	207.900000
818.733521	206.000000
818.768677	211.000000
818.803711	203.300000
818.838867	203.800000
818.874023	205.000000
818.909058	202.300000
818.944214	201.400000
818.979370	208.800000
819.014404	206.000000
819.049561	203.000000
819.084595	208.600000
819.119751	199.400000
819.154846	208.000000
819.189941	203.500000
819.225037	199.700000
819.260193	194.500000
819.295227	197.400000
819.330322	193.500000
819.365479	194.300000
819.400513	227.000000
819.435608	193.200000
819.470764	190.700000
819.505798	194.300000
819.540894	197.500000
819.575989	195.800000
819.611084	205.500000
819.646179	204.700000
819.681213	202.200000
819.716309	197.500000
819.751404	198.400000
819.786438	202.600000
819.821533	194.900000
819.856628	199.500000
819.891663	202.800000
819.926758	208.800000
819.961853	204.300000
819.996887	195.500000
820.031982	203.200000
820.067017	198.900000
820.102112	225.400000
820.137207	196.200000
820.172302	213.800000
820.207275	194.100000
820.242371	195.700000
820.277405	193.700000
820.312500	197.900000
820.347534	199.500000
820.382568	203.000000
820.417664	195.600000
820.452759	196.700000
820.487732	193.200000
820.522827	195.100000
820.557861	193.200000
820.592896	195.700000
820.627930	195.000000
820.662964	193.600000
820.698059	198.100000
820.733093	194.100000
820.768127	198.600000
820.803162	194.500000
820.838196	192.800000
820.873230	197.000000
820.908264	195.500000
820.943298	193.100000
820.978333	201.000000
821.013367	197.200000
821.048401	200.400000
821.083435	202.700000
821.118469	187.700000
821.153503	200.400000
821.188477	198.200000
821.223511	188.300000
821.258484	195.500000
821.293579	196.200000
821.328613	189.000000
821.363647	193.600000
821.398621	189.800000
821.433655	190.900000
821.468628	208.500000
821.503662	194.300000
821.538696	199.100000
821.573669	189.200000
821.608704	199.200000
821.643677	191.400000
821.678650	198.800000
821.713684	203.700000
821.748718	195.100000
821.783691	194.500000
821.818726	196.800000
821.853638	195.400000
821.888672	193.100000
821.923706	193.200000
821.958618	191.500000
821.993652	192.500000
822.028687	198.200000
822.063599	201.000000
822.098633	196.300000
822.133667	190.600000
822.168579	193.600000
822.203613	195.000000
822.238586	189.400000
822.273560	196.600000
822.308533	191.600000
822.343567	191.000000
822.378479	193.900000
822.413452	192.700000
822.448425	189.500000
822.483398	197.300000
822.518372	198.600000
822.553345	190.700000
822.588318	202.600000
822.623291	191.800000
822.658203	191.700000
822.693237	193.600000
822.728210	190.400000
822.763123	196.800000
822.798096	189.500000
822.833069	194.100000
822.867981	193.100000
822.902954	195.700000
822.937927	197.300000
822.972900	204.500000
823.007874	186.600000
823.042725	198.600000
823.077698	204.900000
823.112671	189.400000
823.147583	191.900000
823.182556	196.900000
823.217529	197.000000
823.252441	192.000000
823.287415	207.600000
823.322388	196.200000
823.357239	193.300000
823.392212	201.700000
823.427185	196.500000
823.462097	190.300000
823.497009	197.300000
823.531982	192.300000
823.566895	193.500000
823.601807	188.900000
823.636719	192.700000
823.671631	198.800000
823.706604	191.800000
823.741455	196.500000
823.776428	187.900000
823.811340	197.400000
823.846252	199.300000
823.881165	202.700000
823.916138	195.100000
823.950989	202.600000
823.985901	189.800000
824.020813	196.000000
824.055725	192.600000
824.090637	190.200000
824.125610	196.100000
824.160461	196.100000
824.195374	195.100000
824.230225	198.100000
824.265198	187.200000
824.300110	191.400000
824.334961	205.400000
824.369873	184.600000
824.404785	195.800000
824.439636	201.300000
824.474548	184.400000
824.509460	183.200000
824.544312	200.500000
824.579224	196.800000
824.614075	196.700000
824.648987	192.900000
824.683899	192.800000
824.718811	191.400000
824.753662	201.100000
824.788574	198.400000
824.823364	194.900000
824.858276	189.700000
824.893188	199.900000
824.928040	199.500000
824.962952	196.600000
824.997803	198.100000
825.032654	195.200000
825.067566	197.100000
825.102417	191.200000
825.137268	192.200000
825.172119	194.800000
825.206970	190.400000
825.241882	192.100000
825.276733	190.500000
825.311646	190.300000
825.346436	187.900000
825.381348	189.000000
825.416138	193.500000
825.450989	189.600000
825.485901	184.400000
825.520691	184.700000
825.555542	188.200000
825.590454	192.800000
825.625244	183.900000
825.660095	200.500000
825.695007	196.800000
825.729797	192.200000
825.764648	189.000000
825.799438	192.700000
825.834290	193.300000
825.869202	186.300000
825.903992	192.700000
825.938843	188.400000
825.973694	188.100000
826.008484	204.900000
826.043335	188.400000
826.078186	185.000000
826.112976	199.300000
826.147827	198.300000
826.182678	201.900000
826.217468	186.300000
826.252319	198.500000
826.287109	188.500000
826.321899	200.400000
826.356750	191.500000
826.391541	188.700000
826.426392	198.000000
826.461182	193.200000
826.495972	187.500000
826.530823	184.400000
826.565613	194.100000
826.600403	187.800000
826.635254	195.600000
826.670044	185.600000
826.704834	185.600000
826.739685	188.900000
826.774475	194.400000
826.809265	193.600000
826.844055	190.900000
826.878906	198.300000
826.913635	194.700000
826.948425	196.200000
826.983215	193.700000
827.018005	198.600000
827.052856	191.100000
827.087585	196.900000
827.122375	183.200000
827.157227	192.900000
827.191956	204.600000
827.226746	187.800000
827.261536	196.900000
827.296265	186.200000
827.331116	191.100000
827.365906	196.600000
827.400635	188.800000
827.435425	183.300000
827.470215	200.000000
827.504944	191.000000
827.539734	196.100000
827.574463	192.600000
827.609253	198.900000
827.644043	192.500000
827.678772	199.500000
827.713562	191.000000
827.748352	190.800000
827.783081	188.800000
827.817871	192.700000
827.852600	188.800000
827.887329	194.400000
827.922119	182.800000
827.956848	196.200000
827.991638	205.500000
828.026367	194.600000
828.061157	193.300000
828.095886	192.400000
828.130615	207.600000
828.165344	183.700000
828.200073	192.900000
828.234863	190.400000
828.269592	192.800000
828.304321	198.700000
828.339111	192.800000
828.373779	189.200000
828.408569	197.400000
828.443298	196.500000
828.477966	189.300000
828.512756	193.200000
828.547424	187.000000
828.582214	190.600000
828.616943	191.800000
828.651672	191.400000
828.686340	196.500000
828.721130	189.100000
828.755798	191.400000
828.790527	192.700000
828.825256	193.700000
828.859924	193.200000
828.894714	198.200000
828.929443	201.500000
828.964111	188.500000
828.998840	195.500000
829.033569	190.000000
829.068237	189.500000
829.102966	189.900000
829.137634	194.300000
829.172363	193.400000
829.207092	194.700000
829.241821	188.800000
829.276489	184.700000
829.311157	193.900000
829.345825	190.700000
829.380554	196.000000
829.415283	188.300000
829.449951	186.500000
829.484619	200.700000
829.519348	200.200000
829.554016	192.700000
829.588745	191.900000
829.623413	185.800000
829.658081	204.700000
829.692749	185.100000
829.727417	198.700000
829.762146	193.700000
829.796814	189.700000
829.831482	191.900000
829.866150	194.000000
829.900879	188.800000
829.935486	195.900000
829.970154	191.300000
830.004883	204.000000
830.039490	193.400000
830.074219	190.600000
830.108887	192.000000
830.143494	192.100000
830.178223	186.500000
830.212891	191.100000
830.247498	193.200000
830.282166	199.800000
830.316772	198.200000
830.351501	189.200000
830.386169	191.600000
830.420776	190.300000
830.455444	192.000000
830.490112	189.000000
830.524719	184.200000
830.559387	195.500000
830.594055	195.000000
830.628662	191.900000
830.663330	191.000000
830.697998	201.600000
830.732605	191.600000
830.767273	193.700000
830.801941	193.400000
830.836487	202.800000
830.871155	194.900000
830.905762	193.500000
830.940430	185.500000
830.975098	189.600000
831.009644	193.000000
831.044312	201.200000
831.078979	194.800000
831.113525	183.700000
831.148193	193.400000
831.182861	189.300000
831.217407	197.000000
831.252075	209.600000
831.286621	190.600000
831.321289	188.200000
831.355896	192.600000
831.390564	199.600000
831.425110	193.300000
831.459778	199.500000
831.494324	205.200000
831.528931	195.800000
831.563599	196.900000
831.598145	185.200000
831.632751	193.400000
831.667419	190.700000
831.701965	195.100000
831.736572	195.400000
831.771179	186.400000
831.805786	189.900000
831.840393	198.700000
831.874939	183.800000
831.909546	198.300000
831.944153	182.400000
831.978760	190.700000
832.013306	187.000000
832.047913	200.100000
832.082458	200.500000
832.117065	188.400000
832.151672	200.800000
832.186218	193.200000
832.220825	195.000000
832.255432	184.500000
832.289978	188.400000
832.324585	194.300000
832.359192	195.500000
832.393677	190.700000
832.428284	192.300000
832.462830	190.900000
832.497437	189.600000
832.531982	196.600000
832.566589	190.700000
832.601135	191.300000
832.635681	183.800000
832.670227	191.600000
832.704773	199.500000
832.739380	194.500000
832.773926	191.700000
832.808472	188.100000
832.843079	193.000000
832.877563	195.700000
832.912170	190.200000
832.946716	185.300000
832.981201	199.900000
833.015808	195.200000
833.050293	192.000000
833.084839	188.300000
833.119446	191.400000
833.153992	195.200000
833.188477	191.900000
833.223022	187.500000
833.257568	195.300000
833.292114	198.500000
833.326660	203.500000
833.361145	190.000000
833.395691	185.300000
833.430237	190.900000
833.464783	196.100000
833.499329	188.600000
833.533875	188.500000
833.568359	196.700000
833.602905	197.500000
833.637390	197.600000
833.671875	190.500000
833.706421	191.100000
833.740906	188.600000
833.775452	182.200000
833.809998	190.200000
833.844482	198.600000
833.879028	189.800000
833.913513	190.200000
833.947998	193.300000
833.982544	188.300000
834.017090	190.100000
834.051514	181.800000
834.086060	195.300000
834.120544	192.800000
834.155029	193.500000
834.189575	190.800000
834.223999	194.900000
834.258545	193.000000
834.293030	193.600000
834.327515	192.900000
834.362000	188.400000
834.396545	196.400000
834.430969	192.000000
834.465454	195.900000
834.500000	183.000000
834.534424	196.000000
834.568970	181.800000
834.603455	184.700000
834.637878	188.500000
834.672363	193.200000
834.706909	193.900000
834.741333	193.100000
834.775818	185.000000
834.810242	187.700000
834.844727	192.400000
834.879211	191.000000
834.913635	193.800000
834.948181	194.100000
834.982666	193.300000
835.017090	192.500000
835.051575	195.800000
835.086060	189.700000
835.120483	194.900000
835.154907	197.100000
835.189331	191.900000
835.223816	194.200000
835.258301	186.700000
835.292786	187.500000
835.327209	196.700000
835.361694	189.800000
835.396057	189.600000
835.430542	195.800000
835.465027	192.600000
835.499390	188.000000
835.533875	211.500000
835.568359	189.200000
835.602722	183.700000
835.637207	192.600000
835.671692	187.400000
835.706055	208.600000
835.740540	195.200000
835.774902	196.500000
835.809387	192.000000
835.843811	186.300000
835.878235	199.800000
835.912659	186.500000
835.947083	188.900000
835.981506	192.500000
836.015930	185.000000
836.050354	197.800000
836.084778	200.600000
836.119202	196.100000
836.153625	204.500000
836.187988	187.700000
836.222473	188.000000
836.256897	194.000000
836.291260	192.000000
836.325684	195.200000
836.360046	189.800000
836.394470	191.400000
836.428894	200.900000
836.463318	189.500000
836.497681	197.800000
836.532104	200.000000
836.566467	193.600000
836.600891	192.900000
836.635315	198.300000
836.669678	193.900000
836.704102	196.200000
836.738525	193.300000
836.772888	184.400000
836.807251	190.400000
836.841675	194.300000
836.876038	187.100000
836.910461	188.000000
836.944763	195.100000
836.979187	188.200000
837.013611	197.500000
837.047974	186.200000
837.082336	203.300000
837.116699	195.900000
837.151062	191.400000
837.185486	187.500000
837.219849	191.500000
837.254211	196.500000
837.288574	191.500000
837.322937	187.600000
837.357300	179.000000
837.391663	205.600000
837.426086	198.300000
837.460388	194.700000
837.494751	197.000000
837.529114	188.900000
837.563477	197.400000
837.597839	193.000000
837.632141	192.700000
837.666565	189.400000
837.700928	194.500000
837.735229	194.700000
837.769592	195.000000
837.803955	197.000000
837.838257	190.700000
837.872620	189.200000
837.906982	201.100000
837.941284	193.000000
837.975647	193.300000
838.010010	198.800000
838.044312	191.400000
838.078674	189.900000
838.112976	194.100000
838.147339	194.900000
838.181702	192.100000
838.216003	202.500000
838.250366	194.700000
838.284668	195.000000
838.318970	185.700000
838.353333	192.000000
838.387634	191.200000
838.421936	193.000000
838.456299	193.300000
838.490601	199.500000
838.524902	194.800000
838.559265	197.400000
838.593567	195.700000
838.627869	186.000000
838.662170	195.000000
838.696472	185.400000
838.730774	188.800000
838.765137	195.600000
838.799377	178.000000
838.833740	194.600000
838.868042	198.600000
838.902283	183.100000
838.936646	198.800000
838.970947	194.900000
839.005188	197.300000
839.039551	185.000000
839.073792	199.200000
839.108093	189.100000
839.142395	202.300000
839.176697	186.400000
839.210937	192.700000
839.245300	203.400000
839.279541	186.200000
839.313843	191.200000
839.348145	195.700000
839.382385	197.800000
839.416687	197.700000
839.450989	195.700000
839.485229	191.200000
839.519531	188.500000
839.553833	198.300000
839.588013	193.600000
839.622314	194.200000
839.656555	195.900000
839.690857	192.400000
839.725159	187.000000
839.759460	192.500000
839.793640	191.400000
839.827942	192.500000
839.862183	188.900000
839.896423	193.200000
839.930725	202.600000
839.964966	200.100000
839.999207	200.000000
840.033508	199.700000
840.067688	190.100000
840.101990	202.200000
840.136230	192.000000
840.170471	200.400000
840.204712	189.000000
840.238953	187.800000
840.273193	193.000000
840.307434	196.200000
840.341736	188.900000
840.375916	186.600000
840.410217	190.100000
840.444397	196.500000
840.478638	194.900000
840.512878	199.100000
840.547119	193.200000
840.581360	195.400000
840.615601	203.500000
840.649780	201.500000
840.684021	192.300000
840.718262	200.800000
840.752441	199.200000
840.786682	194.600000
840.820862	194.900000
840.855103	199.600000
840.889343	194.700000
840.923584	197.900000
840.957764	195.800000
840.992004	195.100000
841.026184	206.600000
841.060425	191.700000
841.094666	189.900000
841.128845	197.800000
841.163025	193.600000
841.197266	196.400000
841.231445	193.900000
841.265686	193.700000
841.299866	188.900000
841.334045	200.600000
841.368286	192.800000
841.402405	200.600000
841.436646	196.000000
841.470825	189.700000
841.505005	192.200000
841.539185	190.000000
841.573425	190.600000
841.607544	194.000000
841.641785	193.700000
841.675964	188.300000
841.710144	193.700000
841.744324	190.300000
841.778503	191.500000
841.812683	188.700000
841.846863	202.200000
841.881042	200.300000
841.915222	191.100000
841.949402	207.200000
841.983521	184.700000
842.017700	191.700000
842.051880	194.400000
842.086060	195.500000
842.120239	193.300000
842.154419	190.300000
842.188538	194.200000
842.222717	189.700000
842.256897	203.300000
842.291016	191.400000
842.325195	194.400000
842.359375	203.700000
842.393494	200.700000
842.427673	194.000000
842.461853	196.900000
842.495911	200.900000
842.530090	197.300000
842.564209	192.600000
842.598389	195.200000
842.632568	195.500000
842.666626	199.500000
842.700806	189.600000
842.734985	192.500000
842.769043	197.300000
842.803223	192.100000
842.837402	192.400000
842.871460	191.400000
842.905640	200.900000
842.939697	190.800000
842.973877	195.600000
843.007996	200.300000
843.042175	202.600000
843.076233	192.100000
843.110413	194.500000
843.144470	204.000000
843.178589	197.300000
843.212769	191.400000
843.246826	198.200000
843.280945	191.600000
843.315125	192.500000
843.349182	191.300000
843.383301	200.000000
843.417419	206.300000
843.451538	193.500000
843.485657	192.000000
843.519714	193.000000
843.553833	196.300000
843.587952	191.000000
843.622070	190.000000
843.656128	196.200000
843.690247	191.400000
843.724304	191.500000
843.758423	194.600000
843.792542	190.800000
843.826599	193.100000
843.860718	191.600000
843.894836	186.600000
843.928894	194.700000
843.963013	194.900000
843.997070	189.200000
844.031128	187.700000
844.065247	199.100000
844.099304	198.700000
844.133362	193.800000
844.167480	197.900000
844.201599	201.000000
844.235596	196.000000
844.269714	195.800000
844.303711	196.700000
844.337830	185.700000
844.371948	196.700000
844.405945	194.200000
844.440063	189.000000
844.474121	209.100000
844.508118	194.600000
844.542236	194.100000
844.576294	194.400000
844.610352	189.200000
844.644409	193.000000
844.678406	185.300000
844.712524	198.800000
844.746582	201.200000
844.780640	193.100000
844.814636	193.800000
844.848755	204.900000
844.882751	192.800000
844.916809	198.800000
844.950867	196.800000
844.984863	203.000000
845.018921	193.500000
845.052979	190.000000
845.086975	194.900000
845.121033	187.000000
845.155090	189.500000
845.189087	200.400000
845.223145	190.700000
845.257141	194.600000
845.291199	197.700000
845.325256	200.800000
845.359253	193.500000
845.393250	203.800000
845.427307	191.600000
845.461304	195.900000
845.495361	194.900000
845.529358	205.500000
845.563354	191.700000
845.597412	189.800000
845.631409	202.300000
845.665405	200.500000
845.699463	199.100000
845.733459	193.300000
845.767456	200.800000
845.801453	192.700000
845.835449	201.100000
845.869446	198.800000
845.903503	198.600000
845.937439	191.800000
845.971497	201.500000
846.005493	188.800000
846.039429	197.600000
846.073486	203.600000
846.107483	192.400000
846.141418	194.800000
846.175476	193.900000
846.209473	201.400000
846.243408	190.200000
846.277405	195.600000
846.311401	189.400000
846.345337	194.700000
846.379395	201.000000
846.413330	192.200000
846.447327	202.500000
846.481323	188.500000
846.515259	190.900000
846.549255	195.400000
846.583252	195.700000
846.617187	189.400000
846.651184	196.800000
846.685120	192.900000
846.719055	202.000000
846.753052	200.900000
846.786987	199.200000
846.820984	187.000000
846.854980	200.600000
846.888916	190.400000
846.922852	196.300000
846.956848	202.300000
846.990723	189.100000
847.024719	194.500000
847.058716	194.400000
847.092590	201.400000
847.126587	196.200000
847.160522	191.800000
847.194458	197.900000
847.228455	188.100000
847.262390	188.500000
847.296265	192.000000
847.330261	200.500000
847.364136	191.500000
847.398132	189.800000
847.432068	194.100000
847.466003	193.100000
847.499939	192.300000
847.533875	196.500000
847.567749	192.500000
847.601746	192.000000
847.635681	197.400000
847.669556	187.300000
847.703491	198.700000
847.737427	209.200000
847.771301	189.300000
847.805237	195.900000
847.839233	195.700000
847.873108	194.300000
847.907043	193.400000
847.940918	201.700000
847.974854	196.400000
848.008789	197.600000
848.042664	195.000000
848.076538	196.500000
848.110474	194.800000
848.144348	197.200000
848.178284	188.600000
848.212219	193.800000
848.246094	190.600000
848.279968	195.500000
848.313904	196.300000
848.347778	196.000000
848.381653	192.500000
848.415588	189.300000
848.449463	191.300000
848.483337	196.800000
848.517212	198.800000
848.551086	193.600000
848.585022	190.000000
848.618835	203.300000
848.652771	191.100000
848.686646	189.700000
848.720520	201.600000
848.754395	193.100000
848.788330	199.000000
848.822144	198.300000
848.856018	192.600000
848.889954	203.700000
848.923767	188.900000
848.957642	189.900000
848.991577	198.900000
849.025391	191.700000
849.059265	193.400000
849.093079	191.600000
849.126953	189.300000
849.160828	201.000000
849.194641	195.500000
849.228577	191.800000
849.262451	193.200000
849.296265	192.700000
849.330139	189.200000
849.364014	195.500000
849.397827	198.000000
849.431702	193.900000
849.465515	199.200000
849.499329	184.700000
849.533203	189.900000
849.567078	182.800000
849.600891	198.500000
849.634766	194.300000
849.668518	199.600000
849.702393	193.800000
849.736267	187.600000
849.770020	205.700000
849.803894	198.700000
849.837769	194.100000
849.871521	195.000000
849.905396	199.700000
849.939270	190.900000
849.973022	192.400000
850.006897	197.100000
850.040710	196.200000
850.074524	196.500000
850.108337	192.600000
850.142151	198.500000
850.175964	199.800000
850.209778	193.000000
850.243530	181.200000
850.277405	199.400000
850.311218	193.700000
850.344971	190.600000
850.378845	202.200000
850.412659	190.200000
850.446411	194.400000
850.480225	193.300000
850.514038	199.900000
850.547791	196.700000
850.581665	194.900000
850.615417	190.300000
850.649231	194.800000
850.683044	193.600000
850.716858	194.100000
850.750610	194.100000
850.784424	199.500000
850.818176	191.600000
850.851929	191.500000
850.885742	191.000000
850.919495	193.800000
850.953308	200.500000
850.987122	203.200000
851.020874	188.700000
851.054626	185.800000
851.088440	198.500000
851.122192	197.400000
851.156006	193.300000
851.189697	193.000000
851.223511	188.500000
851.257263	198.500000
851.291077	198.300000
851.324829	193.200000
851.358582	191.700000
851.392334	192.100000
851.426086	193.000000
851.459900	202.300000
851.493591	194.000000
851.527344	194.600000
851.561157	192.800000
851.594849	197.200000
851.628662	195.300000
851.662415	201.600000
851.696106	196.300000
851.729858	199.400000
851.763611	187.900000
851.797363	194.700000
851.831116	188.900000
851.864868	196.700000
851.898560	197.800000
851.932312	190.700000
851.966064	195.700000
851.999817	194.500000
852.033569	195.300000
852.067261	198.200000
852.101013	190.000000
852.134766	195.000000
852.168457	183.800000
852.202209	199.000000
852.235901	189.200000
852.269592	197.200000
852.303345	204.900000
852.337036	198.600000
852.370789	194.600000
852.404541	197.600000
852.438171	192.000000
852.471924	193.300000
852.505676	186.700000
852.539307	195.100000
852.573059	191.900000
852.606812	193.000000
852.640442	192.800000
852.674194	199.700000
852.707886	206.200000
852.741577	201.600000
852.775269	190.400000
852.809021	194.600000
852.842651	197.800000
852.876404	198.400000
852.910034	195.900000
852.943787	200.200000
852.977478	198.000000
853.011108	190.900000
853.044861	190.000000
853.078552	201.900000
853.112183	197.300000
853.145874	197.700000
853.179626	184.300000
853.213257	195.500000
853.246948	192.100000
853.280640	201.400000
853.314270	193.500000
853.347961	202.200000
853.381653	197.400000
853.415283	198.700000
853.448975	191.900000
853.482605	196.300000
853.516296	193.700000
853.549988	188.900000
853.583618	194.900000
853.617310	195.100000
853.651001	197.100000
853.684631	189.700000
853.718323	192.600000
853.751953	201.700000
853.785583	184.400000
853.819275	199.000000
853.852966	195.300000
853.886536	186.200000
853.920227	188.700000
853.953918	199.400000
853.987488	192.300000
854.021179	198.600000
854.054749	202.100000
854.088440	196.700000
854.122131	191.200000
854.155701	198.400000
854.189331	189.500000
854.223022	197.800000
854.256592	197.100000
854.290283	191.400000
854.323914	198.000000
854.357483	198.700000
854.391174	197.000000
854.424744	205.800000
854.458374	196.500000
854.492065	204.600000
854.525696	192.200000
854.559265	201.300000
854.592896	204.600000
854.626465	195.800000
854.660095	194.700000
854.693787	197.300000
854.727356	193.200000
854.760986	198.100000
854.794617	195.100000
854.828186	193.000000
854.861816	197.400000
854.895447	194.300000
854.929016	196.700000
854.962585	197.500000
854.996155	203.400000
855.029785	195.500000
855.063416	196.600000
855.097046	199.700000
855.130615	189.400000
855.164185	200.600000
855.197754	195.300000
855.231384	198.400000
855.264954	193.100000
855.298523	198.200000
855.332153	196.800000
855.365723	202.600000
855.399292	191.100000
855.432922	193.600000
855.466492	197.500000
855.500061	189.600000
855.533630	192.100000
855.567200	199.000000
855.600769	201.100000
855.634338	200.200000
855.667969	196.600000
855.701477	190.500000
855.735046	191.800000
855.768616	187.500000
855.802185	198.100000
855.835754	210.600000
855.869324	187.500000
855.902893	192.900000
855.936401	201.900000
855.969971	196.100000
856.003540	188.300000
856.037109	198.700000
856.070618	195.200000
856.104187	188.200000
856.137695	191.700000
856.171265	184.800000
856.204834	194.800000
856.238403	200.600000
856.271912	191.200000
856.305481	197.000000
856.338989	187.200000
856.372559	196.900000
856.406128	195.100000
856.439636	199.400000
856.473145	192.900000
856.506653	201.400000
856.540222	193.700000
856.573792	202.000000
856.607300	198.800000
856.640808	188.400000
856.674377	195.800000
856.707825	223.600000
856.741394	197.600000
856.774902	190.900000
856.808472	186.300000
856.841980	198.200000
856.875488	202.400000
856.908936	186.600000
856.942505	192.700000
856.976013	194.000000
857.009521	189.300000
857.043030	195.400000
857.076477	193.200000
857.110046	200.400000
857.143555	195.100000
857.177063	201.900000
857.210571	192.000000
857.244080	188.800000
857.277527	197.600000
857.311035	195.400000
857.344543	198.500000
857.378052	193.000000
857.411499	200.700000
857.445068	204.500000
857.478516	194.600000
857.512024	189.900000
857.545532	192.800000
857.578979	196.200000
857.612427	194.300000
857.645874	191.400000
857.679382	195.800000
857.712891	198.700000
857.746399	194.500000
857.779846	200.300000
857.813354	199.500000
857.846741	195.200000
857.880249	190.700000
857.913757	195.400000
857.947266	196.700000
857.980652	198.100000
858.014160	192.400000
858.047546	194.000000
858.081055	193.800000
858.114563	203.000000
858.147949	189.100000
858.181458	199.300000
858.214844	192.900000
858.248352	185.100000
858.281799	200.100000
858.315308	207.600000
858.348694	198.300000
858.382141	203.700000
858.415588	197.700000
858.449036	200.200000
858.482483	197.400000
858.515930	191.100000
858.549377	195.200000
858.582825	202.800000
858.616211	197.600000
858.649658	197.600000
858.683105	189.500000
858.716553	191.000000
858.750000	190.200000
858.783386	193.500000
858.816833	187.000000
858.850281	196.400000
858.883728	198.200000
858.917114	193.500000
858.950562	204.900000
858.983948	204.600000
859.017395	200.200000
859.050781	193.900000
859.084167	191.300000
859.117615	188.200000
859.151062	198.600000
859.184448	193.000000
859.217834	193.500000
859.251282	193.900000
859.284668	189.800000
859.318054	185.400000
859.351440	191.800000
859.384888	202.500000
859.418274	186.600000
859.451721	185.300000
859.485046	198.100000
859.518494	196.500000
859.551819	191.400000
859.585266	195.800000
859.618652	196.700000
859.652039	188.400000
859.685425	189.500000
859.718811	187.200000
859.752197	183.300000
859.785583	200.600000
859.819031	203.200000
859.852356	197.300000
859.885742	191.400000
859.919067	193.900000
859.952454	192.900000
859.985901	199.700000
860.019287	192.300000
860.052612	0.000000
860.085999	0.000000
860.119324	0.000000
860.152710	0.000000
860.186096	0.000000
860.219421	0.000000
860.252808	0.000000
860.286133	0.000000
860.319519	0.000000
860.352905	0.000000
860.386292	0.000000
860.419617	0.000000
860.452942	0.000000
860.486267	0.000000
860.519653	0.000000
860.553040	0.000000
860.586365	0.000000
860.619690	0.000000
860.653076	0.000000
860.686340	0.000000
860.719727	0.000000
860.753113	0.000000
860.786377	0.000000
860.819763	0.000000
860.853027	0.000000
860.886414	0.000000
860.919739	0.000000
860.953125	0.000000
860.986389	0.000000
861.019714	0.000000
861.053040	0.000000
861.086365	0.000000
861.119690	0.000000
861.153076	0.000000
861.186340	0.000000
861.219666	0.000000
861.252930	0.000000
861.286316	0.000000
861.319641	0.000000
861.352905	0.000000
861.386230	0.000000
861.419495	0.000000
861.452820	0.000000
861.486145	0.000000
861.519470	0.000000
861.552734	0.000000
861.586060	0.000000
861.619324	0.000000
861.652649	0.000000
861.685974	0.000000
861.719238	0.000000
861.752563	0.000000
861.785828	0.000000
861.819092	0.000000
861.852417	0.000000
861.885742	0.000000
861.918945	0.000000
861.952271	0.000000
861.985535	0.000000
862.018799	0.000000
862.052124	0.000000
862.085449	0.000000
862.118652	0.000000
862.151978	0.000000
862.185181	0.000000
862.218506	0.000000
862.251770	0.000000
862.285034	0.000000
862.318298	0.000000
862.351562	0.000000
862.384827	0.000000
862.418091	0.000000
862.451355	0.000000
862.484619	0.000000
862.517883	0.000000
862.551086	0.000000
862.584351	0.000000
862.617676	0.000000
862.650940	0.000000
862.684143	0.000000
862.717407	0.000000
862.750610	0.000000
862.783875	0.000000
862.817139	0.000000
862.850342	0.000000
862.883606	0.000000
862.916870	0.000000
862.950073	0.000000
862.983337	0.000000
863.016602	0.000000
863.049805	0.000000
863.083069	0.000000
863.116211	0.000000
863.149475	0.000000
863.182739	0.000000
863.216003	0.000000
863.249146	0.000000
863.282410	0.000000
863.315613	0.000000
863.348816	0.000000
863.382080	0.000000
863.415222	0.000000
863.448486	0.000000
863.481689	0.000000
863.514893	0.000000
863.548157	0.000000
863.581360	0.000000
863.614502	0.000000
863.647766	0.000000
863.680908	0.000000
863.714172	0.000000
863.747375	0.000000
863.780579	0.000000
863.813721	0.000000
863.846985	0.000000
863.880127	0.000000
863.913330	0.000000
863.946533	0.000000
863.979675	0.000000
864.012939	0.000000
