Model Number: SPM-002-B   
Serial Number: 70087108
Firmware Version: 004.15.4
Exposure Time: 100000.000000us
Data Taken on: 11-12-2020 19:28:24.791
Wavelength	Amplitude
221.570786	0.000000
221.663406	0.000000
221.756027	0.000000
221.848648	0.000000
221.941269	0.000000
222.033905	0.000000
222.126526	0.000000
222.219162	0.000000
222.311798	0.000000
222.404419	0.000000
222.497055	0.000000
222.589676	0.000000
222.682312	0.000000
222.774933	0.000000
222.867569	0.000000
222.960205	0.000000
223.052841	0.000000
223.145462	0.000000
223.238098	0.000000
223.330734	0.000000
223.423386	0.000000
223.516022	0.000000
223.608658	0.000000
223.701309	0.000000
223.793945	0.000000
223.886581	0.000000
223.979218	0.000000
224.071869	0.000000
224.164505	0.000000
224.257156	0.000000
224.349792	0.000000
224.442444	0.000000
224.535095	0.000000
224.627747	0.000000
224.720398	0.000000
224.813034	0.000000
224.905685	0.000000
224.998337	145.980000
225.090988	145.820000
225.183640	145.700000
225.276291	145.480000
225.368942	145.680000
225.461594	146.240000
225.554245	146.320000
225.646912	146.440000
225.739578	147.060000
225.832230	147.340000
225.924896	146.680000
226.017548	146.800000
226.110199	147.340000
226.202866	146.580000
226.295532	146.420000
226.388184	146.160000
226.480850	145.660000
226.573517	145.080000
226.666168	145.520000
226.758835	145.860000
226.851501	146.540000
226.944183	146.780000
227.036850	146.420000
227.129517	146.340000
227.222183	146.280000
227.314850	146.220000
227.407516	146.580000
227.500198	147.740000
227.592865	147.400000
227.685532	147.080000
227.778214	146.840000
227.870880	147.040000
227.963562	146.840000
228.056229	147.640000
228.148926	147.760000
228.241592	148.540000
228.334274	148.100000
228.426956	147.820000
228.519638	147.700000
228.612305	147.340000
228.704987	147.120000
228.797668	147.480000
228.890350	147.180000
228.983032	146.500000
229.075714	147.140000
229.168396	146.440000
229.261108	145.720000
229.353790	146.040000
229.446472	146.620000
229.539169	146.240000
229.631851	146.240000
229.724533	146.760000
229.817230	146.720000
229.909912	147.320000
230.002609	147.320000
230.095306	147.260000
230.187988	146.940000
230.280685	146.860000
230.373383	145.720000
230.466095	145.600000
230.558792	146.140000
230.651474	146.320000
230.744171	146.220000
230.836868	145.960000
230.929581	146.100000
231.022278	146.120000
231.114975	146.100000
231.207672	146.020000
231.300369	146.880000
231.393082	147.120000
231.485779	146.520000
231.578506	146.500000
231.671204	146.600000
231.763916	146.220000
231.856613	146.240000
231.949326	146.840000
232.042023	146.720000
232.134735	146.560000
232.227448	146.400000
232.320160	146.380000
232.412872	146.160000
232.505585	146.660000
232.598297	147.360000
232.691010	147.380000
232.783722	147.360000
232.876450	147.940000
232.969162	147.780000
233.061874	146.800000
233.154587	146.700000
233.247314	146.900000
233.340027	146.000000
233.432739	146.280000
233.525467	146.260000
233.618179	146.620000
233.710907	146.080000
233.803635	146.720000
233.896347	146.440000
233.989090	147.200000
234.081818	147.280000
234.174545	147.660000
234.267258	147.160000
234.359985	147.600000
234.452713	147.380000
234.545441	146.980000
234.638168	146.720000
234.730896	147.180000
234.823639	146.640000
234.916367	147.100000
235.009094	147.360000
235.101822	147.360000
235.194580	147.200000
235.287308	147.320000
235.380051	146.560000
235.472778	146.680000
235.565521	146.980000
235.658249	146.540000
235.750992	146.520000
235.843719	146.700000
235.936462	146.760000
236.029205	146.400000
236.121948	146.260000
236.214691	146.480000
236.307449	147.060000
236.400192	146.640000
236.492935	146.600000
236.585678	146.980000
236.678421	146.900000
236.771164	146.720000
236.863907	147.320000
236.956665	147.440000
237.049408	148.840000
237.142151	148.320000
237.234909	148.520000
237.327652	148.420000
237.420410	148.120000
237.513153	147.060000
237.605927	147.020000
237.698669	146.800000
237.791428	146.060000
237.884186	146.600000
237.976944	146.180000
238.069702	146.500000
238.162445	145.960000
238.255203	146.380000
238.347961	146.680000
238.440720	146.920000
238.533478	146.820000
238.626266	146.640000
238.719025	146.880000
238.811783	146.340000
238.904541	145.980000
238.997314	145.780000
239.090073	145.720000
239.182831	146.040000
239.275604	146.940000
239.368362	147.100000
239.461136	147.280000
239.553909	147.400000
239.646667	146.700000
239.739441	145.940000
239.832214	146.100000
239.925003	146.340000
240.017761	147.080000
240.110535	147.820000
240.203308	147.400000
240.296082	146.980000
240.388855	146.740000
240.481628	146.560000
240.574417	146.340000
240.667191	146.440000
240.759964	146.460000
240.852737	146.420000
240.945526	145.920000
241.038315	145.780000
241.131088	146.100000
241.223877	146.760000
241.316650	146.360000
241.409439	146.640000
241.502228	146.120000
241.595001	146.480000
241.687790	145.980000
241.780579	146.580000
241.873367	147.100000
241.966141	147.840000
242.058929	147.000000
242.151718	147.140000
242.244507	147.420000
242.337311	146.440000
242.430099	146.560000
242.522903	147.040000
242.615692	146.540000
242.708481	145.960000
242.801270	146.700000
242.894073	146.400000
242.986862	146.420000
243.079651	147.200000
243.172455	147.220000
243.265244	147.080000
243.358063	146.540000
243.450867	146.720000
243.543655	146.660000
243.636459	146.840000
243.729263	147.100000
243.822067	147.600000
243.914856	147.720000
244.007660	147.560000
244.100464	147.580000
244.193268	146.940000
244.286072	146.740000
244.378876	146.100000
244.471680	145.760000
244.564499	145.920000
244.657318	147.000000
244.750122	147.500000
244.842926	147.260000
244.935745	147.780000
245.028549	147.280000
245.121368	146.340000
245.214172	145.860000
245.306992	146.560000
245.399796	146.160000
245.492615	146.340000
245.585434	146.300000
245.678253	146.200000
245.771072	145.720000
245.863892	146.220000
245.956711	146.680000
246.049530	146.640000
246.142349	146.520000
246.235168	146.860000
246.327988	147.240000
246.420807	146.720000
246.513626	146.900000
246.606445	146.880000
246.699280	146.680000
246.792099	146.200000
246.884918	145.920000
246.977753	145.480000
247.070587	145.540000
247.163422	145.760000
247.256241	145.700000
247.349075	146.160000
247.441895	146.400000
247.534729	146.520000
247.627563	146.400000
247.720383	146.880000
247.813217	146.560000
247.906052	146.520000
247.998886	146.500000
248.091736	146.360000
248.184570	145.680000
248.277405	145.920000
248.370239	146.700000
248.463074	147.620000
248.555908	147.920000
248.648743	147.660000
248.741592	147.820000
248.834427	147.160000
248.927261	145.880000
249.020111	146.140000
249.112946	146.980000
249.205795	146.500000
249.298630	146.540000
249.391495	146.680000
249.484344	146.260000
249.577179	146.040000
249.670029	146.440000
249.762878	146.820000
249.855728	146.780000
249.948563	146.720000
250.041412	145.780000
250.134262	145.920000
250.227112	145.900000
250.319962	145.940000
250.412827	145.700000
250.505692	145.840000
250.598541	145.660000
250.691391	145.360000
250.784241	145.740000
250.877106	145.920000
250.969955	145.980000
251.062805	146.740000
251.155670	147.180000
251.248520	146.860000
251.341385	147.280000
251.434235	147.580000
251.527100	147.020000
251.619965	146.620000
251.712814	147.320000
251.805695	147.020000
251.898560	147.180000
251.991425	147.340000
252.084290	147.480000
252.177155	146.920000
252.270020	146.600000
252.362885	146.480000
252.455750	146.480000
252.548615	146.080000
252.641479	145.960000
252.734360	146.260000
252.827240	146.240000
252.920105	146.220000
253.012970	146.420000
253.105850	146.520000
253.198715	146.080000
253.291595	146.320000
253.384460	145.880000
253.477341	145.580000
253.570221	145.660000
253.663086	145.940000
253.755966	146.100000
253.848846	146.080000
253.941727	146.520000
254.034592	146.440000
254.127472	145.880000
254.220367	145.880000
254.313248	146.140000
254.406128	145.760000
254.499008	146.240000
254.591904	147.180000
254.684784	147.540000
254.777664	147.300000
254.870544	146.860000
254.963440	146.420000
255.056335	146.700000
255.149216	146.180000
255.242111	146.920000
255.334991	147.680000
255.427887	147.640000
255.520767	147.360000
255.613663	147.380000
255.706558	146.320000
255.799438	146.040000
255.892334	145.840000
255.985229	145.560000
256.078125	145.480000
256.171021	145.960000
256.263916	146.500000
256.356812	146.860000
256.449707	146.960000
256.542603	146.880000
256.635498	147.380000
256.728394	146.920000
256.821289	146.740000
256.914215	146.860000
257.007080	147.060000
257.100006	147.020000
257.192932	147.520000
257.285828	147.540000
257.378723	147.260000
257.471619	146.860000
257.564545	146.080000
257.657440	145.980000
257.750336	146.380000
257.843262	145.920000
257.936157	147.200000
258.029053	147.660000
258.121979	147.580000
258.214874	147.140000
258.307800	147.280000
258.400696	145.960000
258.493622	145.860000
258.586517	145.180000
258.679443	145.420000
258.772339	145.260000
258.865265	145.260000
258.958160	144.940000
259.051086	145.660000
259.144012	145.840000
259.236938	146.860000
259.329834	147.040000
259.422791	147.000000
259.515717	146.420000
259.608612	145.840000
259.701538	145.720000
259.794464	145.740000
259.887390	146.000000
259.980316	146.280000
260.073212	146.040000
260.166138	145.000000
260.259064	145.380000
260.351990	145.940000
260.444916	145.580000
260.537842	146.280000
260.630768	147.200000
260.723694	146.980000
260.816620	146.460000
260.909546	146.580000
261.002472	145.820000
261.095398	145.060000
261.188354	145.000000
261.281281	144.560000
261.374207	145.040000
261.467133	145.960000
261.560089	146.160000
261.653015	145.900000
261.745972	146.580000
261.838867	146.640000
261.931824	146.640000
262.024780	146.380000
262.117706	146.660000
262.210663	146.900000
262.303589	146.740000
262.396515	146.700000
262.489471	147.780000
262.582397	147.640000
262.675354	147.040000
262.768280	146.940000
262.861237	146.860000
262.954163	146.520000
263.047119	146.800000
263.140045	146.780000
263.233002	147.040000
263.325958	147.040000
263.418884	146.560000
263.511841	146.360000
263.604797	146.560000
263.697723	145.960000
263.790680	145.560000
263.883636	146.100000
263.976593	146.040000
264.069550	145.880000
264.162476	145.980000
264.255463	146.100000
264.348419	145.780000
264.441376	146.020000
264.534332	145.820000
264.627289	146.120000
264.720245	146.860000
264.813202	146.600000
264.906158	146.520000
264.999115	147.160000
265.092072	146.820000
265.185028	146.780000
265.277985	147.240000
265.370941	147.260000
265.463898	146.840000
265.556854	146.700000
265.649811	145.800000
265.742798	145.380000
265.835754	145.120000
265.928711	145.420000
266.021667	145.760000
266.114655	146.100000
266.207611	146.800000
266.300568	146.600000
266.393585	146.360000
266.486511	146.640000
266.579498	146.300000
266.672485	145.700000
266.765442	145.940000
266.858429	146.280000
266.951385	145.800000
267.044342	146.060000
267.137329	146.140000
267.230316	146.240000
267.323273	145.580000
267.416260	146.320000
267.509216	146.400000
267.602203	146.460000
267.695160	146.740000
267.788147	146.920000
267.881134	146.260000
267.974091	146.180000
268.067078	146.060000
268.160065	145.620000
268.253052	145.180000
268.346008	145.380000
268.438995	145.300000
268.531982	145.480000
268.624969	145.580000
268.717987	146.360000
268.810944	146.300000
268.903961	146.440000
268.996948	146.120000
269.089905	146.580000
269.182892	146.260000
269.275879	146.580000
269.368866	146.180000
269.461853	146.420000
269.554871	146.060000
269.647858	145.960000
269.740845	146.140000
269.833832	146.700000
269.926819	146.460000
270.019806	146.520000
270.112793	146.140000
270.205811	145.940000
270.298798	145.720000
270.391785	146.480000
270.484772	146.420000
270.577789	147.020000
270.670776	146.480000
270.763763	146.180000
270.856750	145.800000
270.949768	145.440000
271.042786	145.660000
271.135773	145.920000
271.228790	146.420000
271.321808	146.120000
271.414795	146.120000
271.507782	145.640000
271.600800	145.280000
271.693817	145.300000
271.786804	145.900000
271.879822	146.080000
271.972809	146.180000
272.065826	146.820000
272.158844	146.280000
272.251831	146.520000
272.344849	146.340000
272.437866	146.120000
272.530853	146.040000
272.623871	146.640000
272.716888	145.400000
272.809906	146.060000
272.902893	146.400000
272.995911	145.960000
273.088928	145.760000
273.181946	146.380000
273.274963	145.920000
273.367981	145.800000
273.460999	146.160000
273.554047	146.440000
273.647003	147.160000
273.740051	147.080000
273.833069	147.400000
273.926086	147.540000
274.019135	147.240000
274.112152	146.480000
274.205170	146.840000
274.298187	146.980000
274.391205	146.240000
274.484222	146.320000
274.577240	146.460000
274.670258	146.100000
274.763306	145.860000
274.856323	146.520000
274.949341	146.340000
275.042358	146.600000
275.135406	146.660000
275.228424	146.540000
275.321442	146.440000
275.414490	146.500000
275.507507	146.500000
275.600525	146.940000
275.693573	146.740000
275.786591	146.520000
275.879669	146.440000
275.972656	146.180000
276.065735	145.920000
276.158752	146.500000
276.251801	147.140000
276.344818	147.440000
276.437866	147.580000
276.530884	147.540000
276.623932	147.000000
276.716980	146.980000
276.809998	146.660000
276.903046	146.500000
276.996094	147.020000
277.089111	147.480000
277.182159	147.520000
277.275208	147.460000
277.368256	147.360000
277.461304	147.140000
277.554321	146.520000
277.647369	146.400000
277.740417	146.440000
277.833466	146.300000
277.926514	145.820000
278.019562	146.460000
278.112610	145.840000
278.205688	146.240000
278.298706	146.620000
278.391785	146.660000
278.484833	146.240000
278.577881	146.060000
278.670929	146.240000
278.763977	146.240000
278.857025	146.620000
278.950073	146.680000
279.043121	146.820000
279.136169	146.580000
279.229248	146.560000
279.322296	146.460000
279.415344	146.220000
279.508392	146.340000
279.601440	146.240000
279.694519	146.040000
279.787567	145.780000
279.880615	145.900000
279.973694	146.060000
280.066742	146.040000
280.159790	146.400000
280.252869	146.300000
280.345917	146.520000
280.438995	146.360000
280.532074	146.280000
280.625122	146.400000
280.718201	147.560000
280.811279	147.360000
280.904327	147.620000
280.997406	147.680000
281.090454	147.460000
281.183533	146.480000
281.276581	146.760000
281.369659	146.400000
281.462738	146.600000
281.555786	146.620000
281.648865	146.800000
281.741943	146.440000
281.835022	147.080000
281.928070	146.780000
282.021149	146.660000
282.114227	146.480000
282.207306	146.740000
282.300385	146.740000
282.393433	147.020000
282.486511	147.020000
282.579590	147.720000
282.672668	147.900000
282.765747	146.980000
282.858856	146.580000
282.951904	146.720000
283.045013	146.460000
283.138062	146.780000
283.231171	147.800000
283.324249	148.100000
283.417328	148.040000
283.510406	147.500000
283.603485	146.860000
283.696564	146.280000
283.789642	146.820000
283.882751	146.660000
283.975830	147.160000
284.068909	146.960000
284.161987	147.580000
284.255066	146.540000
284.348175	146.440000
284.441254	146.180000
284.534332	146.720000
284.627441	146.180000
284.720520	146.000000
284.813599	146.320000
284.906708	146.160000
284.999786	145.100000
285.092896	145.020000
285.185974	146.260000
285.279053	145.740000
285.372192	146.200000
285.465240	147.320000
285.558380	147.060000
285.651459	146.620000
285.744568	147.760000
285.837677	147.340000
285.930756	147.280000
286.023865	147.520000
286.116943	147.000000
286.210052	146.680000
286.303162	146.760000
286.396240	146.460000
286.489349	146.520000
286.582458	146.980000
286.675568	146.360000
286.768646	146.440000
286.861755	146.800000
286.954865	147.160000
287.047974	146.620000
287.141083	146.720000
287.234161	146.480000
287.327271	146.200000
287.420380	146.600000
287.513519	146.660000
287.606598	146.660000
287.699738	146.980000
287.792816	146.880000
287.885956	146.240000
287.979034	146.580000
288.072174	146.720000
288.165283	146.540000
288.258392	146.840000
288.351501	146.380000
288.444611	146.100000
288.537720	146.640000
288.630859	146.360000
288.723969	146.440000
288.817078	147.020000
288.910187	147.220000
289.003296	146.520000
289.096436	146.400000
289.189545	146.120000
289.282654	145.820000
289.375763	146.340000
289.468903	146.760000
289.562012	147.340000
289.655121	147.560000
289.748260	147.560000
289.841400	147.620000
289.934509	147.260000
290.027649	147.320000
290.120728	147.120000
290.213898	147.260000
290.306976	147.000000
290.400146	147.340000
290.493256	146.900000
290.586395	147.080000
290.679535	147.440000
290.772644	146.960000
290.865784	146.080000
290.958893	146.300000
291.052032	146.080000
291.145172	145.800000
291.238281	145.760000
291.331421	146.060000
291.424561	146.600000
291.517670	146.400000
291.610809	146.600000
291.703949	146.720000
291.797089	147.100000
291.890228	146.480000
291.983337	146.760000
292.076477	146.420000
292.169617	146.500000
292.262756	146.440000
292.355927	146.580000
292.449036	146.480000
292.542206	146.900000
292.635315	147.160000
292.728485	147.340000
292.821625	147.000000
292.914764	147.900000
293.007904	147.820000
293.101044	147.620000
293.194183	147.500000
293.287323	147.560000
293.380463	147.000000
293.473602	146.540000
293.566742	146.660000
293.659882	146.980000
293.753021	147.200000
293.846191	147.020000
293.939331	147.000000
294.032471	146.940000
294.125610	146.560000
294.218781	146.960000
294.311920	147.200000
294.405060	147.420000
294.498230	147.340000
294.591370	147.400000
294.684540	146.660000
294.777679	145.980000
294.870850	146.220000
294.963959	146.100000
295.057159	145.640000
295.150299	146.040000
295.243469	146.220000
295.336609	145.660000
295.429779	145.620000
295.522919	146.080000
295.616089	146.020000
295.709229	146.520000
295.802399	146.920000
295.895569	146.540000
295.988708	146.420000
296.081879	146.580000
296.175018	146.080000
296.268188	145.960000
296.361359	146.660000
296.454529	146.680000
296.547668	146.520000
296.640839	146.960000
296.734009	146.560000
296.827179	146.820000
296.920319	146.900000
297.013519	146.780000
297.106659	146.700000
297.199860	146.840000
297.292999	146.600000
297.386200	146.280000
297.479309	145.940000
297.572510	146.020000
297.665680	145.940000
297.758850	146.040000
297.852020	146.380000
297.945190	146.460000
298.038361	145.700000
298.131531	146.660000
298.224701	146.240000
298.317871	146.020000
298.411072	145.920000
298.504242	146.360000
298.597412	145.700000
298.690582	146.060000
298.783752	145.940000
298.876923	146.320000
298.970093	146.260000
299.063293	146.940000
299.156464	147.120000
299.249634	147.520000
299.342834	147.780000
299.436005	148.060000
299.529205	147.620000
299.622345	147.680000
299.715576	147.340000
299.808716	147.000000
299.901917	147.180000
299.995117	147.200000
300.088287	147.060000
300.181488	147.040000
300.274658	147.100000
300.367828	146.940000
300.461029	147.060000
300.554199	147.160000
300.647400	146.940000
300.740601	147.500000
300.833771	147.080000
300.926971	147.180000
301.020142	146.580000
301.113342	146.640000
301.206512	146.180000
301.299713	146.560000
301.392914	146.300000
301.486084	146.840000
301.579285	146.780000
301.672516	147.220000
301.765686	147.040000
301.858887	146.940000
301.952057	146.920000
302.045288	147.120000
302.138458	146.920000
302.231659	146.860000
302.324860	146.700000
302.418060	146.260000
302.511261	146.380000
302.604462	146.480000
302.697662	146.320000
302.790863	146.440000
302.884064	146.180000
302.977264	145.880000
303.070465	145.620000
303.163666	146.480000
303.256866	146.680000
303.350067	147.020000
303.443268	147.080000
303.536469	147.300000
303.629669	146.420000
303.722870	146.440000
303.816071	145.860000
303.909271	146.040000
304.002472	145.380000
304.095673	144.920000
304.188934	144.160000
304.282104	145.300000
304.375336	145.340000
304.468506	145.360000
304.561768	145.640000
304.654968	146.440000
304.748169	146.280000
304.841370	146.080000
304.934601	146.660000
305.027802	146.640000
305.121002	145.960000
305.214233	145.380000
305.307434	145.360000
305.400665	145.680000
305.493866	145.840000
305.587097	146.440000
305.680298	146.400000
305.773499	147.180000
305.866730	146.500000
305.959930	146.800000
306.053162	146.900000
306.146393	146.760000
306.239594	145.520000
306.332825	145.720000
306.426025	145.960000
306.519287	145.380000
306.612488	145.660000
306.705719	146.220000
306.798920	146.120000
306.892181	145.720000
306.985352	145.680000
307.078613	145.360000
307.171844	145.720000
307.265045	145.480000
307.358276	145.040000
307.451508	145.320000
307.544739	145.840000
307.637970	145.340000
307.731201	145.180000
307.824402	145.960000
307.917633	146.180000
308.010864	146.620000
308.104095	147.020000
308.197327	147.280000
308.290558	147.100000
308.383789	146.660000
308.477020	146.280000
308.570251	145.380000
308.663483	145.300000
308.756714	145.180000
308.849976	145.300000
308.943176	145.720000
309.036438	146.220000
309.129639	145.900000
309.222900	145.680000
309.316101	145.700000
309.409393	144.660000
309.502625	144.640000
309.595856	145.020000
309.689087	145.360000
309.782318	145.560000
309.875580	146.160000
309.968811	146.360000
310.062042	146.380000
310.155273	146.220000
310.248535	146.460000
310.341766	146.240000
310.434998	146.220000
310.528259	145.860000
310.621490	146.240000
310.714722	145.620000
310.807983	145.480000
310.901215	145.340000
310.994476	145.800000
311.087708	145.540000
311.181000	145.920000
311.274200	145.920000
311.367462	146.320000
311.460693	146.040000
311.553986	146.600000
311.647186	146.600000
311.740479	147.220000
311.833710	146.740000
311.926971	146.980000
312.020203	145.940000
312.113464	145.820000
312.206726	145.080000
312.299957	145.520000
312.393219	145.860000
312.486481	146.360000
312.579712	146.180000
312.672974	146.500000
312.766235	146.100000
312.859497	145.980000
312.952759	146.140000
313.045990	147.120000
313.139252	146.620000
313.232513	147.040000
313.325775	147.120000
313.419037	146.540000
313.512299	145.280000
313.605530	146.360000
313.698822	146.320000
313.792053	146.120000
313.885345	146.180000
313.978577	146.960000
314.071869	146.140000
314.165131	146.320000
314.258392	146.560000
314.351654	146.540000
314.444916	145.920000
314.538177	146.460000
314.631439	146.440000
314.724701	146.180000
314.817993	146.060000
314.911255	146.500000
315.004517	145.660000
315.097778	145.260000
315.191040	145.800000
315.284302	146.400000
315.377594	146.120000
315.470856	146.420000
315.564117	146.220000
315.657379	145.540000
315.750671	145.120000
315.843933	145.740000
315.937195	145.560000
316.030518	145.720000
316.123749	145.620000
316.217041	146.440000
316.310303	146.080000
316.403595	146.380000
316.496857	146.540000
316.590149	147.120000
316.683411	146.120000
316.776703	145.680000
316.869965	145.680000
316.963257	145.240000
317.056519	144.440000
317.149811	144.580000
317.243073	144.820000
317.336365	144.700000
317.429626	145.180000
317.522919	145.760000
317.616180	145.880000
317.709473	145.840000
317.802765	145.860000
317.896027	145.960000
317.989319	146.140000
318.082611	146.140000
318.175873	146.060000
318.269165	146.120000
318.362488	145.880000
318.455750	145.420000
318.549042	145.980000
318.642303	146.340000
318.735626	146.140000
318.828888	146.020000
318.922211	145.800000
319.015472	145.960000
319.108765	145.480000
319.202057	145.440000
319.295349	145.880000
319.388641	145.780000
319.481934	145.520000
319.575226	145.580000
319.668518	146.040000
319.761810	146.400000
319.855103	146.980000
319.948395	146.800000
320.041687	147.200000
320.134979	146.940000
320.228271	146.020000
320.321564	145.840000
320.414856	145.560000
320.508148	144.820000
320.601440	144.740000
320.694763	144.740000
320.788025	145.220000
320.881348	145.440000
320.974640	146.020000
321.067963	145.660000
321.161224	145.920000
321.254547	145.220000
321.347839	145.880000
321.441162	145.460000
321.534454	146.040000
321.627747	145.960000
321.721069	146.940000
321.814362	146.420000
321.907654	146.440000
322.000946	146.220000
322.094269	146.760000
322.187561	145.920000
322.280884	146.300000
322.374176	146.640000
322.467468	146.960000
322.560791	146.560000
322.654083	146.980000
322.747406	146.900000
322.840698	147.380000
322.934021	147.780000
323.027344	148.120000
323.120636	147.980000
323.213959	147.880000
323.307251	147.260000
323.400574	146.660000
323.493866	146.360000
323.587219	146.380000
323.680511	146.360000
323.773834	146.240000
323.867157	146.580000
323.960449	146.660000
324.053772	146.440000
324.147095	146.240000
324.240387	147.060000
324.333710	146.980000
324.427032	146.780000
324.520355	146.760000
324.613647	146.600000
324.706970	145.880000
324.800293	145.720000
324.893616	146.080000
324.986938	146.300000
325.080231	145.940000
325.173553	146.260000
325.266876	146.680000
325.360199	146.640000
325.453522	146.260000
325.546875	146.500000
325.640167	146.580000
325.733521	146.540000
325.826813	146.540000
325.920166	146.480000
326.013489	146.460000
326.106812	145.740000
326.200134	145.420000
326.293457	144.780000
326.386780	145.080000
326.480103	145.020000
326.573425	145.380000
326.666748	145.160000
326.760071	145.960000
326.853424	146.120000
326.946747	145.980000
327.040070	146.680000
327.133392	146.520000
327.226715	145.360000
327.320068	144.540000
327.413391	145.460000
327.506714	144.580000
327.600037	144.740000
327.693390	145.300000
327.786713	145.780000
327.880066	145.420000
327.973358	145.940000
328.066742	146.360000
328.160034	146.820000
328.253418	146.940000
328.346710	146.440000
328.440063	146.060000
328.533417	145.700000
328.626740	145.780000
328.720093	145.580000
328.813416	145.840000
328.906769	145.940000
329.000092	145.880000
329.093445	145.340000
329.186768	145.380000
329.280121	145.860000
329.373444	145.920000
329.466797	146.380000
329.560120	146.760000
329.653473	146.880000
329.746796	146.400000
329.840149	146.500000
329.933502	146.300000
330.026825	146.120000
330.120178	145.940000
330.213562	145.780000
330.306854	145.800000
330.400238	145.740000
330.493561	145.520000
330.586945	146.220000
330.680237	146.560000
330.773621	146.680000
330.866974	146.620000
330.960327	146.720000
331.053680	145.980000
331.147003	146.140000
331.240356	146.320000
331.333710	146.300000
331.427063	146.280000
331.520416	146.520000
331.613770	146.240000
331.707123	145.960000
331.800476	146.180000
331.893829	146.960000
331.987152	147.040000
332.080505	147.160000
332.173859	147.000000
332.267212	146.580000
332.360565	145.640000
332.453918	145.540000
332.547333	145.500000
332.640656	145.460000
332.734039	145.840000
332.827362	146.140000
332.920746	146.460000
333.014069	146.620000
333.107452	146.860000
333.200806	146.720000
333.294159	147.020000
333.387543	146.520000
333.480896	145.900000
333.574249	145.540000
333.667603	145.160000
333.760956	145.020000
333.854340	145.000000
333.947693	145.620000
334.041046	146.100000
334.134430	146.560000
334.227783	146.400000
334.321136	146.440000
334.414520	145.840000
334.507874	145.720000
334.601227	145.800000
334.694611	145.800000
334.787964	145.900000
334.881348	146.400000
334.974701	146.240000
335.068085	145.880000
335.161438	146.220000
335.254822	146.080000
335.348175	146.060000
335.441559	145.680000
335.534943	146.500000
335.628296	145.940000
335.721680	146.100000
335.815033	146.280000
335.908417	146.800000
336.001770	146.380000
336.095154	146.480000
336.188538	146.140000
336.281891	145.780000
336.375275	145.420000
336.468658	144.960000
336.562012	145.060000
336.655396	145.700000
336.748779	145.940000
336.842133	146.140000
336.935516	146.800000
337.028900	146.520000
337.122284	146.400000
337.215637	146.440000
337.309021	146.260000
337.402435	145.720000
337.495789	145.760000
337.589203	145.360000
337.682526	145.080000
337.775940	145.420000
337.869324	145.680000
337.962708	145.560000
338.056091	146.320000
338.149475	145.980000
338.242859	146.000000
338.336243	145.680000
338.429626	146.000000
338.523010	145.600000
338.616394	145.880000
338.709778	145.900000
338.803162	146.300000
338.896545	146.340000
338.989929	145.840000
339.083313	146.220000
339.176697	146.120000
339.270081	145.940000
339.363464	146.420000
339.456848	147.220000
339.550232	146.680000
339.643616	146.340000
339.737030	146.240000
339.830383	145.780000
339.923828	145.600000
340.017181	145.660000
340.110596	145.760000
340.203949	145.840000
340.297363	145.520000
340.390778	145.320000
340.484161	145.620000
340.577545	145.320000
340.670959	145.380000
340.764343	145.460000
340.857727	145.720000
340.951111	145.260000
341.044525	145.980000
341.137909	145.300000
341.231293	145.280000
341.324707	144.880000
341.418091	145.640000
341.511505	145.480000
341.604889	145.960000
341.698303	146.060000
341.791687	146.360000
341.885071	145.800000
341.978485	145.260000
342.071899	145.720000
342.165283	145.920000
342.258698	145.820000
342.352081	146.080000
342.445496	146.960000
342.538879	146.560000
342.632324	146.380000
342.725708	146.460000
342.819122	146.080000
342.912506	145.340000
343.005920	145.480000
343.099335	146.300000
343.192719	146.120000
343.286133	146.380000
343.379547	147.080000
343.472931	146.980000
343.566345	146.060000
343.659760	146.360000
343.753143	146.080000
343.846558	145.440000
343.939972	145.320000
344.033386	146.220000
344.126770	145.960000
344.220184	146.220000
344.313599	146.880000
344.407043	147.100000
344.500427	146.060000
344.593872	146.400000
344.687225	146.080000
344.780670	145.620000
344.874054	145.240000
344.967499	145.960000
345.060913	145.740000
345.154327	145.860000
345.247742	145.540000
345.341156	145.720000
345.434570	145.240000
345.527985	145.340000
345.621399	145.600000
345.714813	146.100000
345.808228	146.600000
345.901642	146.760000
345.995056	146.260000
346.088470	146.460000
346.181885	146.280000
346.275299	145.540000
346.368713	145.260000
346.462128	145.220000
346.555573	144.940000
346.648987	145.240000
346.742401	145.440000
346.835815	146.020000
346.929260	146.040000
347.022644	146.000000
347.116119	145.800000
347.209503	146.020000
347.302948	146.520000
347.396362	147.040000
347.489807	147.340000
347.583221	147.800000
347.676636	147.480000
347.770050	146.420000
347.863495	145.900000
347.956909	145.560000
348.050323	145.000000
348.143768	145.040000
348.237183	145.140000
348.330597	145.740000
348.424042	146.120000
348.517456	146.580000
348.610901	147.000000
348.704315	146.840000
348.797760	146.340000
348.891174	145.880000
348.984619	145.380000
349.078033	145.600000
349.171448	146.260000
349.264923	146.200000
349.358337	146.140000
349.451782	146.120000
349.545197	145.480000
349.638641	144.640000
349.732086	144.440000
349.825500	145.000000
349.918945	144.700000
350.012390	145.060000
350.105804	145.740000
350.199249	146.020000
350.292664	146.160000
350.386108	146.460000
350.479553	146.980000
350.572968	146.860000
350.666412	147.120000
350.759857	146.820000
350.853302	147.100000
350.946716	146.260000
351.040161	146.020000
351.133606	146.080000
351.227081	145.880000
351.320465	146.640000
351.413940	146.940000
351.507355	147.440000
351.600830	147.380000
351.694244	147.160000
351.787720	146.580000
351.881104	146.520000
351.974579	146.160000
352.067993	146.700000
352.161469	146.740000
352.254883	146.200000
352.348358	146.080000
352.441803	146.180000
352.535248	145.560000
352.628693	146.140000
352.722137	146.280000
352.815582	146.620000
352.909027	146.580000
353.002472	146.560000
353.095917	146.160000
353.189362	146.440000
353.282806	146.360000
353.376251	146.360000
353.469696	146.080000
353.563141	146.820000
353.656586	146.500000
353.750061	145.920000
353.843475	145.700000
353.936981	146.440000
354.030396	145.880000
354.123871	146.060000
354.217285	147.260000
354.310760	147.660000
354.404175	147.260000
354.497681	146.840000
354.591095	146.800000
354.684570	145.760000
354.777985	145.380000
354.871490	145.060000
354.964935	145.640000
355.058380	145.840000
355.151855	145.660000
355.245300	146.240000
355.338745	146.720000
355.432220	146.380000
355.525665	145.740000
355.619110	146.620000
355.712585	146.120000
355.806030	145.720000
355.899475	145.600000
355.992950	146.080000
356.086426	146.060000
356.179871	146.220000
356.273346	146.360000
356.366791	146.860000
356.460266	147.220000
356.553711	146.420000
356.647186	146.500000
356.740631	146.300000
356.834106	145.720000
356.927551	145.440000
357.021027	145.760000
357.114471	145.780000
357.207947	146.220000
357.301422	146.680000
357.394867	146.720000
357.488342	147.060000
357.581818	147.120000
357.675262	147.020000
357.768738	146.820000
357.862213	146.160000
357.955658	146.140000
358.049133	146.000000
358.142609	146.240000
358.236053	146.240000
358.329529	146.560000
358.423035	146.900000
358.516449	146.520000
358.609955	146.460000
358.703400	147.200000
358.796906	147.100000
358.890350	146.100000
358.983826	146.460000
359.077271	146.120000
359.170776	145.540000
359.264221	145.780000
359.357727	146.380000
359.451172	146.420000
359.544647	146.540000
359.638123	146.240000
359.731598	146.420000
359.825073	146.420000
359.918549	146.760000
360.012024	147.120000
360.105499	147.000000
360.198975	147.020000
360.292450	146.700000
360.385925	146.400000
360.479401	145.720000
360.572876	146.040000
360.666351	146.160000
360.759857	146.500000
360.853302	146.340000
360.946808	146.120000
361.040253	146.320000
361.133759	145.860000
361.227203	146.040000
361.320709	145.940000
361.414154	146.660000
361.507660	146.720000
361.601105	147.300000
361.694641	147.800000
361.788086	147.700000
361.881592	147.960000
361.975067	147.600000
362.068542	147.800000
362.162018	147.420000
362.255524	147.180000
362.348999	146.880000
362.442474	147.080000
362.535950	146.200000
362.629456	145.880000
362.722931	146.120000
362.816406	146.440000
362.909882	146.760000
363.003387	146.620000
363.096863	146.740000
363.190338	146.860000
363.283875	146.300000
363.377319	146.000000
363.470825	146.940000
363.564301	146.460000
363.657806	146.700000
363.751282	146.640000
363.844788	147.280000
363.938232	146.540000
364.031769	147.360000
364.125214	147.280000
364.218750	147.960000
364.312225	146.960000
364.405731	147.540000
364.499207	146.600000
364.592712	146.380000
364.686188	145.740000
364.779694	146.180000
364.873169	145.860000
364.966675	146.040000
365.060150	146.060000
365.153656	146.660000
365.247131	146.340000
365.340637	146.600000
365.434143	147.220000
365.527618	147.240000
365.621155	146.220000
365.714600	146.160000
365.808136	146.080000
365.901611	145.360000
365.995117	145.180000
366.088593	145.500000
366.182129	145.460000
366.275604	145.380000
366.369110	145.440000
366.462585	145.600000
366.556122	146.420000
366.649567	146.460000
366.743103	146.400000
366.836609	146.360000
366.930115	146.820000
367.023590	146.480000
367.117096	146.500000
367.210602	146.620000
367.304108	147.180000
367.397614	147.280000
367.491119	147.400000
367.584595	147.500000
367.678101	147.880000
367.771606	147.500000
367.865112	146.920000
367.958649	146.000000
368.052124	145.780000
368.145660	145.360000
368.239136	145.940000
368.332672	146.120000
368.426147	146.660000
368.519684	146.760000
368.613159	147.140000
368.706696	146.740000
368.800171	146.760000
368.893707	146.740000
368.987183	146.700000
369.080719	146.600000
369.174225	146.140000
369.267731	146.340000
369.361237	146.660000
369.454742	146.560000
369.548248	146.840000
369.641754	146.900000
369.735260	146.800000
369.828766	145.780000
369.922272	146.360000
370.015808	145.740000
370.109314	145.860000
370.202820	145.300000
370.296356	146.700000
370.389832	146.220000
370.483368	146.180000
370.576874	146.240000
370.670410	146.920000
370.763885	145.660000
370.857422	145.940000
370.950928	145.820000
371.044464	146.460000
371.137939	146.120000
371.231476	146.860000
371.324982	147.240000
371.418518	147.300000
371.512024	146.880000
371.605560	146.740000
371.699066	146.980000
371.792572	146.260000
371.886108	146.440000
371.979614	146.380000
372.073120	147.020000
372.166656	146.560000
372.260162	147.120000
372.353668	147.200000
372.447205	146.860000
372.540710	146.560000
372.634277	146.320000
372.727753	146.040000
372.821320	146.000000
372.914795	146.260000
373.008362	146.220000
373.101837	146.340000
373.195404	146.120000
373.288879	145.820000
373.382446	146.380000
373.475922	146.060000
373.569489	146.980000
373.662964	147.740000
373.756531	147.740000
373.850037	147.280000
373.943573	147.480000
374.037109	146.200000
374.130615	146.040000
374.224152	146.680000
374.317657	146.500000
374.411194	147.120000
374.504730	147.160000
374.598236	146.540000
374.691772	145.920000
374.785309	146.020000
374.878815	144.980000
374.972351	145.540000
375.065887	145.480000
375.159454	146.220000
375.252930	146.160000
375.346497	146.700000
375.440002	147.540000
375.533569	147.980000
375.627045	147.280000
375.720612	147.280000
375.814117	147.600000
375.907684	146.400000
376.001160	145.720000
376.094727	145.200000
376.188232	146.080000
376.281799	146.060000
376.375336	146.340000
376.468872	147.360000
376.562408	148.040000
376.655914	147.440000
376.749451	147.160000
376.842987	147.280000
376.936523	146.880000
377.030060	146.660000
377.123596	146.800000
377.217133	146.440000
377.310669	146.440000
377.404205	146.680000
377.497772	147.220000
377.591278	146.900000
377.684845	147.820000
377.778351	148.120000
377.871918	147.480000
377.965424	146.600000
378.058990	146.560000
378.152496	146.140000
378.246063	146.000000
378.339569	146.820000
378.433136	147.000000
378.526642	147.120000
378.620209	147.100000
378.713745	146.940000
378.807312	146.860000
378.900848	147.060000
378.994385	147.160000
379.087921	146.520000
379.181458	146.580000
379.274994	145.940000
379.368530	145.680000
379.462097	145.960000
379.555634	146.660000
379.649170	146.280000
379.742706	146.260000
379.836273	146.660000
379.929810	146.160000
380.023376	145.540000
380.116882	145.620000
380.210449	146.000000
380.303986	145.860000
380.397552	145.600000
380.491058	146.020000
380.584656	146.020000
380.678162	145.960000
380.771729	145.940000
380.865265	146.860000
380.958832	147.060000
381.052368	147.460000
381.145935	147.660000
381.239471	147.980000
381.333008	147.700000
381.426575	147.480000
381.520111	147.400000
381.613647	147.500000
381.707214	147.080000
381.800751	146.300000
381.894318	146.420000
381.987854	146.020000
382.081421	145.840000
382.174988	146.080000
382.268524	146.040000
382.362091	145.880000
382.455627	146.780000
382.549194	146.540000
382.642731	146.140000
382.736298	146.400000
382.829834	146.480000
382.923401	146.640000
383.016937	146.840000
383.110504	147.060000
383.204041	146.880000
383.297607	147.280000
383.391174	146.300000
383.484741	146.840000
383.578278	146.580000
383.671844	146.320000
383.765411	145.400000
383.858948	145.860000
383.952515	145.460000
384.046051	146.380000
384.139618	147.160000
384.233185	147.600000
384.326721	147.460000
384.420288	148.140000
384.513855	147.700000
384.607422	147.740000
384.700989	147.940000
384.794525	147.520000
384.888123	146.720000
384.981659	146.680000
385.075226	146.120000
385.168762	145.880000
385.262360	146.120000
385.355896	145.600000
385.449463	145.540000
385.542999	145.640000
385.636597	146.440000
385.730164	146.600000
385.823730	146.500000
385.917267	146.220000
386.010834	146.440000
386.104401	145.880000
386.197968	146.020000
386.291534	146.660000
386.385101	146.960000
386.478668	147.200000
386.572235	146.920000
386.665802	146.540000
386.759338	146.320000
386.852905	145.820000
386.946472	145.460000
387.040070	145.600000
387.133606	145.720000
387.227203	145.560000
387.320740	146.180000
387.414337	145.960000
387.507874	145.860000
387.601471	145.980000
387.695007	146.200000
387.788605	146.000000
387.882141	146.520000
387.975739	146.660000
388.069275	146.460000
388.162872	146.800000
388.256439	146.500000
388.350037	146.200000
388.443604	146.080000
388.537170	146.040000
388.630737	146.360000
388.724304	146.640000
388.817871	146.540000
388.911438	146.560000
389.005005	146.920000
389.098602	146.700000
389.192169	146.300000
389.285736	146.740000
389.379333	146.920000
389.472870	146.360000
389.566467	146.200000
389.660034	146.600000
389.753632	146.080000
389.847168	146.220000
389.940765	146.460000
390.034332	146.560000
390.127930	146.200000
390.221466	146.420000
390.315063	145.920000
390.408630	145.320000
390.502228	144.480000
390.595795	144.880000
390.689362	144.880000
390.782959	145.120000
390.876526	146.140000
390.970093	146.460000
391.063690	146.840000
391.157257	147.140000
391.250824	147.600000
391.344421	146.980000
391.437988	147.420000
391.531555	147.280000
391.625153	147.200000
391.718750	146.820000
391.812317	146.940000
391.905914	146.200000
391.999481	146.240000
392.093079	146.420000
392.186615	146.980000
392.280243	147.040000
392.373779	147.360000
392.467407	147.500000
392.560944	147.040000
392.654572	146.560000
392.748108	146.300000
392.841736	146.360000
392.935303	145.940000
393.028900	146.100000
393.122467	146.220000
393.216064	146.000000
393.309631	145.600000
393.403229	145.400000
393.496796	145.500000
393.590393	144.520000
393.683990	145.200000
393.777557	145.940000
393.871155	146.500000
393.964722	146.480000
394.058350	147.160000
394.151917	146.920000
394.245514	146.680000
394.339081	146.740000
394.432678	146.860000
394.526245	146.840000
394.619873	146.500000
394.713409	146.440000
394.807037	145.920000
394.900604	146.080000
394.994202	145.880000
395.087769	146.180000
395.181396	145.800000
395.274994	146.600000
395.368561	145.680000
395.462158	146.280000
395.555756	146.180000
395.649353	146.880000
395.742920	146.480000
395.836517	147.500000
395.930115	146.560000
396.023712	146.920000
396.117279	146.920000
396.210876	146.540000
396.304474	146.060000
396.398071	146.780000
396.491669	146.540000
396.585266	146.000000
396.678833	145.600000
396.772461	146.000000
396.866028	145.860000
396.959656	146.300000
397.053223	147.360000
397.146851	148.160000
397.240417	148.840000
397.334015	150.560000
397.427582	152.320000
397.521210	154.200000
397.614807	157.560000
397.708405	161.440000
397.802002	166.160000
397.895599	172.700000
397.989197	180.680000
398.082794	190.160000
398.176392	201.500000
398.269989	213.940000
398.363586	228.520000
398.457184	245.040000
398.550781	263.640000
398.644379	281.620000
398.737976	301.960000
398.831573	321.380000
398.925201	340.700000
399.018768	359.560000
399.112396	381.220000
399.205963	403.240000
399.299591	426.760000
399.393158	452.060000
399.486786	476.940000
399.580353	499.440000
399.673981	516.280000
399.767578	528.880000
399.861206	534.520000
399.954773	534.200000
400.048401	526.160000
400.141998	514.220000
400.235596	499.080000
400.329193	481.140000
400.422791	462.320000
400.516418	444.420000
400.610016	427.300000
400.703613	408.740000
400.797211	388.180000
400.890808	365.960000
400.984436	344.260000
401.078033	321.420000
401.171631	299.020000
401.265259	279.300000
401.358826	262.300000
401.452484	245.560000
401.546051	231.520000
401.639679	218.060000
401.733246	206.480000
401.826904	195.060000
401.920471	185.160000
402.014099	176.240000
402.107697	169.700000
402.201324	163.780000
402.294891	159.880000
402.388550	156.740000
402.482147	154.180000
402.575745	152.080000
402.669373	150.340000
402.762970	149.100000
402.856567	148.460000
402.950195	148.060000
403.043793	147.800000
403.137390	148.480000
403.231018	147.560000
403.324615	147.880000
403.418243	147.440000
403.511841	147.720000
403.605469	147.260000
403.699066	147.780000
403.792694	147.380000
403.886292	147.820000
403.979919	147.400000
404.073517	146.860000
404.167145	147.160000
404.260712	147.080000
404.354370	146.760000
404.447937	146.700000
404.541595	146.900000
404.635162	146.880000
404.728821	147.460000
404.822418	147.120000
404.916046	146.780000
405.009644	147.280000
405.103271	147.480000
405.196899	146.800000
405.290497	146.980000
405.384125	147.400000
405.477722	146.520000
405.571350	145.800000
405.664948	146.020000
405.758575	146.020000
405.852203	145.720000
405.945801	146.040000
406.039429	145.840000
406.133057	145.480000
406.226654	145.160000
406.320312	145.120000
406.413879	145.460000
406.507538	145.940000
406.601135	145.740000
406.694763	146.560000
406.788361	146.560000
406.882019	145.960000
406.975586	146.400000
407.069244	147.020000
407.162872	146.420000
407.256470	146.420000
407.350098	146.700000
407.443726	146.080000
407.537323	145.500000
407.630951	146.000000
407.724579	145.640000
407.818207	146.200000
407.911804	145.820000
408.005432	145.980000
408.099060	146.040000
408.192688	146.500000
408.286285	145.940000
408.379913	145.980000
408.473572	145.860000
408.567169	145.240000
408.660828	144.960000
408.754395	144.700000
408.848053	144.700000
408.941650	145.080000
409.035309	144.900000
409.128906	144.760000
409.222565	144.880000
409.316132	145.480000
409.409790	144.920000
409.503387	145.360000
409.597046	146.060000
409.690674	146.380000
409.784302	146.260000
409.877930	146.300000
409.971558	146.380000
410.065186	146.220000
410.158783	145.960000
410.252411	145.660000
410.346039	146.220000
410.439667	146.040000
410.533295	145.900000
410.626923	146.380000
410.720551	146.240000
410.814209	146.440000
410.907806	146.560000
411.001465	146.240000
411.095062	145.900000
411.188721	146.100000
411.282318	145.460000
411.375977	145.020000
411.469574	145.320000
411.563232	145.060000
411.656830	144.760000
411.750488	144.680000
411.844086	144.860000
411.937744	145.060000
412.031372	145.000000
412.125000	145.340000
412.218628	145.660000
412.312256	146.660000
412.405884	146.760000
412.499512	146.880000
412.593170	147.080000
412.686798	147.160000
412.780426	146.400000
412.874054	146.600000
412.967682	146.680000
413.061310	147.180000
413.154968	147.500000
413.248566	147.460000
413.342224	147.100000
413.435852	147.340000
413.529510	146.560000
413.623108	145.700000
413.716766	145.680000
413.810364	145.860000
413.904022	145.560000
413.997650	145.540000
414.091309	146.680000
414.184906	146.400000
414.278564	145.980000
414.372192	146.380000
414.465851	146.560000
414.559479	145.780000
414.653107	146.580000
414.746735	146.660000
414.840393	146.760000
414.934021	147.320000
415.027649	146.820000
415.121277	146.500000
415.214935	146.880000
415.308563	146.580000
415.402191	145.620000
415.495850	146.060000
415.589478	145.860000
415.683136	145.460000
415.776733	145.840000
415.870422	146.500000
415.964020	146.080000
416.057678	145.920000
416.151306	145.940000
416.244965	145.800000
416.338562	145.460000
416.432251	146.400000
416.525848	147.340000
416.619507	147.600000
416.713165	147.540000
416.806793	147.400000
416.900421	147.380000
416.994080	146.440000
417.087708	146.560000
417.181366	146.260000
417.274994	146.480000
417.368622	146.560000
417.462280	147.160000
417.555908	146.780000
417.649567	146.820000
417.743195	146.800000
417.836853	146.500000
417.930481	146.660000
418.024170	147.140000
418.117767	147.540000
418.211426	147.820000
418.305054	147.860000
418.398712	147.260000
418.492340	146.880000
418.585999	146.920000
418.679626	146.960000
418.773285	147.000000
418.866913	147.480000
418.960571	147.680000
419.054230	147.460000
419.147858	147.040000
419.241516	147.100000
419.335144	146.580000
419.428802	146.480000
419.522461	146.200000
419.616089	145.940000
419.709747	145.940000
419.803375	146.100000
419.897034	146.100000
419.990662	146.080000
420.084320	146.740000
420.177979	146.900000
420.271606	147.040000
420.365295	147.120000
420.458893	147.600000
420.552582	147.760000
420.646210	147.620000
420.739868	147.520000
420.833496	147.260000
420.927155	146.620000
421.020782	145.860000
421.114471	145.460000
421.208069	145.400000
421.301758	145.840000
421.395386	146.080000
421.489044	146.320000
421.582703	146.400000
421.676361	146.900000
421.769989	146.200000
421.863647	146.680000
421.957306	146.880000
422.050934	147.060000
422.144592	146.760000
422.238251	146.980000
422.331909	146.620000
422.425537	146.360000
422.519196	146.280000
422.612854	145.760000
422.706543	145.400000
422.800140	145.720000
422.893829	145.460000
422.987457	145.240000
423.081146	145.300000
423.174744	146.120000
423.268433	145.660000
423.362061	145.840000
423.455750	145.800000
423.549347	146.180000
423.643036	145.340000
423.736664	145.840000
423.830353	146.060000
423.924011	146.660000
424.017639	146.140000
424.111298	146.600000
424.204956	146.320000
424.298615	146.500000
424.392273	146.040000
424.485931	146.260000
424.579559	146.320000
424.673218	146.240000
424.766876	145.880000
424.860535	145.540000
424.954193	145.540000
425.047882	145.860000
425.141510	145.680000
425.235199	145.920000
425.328796	146.000000
425.422485	145.880000
425.516113	145.020000
425.609802	145.120000
425.703430	145.100000
425.797119	145.040000
425.890747	145.300000
425.984436	145.600000
426.078064	145.660000
426.171753	145.700000
426.265411	145.880000
426.359070	146.040000
426.452728	146.060000
426.546356	145.880000
426.640015	145.580000
426.733673	145.580000
426.827332	145.200000
426.920990	145.940000
427.014648	145.860000
427.108307	146.120000
427.201965	146.620000
427.295624	146.840000
427.389282	146.020000
427.482941	146.540000
427.576630	146.360000
427.670258	145.680000
427.763947	145.640000
427.857574	145.900000
427.951263	145.480000
428.044922	145.400000
428.138611	145.500000
428.232239	146.040000
428.325928	146.560000
428.419556	147.140000
428.513245	147.100000
428.606903	147.100000
428.700562	146.180000
428.794220	145.360000
428.887878	144.720000
428.981537	145.160000
429.075195	145.300000
429.168854	145.940000
429.262512	146.200000
429.356201	146.480000
429.449860	146.160000
429.543518	146.180000
429.637177	146.300000
429.730835	146.180000
429.824493	146.240000
429.918182	146.240000
430.011810	145.920000
430.105530	145.380000
430.199158	145.580000
430.292847	145.320000
430.386475	145.360000
430.480164	145.300000
430.573792	145.060000
430.667511	144.900000
430.761139	144.880000
430.854828	144.920000
430.948456	145.240000
431.042145	145.700000
431.135834	145.660000
431.229492	145.760000
431.323151	146.160000
431.416809	146.140000
431.510468	146.340000
431.604156	146.500000
431.697815	146.460000
431.791473	145.780000
431.885132	145.560000
431.978821	145.660000
432.072479	145.640000
432.166138	146.160000
432.259827	146.220000
432.353485	146.580000
432.447174	146.480000
432.540802	146.540000
432.634491	146.480000
432.728149	146.800000
432.821838	147.120000
432.915466	146.560000
433.009186	146.340000
433.102814	145.680000
433.196503	145.600000
433.290131	145.380000
433.383850	146.000000
433.477509	146.320000
433.571167	147.120000
433.664856	147.480000
433.758514	148.020000
433.852173	147.900000
433.945862	147.640000
434.039520	147.180000
434.133179	146.700000
434.226868	146.140000
434.320526	145.500000
434.414185	146.220000
434.507874	146.120000
434.601562	146.260000
434.695221	145.800000
434.788910	146.240000
434.882538	145.960000
434.976257	145.780000
435.069885	145.900000
435.163574	146.420000
435.257233	145.980000
435.350922	145.820000
435.444580	145.800000
435.538269	145.300000
435.631897	145.620000
435.725616	146.320000
435.819275	146.700000
435.912964	147.140000
436.006622	147.800000
436.100311	147.420000
436.193970	146.860000
436.287628	146.080000
436.381317	145.680000
436.474976	145.500000
436.568665	145.200000
436.662323	145.640000
436.756012	146.020000
436.849670	145.960000
436.943390	145.960000
437.037018	146.080000
437.130737	145.960000
437.224365	145.560000
437.318085	145.940000
437.411713	145.900000
437.505432	146.360000
437.599060	146.720000
437.692780	147.780000
437.786407	147.460000
437.880127	147.060000
437.973755	146.360000
438.067474	145.520000
438.161133	145.040000
438.254822	145.460000
438.348480	145.640000
438.442169	146.400000
438.535828	147.120000
438.629517	146.580000
438.723175	145.900000
438.816864	146.300000
438.910553	145.620000
439.004211	145.340000
439.097900	145.460000
439.191559	145.820000
439.285248	145.220000
439.378906	145.720000
439.472626	145.660000
439.566284	145.560000
439.659973	145.720000
439.753632	145.700000
439.847321	145.980000
439.940979	146.080000
440.034698	146.380000
440.128326	145.900000
440.222046	145.980000
440.315674	145.100000
440.409393	145.260000
440.503082	144.880000
440.596741	145.260000
440.690430	145.360000
440.784088	145.460000
440.877777	144.840000
440.971466	145.020000
441.065125	144.840000
441.158813	144.700000
441.252502	144.980000
441.346161	145.660000
441.439850	145.960000
441.533539	145.820000
441.627197	146.320000
441.720886	146.240000
441.814606	146.440000
441.908234	146.720000
442.001953	146.640000
442.095612	146.320000
442.189301	146.400000
442.282959	146.160000
442.376678	145.240000
442.470306	146.280000
442.564026	146.020000
442.657684	145.900000
442.751404	145.700000
442.845032	146.720000
442.938751	145.860000
443.032440	146.100000
443.126099	145.880000
443.219788	146.480000
443.313477	146.040000
443.407166	146.260000
443.500824	146.400000
443.594513	146.800000
443.688202	146.400000
443.781891	145.820000
443.875549	145.540000
443.969238	145.640000
444.062927	145.800000
444.156647	145.620000
444.250275	146.400000
444.343994	146.520000
444.437653	146.600000
444.531372	146.400000
444.625031	146.260000
444.718719	145.820000
444.812378	145.840000
444.906097	145.440000
444.999756	144.960000
445.093445	145.240000
445.187103	145.240000
445.280823	145.820000
445.374512	145.500000
445.468201	145.900000
445.561859	145.500000
445.655548	145.820000
445.749237	145.180000
445.842926	145.600000
445.936615	145.940000
446.030304	146.160000
446.123962	146.200000
446.217651	146.220000
446.311340	146.380000
446.405029	145.780000
446.498749	145.540000
446.592407	144.980000
446.686096	145.340000
446.779755	145.340000
446.873474	145.480000
446.967133	145.600000
447.060852	145.620000
447.154510	145.460000
447.248230	145.420000
447.341858	145.640000
447.435577	145.660000
447.529236	145.480000
447.622955	145.340000
447.716644	145.520000
447.810333	145.400000
447.904022	145.940000
447.997711	146.340000
448.091400	146.760000
448.185059	146.640000
448.278748	146.980000
448.372437	146.700000
448.466125	146.820000
448.559814	146.380000
448.653503	146.740000
448.747192	146.940000
448.840912	147.340000
448.934570	147.480000
449.028290	148.100000
449.121948	147.520000
449.215637	146.840000
449.309296	145.940000
449.403015	145.940000
449.496674	145.540000
449.590393	145.680000
449.684052	145.800000
449.777771	146.780000
449.871429	146.400000
449.965149	146.320000
450.058838	146.540000
450.152527	146.980000
450.246216	146.680000
450.339905	146.620000
450.433594	146.400000
450.527283	147.000000
450.620972	146.440000
450.714661	146.380000
450.808350	146.700000
450.902039	147.240000
450.995728	146.780000
451.089417	146.600000
451.183105	146.480000
451.276794	146.820000
451.370514	146.240000
451.464172	145.320000
451.557892	145.480000
451.651550	145.580000
451.745270	145.180000
451.838928	145.020000
451.932648	145.600000
452.026306	146.220000
452.120026	145.660000
452.213684	146.100000
452.307404	146.420000
452.401062	146.540000
452.494781	146.380000
452.588470	146.660000
452.682159	145.920000
452.775848	146.140000
452.869537	145.720000
452.963226	145.160000
453.056915	144.940000
453.150604	145.100000
453.244293	144.980000
453.337982	145.740000
453.431671	146.420000
453.525360	147.120000
453.619049	147.080000
453.712769	146.900000
453.806427	146.400000
453.900146	145.840000
453.993805	145.320000
454.087555	145.720000
454.181213	145.980000
454.274933	145.840000
454.368591	145.980000
454.462311	146.060000
454.555969	145.540000
454.649689	145.840000
454.743347	145.760000
454.837067	146.440000
454.930756	146.960000
455.024445	147.520000
455.118134	147.200000
455.211853	147.420000
455.305542	146.920000
455.399231	146.400000
455.492920	146.100000
455.586609	146.160000
455.680298	146.400000
455.773987	145.820000
455.867676	146.040000
455.961365	146.180000
456.055084	146.020000
456.148773	145.580000
456.242493	146.060000
456.336151	146.040000
456.429871	146.080000
456.523529	146.260000
456.617249	146.300000
456.710907	146.980000
456.804626	146.700000
456.898315	146.120000
456.992035	146.320000
457.085693	145.840000
457.179413	144.900000
457.273102	145.880000
457.366791	146.080000
457.460480	146.120000
457.554199	147.160000
457.647888	147.140000
457.741577	146.260000
457.835266	146.400000
457.928955	146.280000
458.022644	145.980000
458.116364	146.700000
458.210052	146.760000
458.303741	146.900000
458.397461	146.340000
458.491119	146.120000
458.584839	145.780000
458.678528	145.240000
458.772247	144.980000
458.865906	145.360000
458.959625	146.040000
459.053284	145.840000
459.147003	146.200000
459.240692	146.740000
459.334412	146.780000
459.428070	146.280000
459.521790	146.280000
459.615479	146.380000
459.709198	146.320000
459.802887	145.940000
459.896576	145.720000
459.990265	146.000000
460.083954	146.140000
460.177673	145.660000
460.271362	145.720000
460.365051	145.680000
460.458740	145.360000
460.552429	144.880000
460.646149	144.980000
460.739838	144.980000
460.833527	145.420000
460.927246	144.980000
461.020905	145.100000
461.114655	145.180000
461.208313	145.320000
461.302032	144.680000
461.395691	145.060000
461.489441	145.060000
461.583099	145.020000
461.676819	144.860000
461.770477	145.480000
461.864197	145.360000
461.957916	145.480000
462.051605	144.900000
462.145294	145.780000
462.238983	145.420000
462.332703	146.260000
462.426392	146.960000
462.520081	147.560000
462.613770	146.640000
462.707489	146.860000
462.801178	146.340000
462.894867	145.820000
462.988556	145.540000
463.082275	145.820000
463.175964	145.280000
463.269684	145.260000
463.363342	145.200000
463.457092	144.860000
463.550751	145.200000
463.644470	145.780000
463.738129	145.600000
463.831879	145.620000
463.925537	146.540000
464.019257	146.500000
464.112946	146.180000
464.206665	146.420000
464.300323	146.380000
464.394043	146.200000
464.487762	145.880000
464.581451	146.320000
464.675140	146.120000
464.768829	146.440000
464.862549	146.460000
464.956238	146.560000
465.049927	146.300000
465.143646	146.380000
465.237335	146.340000
465.331024	146.620000
465.424713	146.720000
465.518433	146.900000
465.612152	146.640000
465.705811	146.780000
465.799561	146.300000
465.893219	146.080000
465.986938	146.020000
466.080597	145.920000
466.174347	145.560000
466.268005	145.660000
466.361725	145.620000
466.455414	145.460000
466.549133	145.540000
466.642792	145.600000
466.736542	145.340000
466.830231	145.780000
466.923920	145.700000
467.017609	145.780000
467.111328	145.720000
467.205017	145.780000
467.298706	145.620000
467.392426	145.880000
467.486115	146.220000
467.579803	145.720000
467.673523	145.960000
467.767212	145.680000
467.860901	145.760000
467.954651	145.700000
468.048309	146.240000
468.142029	146.220000
468.235718	146.600000
468.329437	146.080000
468.423096	145.840000
468.516846	145.540000
468.610504	145.140000
468.704224	144.620000
468.797913	144.940000
468.891632	145.280000
468.985291	145.440000
469.079010	145.780000
469.172729	145.380000
469.266418	145.940000
469.360107	145.740000
469.453827	145.620000
469.547516	145.780000
469.641205	146.460000
469.734924	146.420000
469.828613	146.960000
469.922302	147.480000
470.016022	147.340000
470.109711	147.360000
470.203430	146.640000
470.297150	145.700000
470.390808	145.700000
470.484558	145.700000
470.578217	145.800000
470.671936	146.080000
470.765625	146.660000
470.859344	146.380000
470.953003	146.560000
471.046753	146.160000
471.140411	145.680000
471.234131	145.920000
471.327820	146.400000
471.421539	146.400000
471.515228	146.040000
471.608948	146.500000
471.702637	145.800000
471.796326	145.160000
471.890045	145.280000
471.983734	145.660000
472.077423	145.220000
472.171143	145.580000
472.264832	145.500000
472.358521	144.940000
472.452240	144.720000
472.545929	145.280000
472.639648	145.300000
472.733337	145.840000
472.827057	146.140000
472.920746	146.420000
473.014465	146.620000
473.108124	146.560000
473.201874	146.260000
473.295532	146.060000
473.389252	146.600000
473.482941	146.440000
473.576660	146.160000
473.670319	146.040000
473.764069	146.080000
473.857727	146.080000
473.951477	146.260000
474.045166	146.920000
474.138855	146.940000
474.232574	147.160000
474.326263	146.900000
474.419952	146.980000
474.513672	146.680000
474.607361	146.820000
474.701050	146.940000
474.794769	147.260000
474.888458	147.220000
474.982178	147.720000
475.075867	147.800000
475.169586	147.720000
475.263275	147.480000
475.356995	147.380000
475.450653	146.920000
475.544403	146.760000
475.638062	147.600000
475.731812	147.180000
475.825470	146.920000
475.919189	147.120000
476.012878	146.920000
476.106598	145.980000
476.200256	146.540000
476.294006	146.320000
476.387695	146.000000
476.481384	146.040000
476.575104	145.960000
476.668793	145.560000
476.762512	145.360000
476.856201	145.900000
476.949890	145.740000
477.043610	145.140000
477.137299	145.200000
477.230988	145.920000
477.324707	145.340000
477.418396	145.900000
477.512146	146.540000
477.605804	146.380000
477.699524	146.020000
477.793213	146.180000
477.886932	146.040000
477.980591	145.740000
478.074341	145.720000
478.167999	145.540000
478.261749	145.560000
478.355408	145.140000
478.449127	145.840000
478.542816	146.680000
478.636536	147.440000
478.730225	147.420000
478.823944	148.020000
478.917633	147.540000
479.011322	147.500000
479.105042	147.180000
479.198730	147.400000
479.292450	146.980000
479.386139	147.260000
479.479828	147.120000
479.573547	147.220000
479.667267	146.940000
479.760925	147.320000
479.854675	147.220000
479.948334	147.000000
480.042084	146.260000
480.135742	146.500000
480.229462	145.960000
480.323151	145.960000
480.416870	145.300000
480.510529	145.820000
480.604279	145.260000
480.697937	145.620000
480.791656	145.260000
480.885345	145.160000
480.979065	145.360000
481.072754	145.940000
481.166473	146.300000
481.260132	146.460000
481.353882	146.920000
481.447540	146.780000
481.541260	146.680000
481.635010	146.060000
481.728668	146.000000
481.822388	145.980000
481.916077	145.860000
482.009796	145.940000
482.103485	146.320000
482.197205	146.380000
482.290863	146.480000
482.384613	146.220000
482.478271	145.600000
482.571991	145.420000
482.665680	145.420000
482.759399	145.960000
482.853058	146.680000
482.946808	146.900000
483.040466	146.820000
483.134216	146.780000
483.227875	146.040000
483.321594	145.940000
483.415283	146.160000
483.509003	145.900000
483.602661	145.920000
483.696411	146.440000
483.790070	146.240000
483.883789	146.200000
483.977478	146.860000
484.071198	146.800000
484.164917	146.000000
484.258606	145.700000
484.352325	146.000000
484.445984	145.920000
484.539734	145.920000
484.633392	146.180000
484.727142	146.480000
484.820801	146.320000
484.914520	146.380000
485.008209	146.880000
485.101929	147.220000
485.195587	147.160000
485.289337	147.140000
485.382996	147.080000
485.476715	146.640000
485.570404	146.680000
485.664124	146.740000
485.757782	147.160000
485.851532	146.860000
485.945190	147.080000
486.038910	147.360000
486.132599	147.620000
486.226318	146.860000
486.319977	146.840000
486.413727	147.360000
486.507446	146.780000
486.601105	146.160000
486.694855	146.160000
486.788513	145.860000
486.882233	145.320000
486.975922	145.300000
487.069641	145.420000
487.163300	145.560000
487.257050	146.900000
487.350708	146.640000
487.444427	146.560000
487.538116	146.460000
487.631836	146.340000
487.725494	145.880000
487.819214	145.840000
487.912903	145.780000
488.006622	146.180000
488.100281	146.520000
488.194031	146.040000
488.287689	146.640000
488.381409	147.540000
488.475098	147.260000
488.568817	147.260000
488.662476	147.160000
488.756226	146.420000
488.849945	145.360000
488.943604	145.580000
489.037354	145.440000
489.131012	145.580000
489.224731	145.740000
489.318390	145.960000
489.412140	145.860000
489.505798	145.780000
489.599518	145.260000
489.693207	145.580000
489.786926	145.420000
489.880585	145.220000
489.974335	145.340000
490.067993	146.780000
490.161713	146.720000
490.255371	147.700000
490.349121	147.920000
490.442780	147.600000
490.536499	146.380000
490.630188	146.320000
490.723907	145.520000
490.817566	145.580000
490.911285	146.020000
491.004974	146.180000
491.098694	145.960000
491.192413	146.800000
491.286102	146.700000
491.379822	146.960000
491.473480	147.120000
491.567200	147.260000
491.660889	146.300000
491.754608	146.220000
491.848267	145.700000
491.941986	145.500000
492.035675	145.400000
492.129395	145.720000
492.223053	145.360000
492.316772	145.660000
492.410461	145.560000
492.504181	145.500000
492.597839	145.280000
492.691559	145.680000
492.785248	145.420000
492.878967	145.620000
492.972626	145.700000
493.066345	145.960000
493.160034	145.400000
493.253754	145.660000
493.347412	145.460000
493.441132	145.720000
493.534882	146.160000
493.628540	146.940000
493.722260	146.740000
493.815918	147.020000
493.909668	147.280000
494.003326	147.300000
494.097046	147.000000
494.190704	146.800000
494.284454	146.880000
494.378113	146.580000
494.471832	145.920000
494.565491	145.820000
494.659210	146.080000
494.752899	145.780000
494.846619	145.760000
494.940277	146.180000
495.033997	146.160000
495.127686	145.700000
495.221405	145.720000
495.315063	145.860000
495.408783	145.400000
495.502441	145.480000
495.596191	145.900000
495.689850	145.820000
495.783569	145.860000
495.877228	146.260000
495.970947	145.880000
496.064697	145.500000
496.158356	146.140000
496.252075	145.920000
496.345734	145.820000
496.439453	146.700000
496.533142	147.000000
496.626862	147.000000
496.720520	147.000000
496.814240	146.940000
496.907898	146.600000
497.001617	146.780000
497.095306	145.940000
497.189026	145.980000
497.282684	146.200000
497.376404	146.400000
497.470062	145.860000
497.563782	146.060000
497.657471	145.860000
497.751190	145.620000
497.844849	145.560000
497.938568	146.020000
498.032227	146.260000
498.125946	146.160000
498.219635	146.080000
498.313354	146.020000
498.407074	145.840000
498.500732	145.860000
498.594452	146.200000
498.688110	145.640000
498.781830	145.100000
498.875519	145.140000
498.969238	144.800000
499.062897	144.660000
499.156616	145.600000
499.250275	146.080000
499.343994	145.820000
499.437653	146.180000
499.531372	146.480000
499.625061	146.920000
499.718781	147.000000
499.812439	147.540000
499.906158	147.280000
499.999817	146.900000
500.093536	146.120000
500.187195	146.300000
500.280914	146.220000
500.374573	146.600000
500.468323	146.580000
500.561981	146.680000
500.655701	145.840000
500.749420	145.680000
500.843079	145.680000
500.936798	145.780000
501.030457	146.160000
501.124176	146.760000
501.217834	146.920000
501.311554	146.780000
501.405212	146.600000
501.498962	145.840000
501.592621	145.620000
501.686340	145.680000
501.779999	145.660000
501.873718	145.980000
501.967377	146.340000
502.061096	146.740000
502.154755	146.240000
502.248474	146.620000
502.342133	146.780000
502.435852	146.720000
502.529510	147.120000
502.623230	147.940000
502.716888	147.240000
502.810608	147.220000
502.904266	147.600000
502.997986	146.760000
503.091705	145.800000
503.185364	145.940000
503.279083	145.900000
503.372772	145.640000
503.466492	145.540000
503.560150	145.820000
503.653870	146.020000
503.747528	145.480000
503.841248	145.320000
503.934906	145.580000
504.028625	145.620000
504.122284	145.760000
504.216003	146.660000
504.309662	146.120000
504.403381	146.280000
504.497040	146.300000
504.590759	145.880000
504.684418	145.660000
504.778137	146.560000
504.871796	146.620000
504.965515	146.380000
505.059174	146.740000
505.152893	146.200000
505.246521	145.520000
505.340240	145.260000
505.433899	145.420000
505.527618	145.520000
505.621338	146.220000
505.714996	146.200000
505.808716	146.260000
505.902374	147.040000
505.996094	146.900000
506.089752	146.380000
506.183472	146.600000
506.277130	146.820000
506.370850	146.420000
506.464508	146.140000
506.558228	146.120000
506.651886	146.080000
506.745605	146.000000
506.839264	146.000000
506.932983	146.320000
507.026611	146.160000
507.120331	146.760000
507.213989	146.120000
507.307709	145.880000
507.401367	145.980000
507.495087	147.080000
507.588745	146.620000
507.682465	147.860000
507.776123	147.900000
507.869843	147.860000
507.963531	147.380000
508.057190	147.900000
508.150909	146.860000
508.244568	147.160000
508.338287	146.760000
508.431946	146.120000
508.525665	145.440000
508.619324	145.480000
508.713013	145.360000
508.806671	145.960000
508.900391	147.040000
508.994049	147.360000
509.087769	147.300000
509.181427	147.240000
509.275146	146.640000
509.368774	145.620000
509.462494	145.380000
509.556152	145.540000
509.649872	145.760000
509.743530	145.820000
509.837250	145.920000
509.930878	146.100000
510.024597	145.920000
510.118256	145.760000
510.211975	145.780000
510.305695	145.760000
510.399353	146.180000
510.493042	146.960000
510.586700	146.860000
510.680420	147.660000
510.774078	147.640000
510.867798	147.520000
510.961426	146.880000
511.055145	146.920000
511.148804	146.380000
511.242523	146.780000
511.336151	146.920000
511.429871	147.060000
511.523529	146.800000
511.617249	146.400000
511.710876	146.360000
511.804596	145.820000
511.898254	145.920000
511.991974	146.280000
512.085632	146.460000
512.179321	146.420000
512.272949	146.800000
512.366699	147.080000
512.460327	147.020000
512.554077	147.720000
512.647766	147.360000
512.741394	147.100000
512.835144	147.340000
512.928772	147.120000
513.022461	146.760000
513.116150	146.640000
513.209839	146.760000
513.303467	145.900000
513.397217	145.660000
513.490845	145.200000
513.584595	145.220000
513.678223	144.820000
513.771912	144.560000
513.865601	145.020000
513.959290	144.880000
514.052917	145.040000
514.146667	145.980000
514.240295	146.720000
514.333984	146.960000
514.427673	147.160000
514.521362	147.480000
514.614990	146.760000
514.708740	146.620000
514.802368	146.320000
514.896057	146.560000
514.989746	147.220000
515.083435	147.120000
515.177124	147.260000
515.270752	146.980000
515.364502	146.860000
515.458130	146.540000
515.551819	146.460000
515.645508	146.020000
515.739197	146.260000
515.832825	146.320000
515.926575	145.600000
516.020203	145.860000
516.113892	146.460000
516.207520	146.280000
516.301270	146.560000
516.394897	147.000000
516.488586	147.120000
516.582275	146.900000
516.675964	146.200000
516.769592	145.640000
516.863281	146.060000
516.956970	146.440000
517.050659	146.280000
517.144287	146.960000
517.238037	147.060000
517.331665	146.120000
517.425354	145.560000
517.519043	145.080000
517.612732	145.300000
517.706421	145.580000
517.800049	145.680000
517.893738	145.440000
517.987427	145.700000
518.081116	145.640000
518.174744	145.300000
518.268433	145.760000
518.362122	146.580000
518.455811	146.560000
518.549438	146.920000
518.643127	147.860000
518.736816	147.660000
518.830505	146.720000
518.924133	146.980000
519.017822	146.940000
519.111511	146.380000
519.205200	146.580000
519.298828	147.060000
519.392517	146.360000
519.486206	146.500000
519.579895	146.340000
519.673523	146.100000
519.767212	145.860000
519.860901	146.620000
519.954590	146.080000
520.048279	145.920000
520.141907	145.880000
520.235596	146.860000
520.329224	147.240000
520.422974	147.340000
520.516602	147.340000
520.610291	147.140000
520.703918	146.460000
520.797607	145.820000
520.891296	145.960000
520.984985	146.340000
521.078613	147.340000
521.172302	147.000000
521.265930	147.940000
521.359680	148.380000
521.453308	147.860000
521.546997	147.240000
521.640625	147.420000
521.734314	146.660000
521.827942	146.080000
521.921692	146.420000
522.015320	146.500000
522.109009	146.040000
522.202698	146.080000
522.296326	146.200000
522.390015	146.460000
522.483704	146.520000
522.577393	146.620000
522.671021	146.480000
522.764709	146.060000
522.858337	146.340000
522.952026	146.060000
523.045654	146.780000
523.139404	147.160000
523.233032	147.360000
523.326721	146.940000
523.420349	147.260000
523.514038	146.900000
523.607666	147.020000
523.701355	146.720000
523.795044	146.540000
523.888733	146.400000
523.982361	146.640000
524.076050	146.020000
524.169678	146.460000
524.263367	146.340000
524.356995	146.060000
524.450684	145.600000
524.544373	145.580000
524.638062	145.400000
524.731750	145.720000
524.825378	145.580000
524.919067	145.200000
525.012695	145.520000
525.106384	145.200000
525.200012	145.320000
525.293701	145.440000
525.387329	146.060000
525.481018	145.940000
525.574646	146.460000
525.668396	146.180000
525.762024	146.360000
525.855713	146.380000
525.949341	146.220000
526.043030	146.240000
526.136658	145.900000
526.230347	145.640000
526.323975	145.420000
526.417664	145.500000
526.511292	145.440000
526.604980	145.760000
526.698608	146.000000
526.792297	146.020000
526.885925	146.420000
526.979614	146.320000
527.073303	146.240000
527.166931	146.400000
527.260620	146.800000
527.354309	146.900000
527.447998	147.180000
527.541626	147.060000
527.635315	146.820000
527.728943	147.260000
527.822632	147.140000
527.916260	147.000000
528.009949	147.500000
528.103577	146.940000
528.197266	146.020000
528.290894	145.980000
528.384583	145.740000
528.478210	145.420000
528.571899	146.300000
528.665527	146.780000
528.759216	147.040000
528.852844	147.260000
528.946533	147.440000
529.040161	147.220000
529.133850	146.900000
529.227478	146.760000
529.321167	147.440000
529.414856	147.700000
529.508484	148.220000
529.602173	147.920000
529.695801	147.760000
529.789490	147.100000
529.883057	146.660000
529.976746	146.380000
530.070374	146.960000
530.164062	146.900000
530.257690	147.340000
530.351379	147.720000
530.445007	147.760000
530.538696	147.240000
530.632324	147.320000
530.726013	147.180000
530.819641	147.300000
530.913330	147.060000
531.006958	147.300000
531.100647	147.540000
531.194275	147.480000
531.287964	146.940000
531.381592	146.680000
531.475220	146.800000
531.568848	146.300000
531.662537	145.700000
531.756226	146.160000
531.849854	146.200000
531.943542	146.180000
532.037170	145.940000
532.130859	146.520000
532.224487	146.120000
532.318176	145.740000
532.411804	146.200000
532.505432	146.580000
532.599060	146.420000
532.692749	146.360000
532.786377	147.000000
532.880066	146.380000
532.973694	145.920000
533.067383	146.040000
533.161011	145.920000
533.254639	145.820000
533.348267	145.780000
533.441956	146.220000
533.535583	146.120000
533.629272	146.320000
533.722900	145.500000
533.816589	145.600000
533.910156	146.000000
534.003845	145.440000
534.097534	145.780000
534.191162	146.880000
534.284851	146.900000
534.378479	146.360000
534.472107	146.680000
534.565735	146.500000
534.659424	146.660000
534.753052	146.500000
534.846741	146.360000
534.940369	146.760000
535.033997	146.600000
535.127625	146.240000
535.221313	146.920000
535.314941	147.000000
535.408630	146.180000
535.502197	146.640000
535.595886	146.340000
535.689514	145.820000
535.783203	146.300000
535.876831	147.180000
535.970459	146.840000
536.064087	146.860000
536.157776	146.780000
536.251404	146.640000
536.345093	146.100000
536.438721	145.980000
536.532349	146.160000
536.626038	146.240000
536.719666	146.460000
536.813293	146.440000
536.906921	146.400000
537.000610	146.480000
537.094238	146.560000
537.187866	146.260000
537.281494	146.260000
537.375183	146.240000
537.468811	146.160000
537.562439	146.260000
537.656067	146.300000
537.749756	146.340000
537.843384	146.820000
537.937012	146.960000
538.030640	146.600000
538.124329	146.560000
538.217896	146.940000
538.311584	147.020000
538.405212	146.720000
538.498901	146.900000
538.592468	147.660000
538.686157	146.740000
538.779785	145.500000
538.873413	145.520000
538.967102	145.480000
539.060730	144.480000
539.154358	145.360000
539.247986	146.120000
539.341675	146.320000
539.435242	146.200000
539.528931	146.700000
539.622559	146.080000
539.716187	146.560000
539.809814	146.480000
539.903503	146.460000
539.997070	146.140000
540.090759	146.600000
540.184387	146.300000
540.278015	146.980000
540.371643	147.520000
540.465332	147.480000
540.558899	147.240000
540.652588	147.280000
540.746216	146.760000
540.839844	146.640000
540.933472	146.820000
541.027100	147.040000
541.120728	146.840000
541.214417	146.700000
541.308044	146.880000
541.401672	146.640000
541.495300	146.300000
541.588928	146.460000
541.682617	146.400000
541.776184	146.080000
541.869873	146.500000
541.963440	146.800000
542.057129	146.720000
542.150757	146.980000
542.244385	146.620000
542.338013	146.160000
542.431641	146.200000
542.525269	145.880000
542.618958	146.040000
542.712524	146.320000
542.806213	146.480000
542.899780	146.320000
542.993469	146.400000
543.087036	146.040000
543.180725	145.580000
543.274292	145.740000
543.367981	146.100000
543.461548	146.520000
543.555237	146.480000
543.648926	147.560000
543.742493	148.040000
543.836182	147.960000
543.929749	147.680000
544.023437	147.560000
544.117004	147.040000
544.210693	146.660000
544.304260	146.680000
544.397949	146.480000
544.491516	146.780000
544.585205	146.960000
544.678772	146.360000
544.772461	146.480000
544.866028	146.560000
544.959717	146.560000
545.053284	146.260000
545.146973	146.580000
545.240540	146.600000
545.334229	147.440000
545.427795	147.800000
545.521423	148.220000
545.615051	148.520000
545.708679	148.720000
545.802307	148.200000
545.895935	148.040000
545.989624	148.320000
546.083191	148.220000
546.176880	147.980000
546.270447	147.600000
546.364136	147.800000
546.457703	147.280000
546.551331	147.180000
546.644958	147.400000
546.738586	147.920000
546.832214	147.460000
546.925842	147.440000
547.019409	147.720000
547.113098	147.020000
547.206665	146.780000
547.300354	147.100000
547.393921	147.160000
547.487549	147.160000
547.581177	147.120000
547.674805	146.960000
547.768433	146.040000
547.862061	146.020000
547.955627	145.220000
548.049316	145.780000
548.142883	146.060000
548.236572	147.140000
548.330139	147.280000
548.423767	147.260000
548.517456	147.220000
548.611023	147.200000
548.704651	146.000000
548.798279	146.020000
548.891907	146.880000
548.985474	146.680000
549.079163	146.740000
549.172729	147.380000
549.266357	146.760000
549.359985	146.840000
549.453613	146.380000
549.547180	146.300000
549.640869	146.380000
549.734436	146.640000
549.828064	146.600000
549.921631	146.720000
550.015320	146.440000
550.108887	146.900000
550.202515	146.720000
550.296143	146.200000
550.389771	146.760000
550.483337	146.860000
550.576965	146.380000
550.670593	146.880000
550.764221	146.900000
550.857849	146.420000
550.951477	145.940000
551.045105	145.300000
551.138672	145.020000
551.232300	144.620000
551.325928	144.900000
551.419556	145.480000
551.513123	146.020000
551.606750	145.820000
551.700378	146.180000
551.794006	146.140000
551.887573	145.740000
551.981201	145.820000
552.074768	145.920000
552.168457	145.580000
552.262024	146.220000
552.355652	146.260000
552.449219	146.860000
552.542847	147.040000
552.636475	147.040000
552.730103	146.020000
552.823669	146.080000
552.917297	145.760000
553.010864	145.640000
553.104553	146.220000
553.198181	146.320000
553.291748	147.020000
553.385376	147.000000
553.478943	146.760000
553.572571	146.860000
553.666199	147.040000
553.759827	146.500000
553.853394	145.900000
553.947021	146.300000
554.040588	146.100000
554.134216	146.240000
554.227783	146.880000
554.321411	147.540000
554.415039	146.920000
554.508667	146.720000
554.602234	146.780000
554.695862	145.900000
554.789429	145.620000
554.883057	146.140000
554.976624	146.380000
555.070251	146.220000
555.163818	146.640000
555.257507	146.560000
555.351074	146.520000
555.444702	147.320000
555.538330	147.120000
555.631897	147.240000
555.725525	147.420000
555.819092	147.360000
555.912720	146.480000
556.006287	147.060000
556.099915	146.700000
556.193481	146.460000
556.287109	146.520000
556.380676	146.160000
556.474304	145.920000
556.567871	146.160000
556.661499	146.040000
556.755066	146.060000
556.848694	146.500000
556.942261	146.400000
557.035889	146.260000
557.129517	146.500000
557.223145	147.040000
557.316711	146.960000
557.410339	147.080000
557.503906	146.900000
557.597473	146.960000
557.691040	146.460000
557.784668	146.280000
557.878296	146.260000
557.971863	146.600000
558.065491	146.640000
558.159058	146.280000
558.252686	147.100000
558.346252	147.600000
558.439880	147.020000
558.533447	146.800000
558.627075	146.700000
558.720642	145.960000
558.814270	145.760000
558.907837	145.900000
559.001465	145.780000
559.095032	146.600000
559.188660	146.900000
559.282227	146.020000
559.375854	146.700000
559.469360	146.460000
559.562988	146.460000
559.656555	146.260000
559.750183	146.560000
559.843750	146.480000
559.937378	146.700000
560.030945	146.440000
560.124573	0.000000
560.218140	0.000000
560.311707	0.000000
560.405334	0.000000
560.498901	0.000000
560.592529	0.000000
560.686096	0.000000
560.779724	0.000000
560.873291	0.000000
560.966858	0.000000
561.060425	0.000000
561.154053	0.000000
561.247620	0.000000
561.341248	0.000000
561.434814	0.000000
561.528381	0.000000
561.621948	0.000000
561.715576	0.000000
561.809143	0.000000
561.902771	0.000000
561.996277	0.000000
562.089905	0.000000
562.183472	0.000000
562.277100	0.000000
