Model Number: SPM-002-B   
Serial Number: 70087108
Firmware Version: 004.15.4
Exposure Time: 100000.000000us
Data Taken on: 11-12-2020 19:28:37.881
Wavelength	Amplitude
221.570786	0.000000
221.663406	0.000000
221.756027	0.000000
221.848648	0.000000
221.941269	0.000000
222.033905	0.000000
222.126526	0.000000
222.219162	0.000000
222.311798	0.000000
222.404419	0.000000
222.497055	0.000000
222.589676	0.000000
222.682312	0.000000
222.774933	0.000000
222.867569	0.000000
222.960205	0.000000
223.052841	0.000000
223.145462	0.000000
223.238098	0.000000
223.330734	0.000000
223.423386	0.000000
223.516022	0.000000
223.608658	0.000000
223.701309	0.000000
223.793945	0.000000
223.886581	0.000000
223.979218	0.000000
224.071869	0.000000
224.164505	0.000000
224.257156	0.000000
224.349792	0.000000
224.442444	0.000000
224.535095	0.000000
224.627747	0.000000
224.720398	0.000000
224.813034	0.000000
224.905685	0.000000
224.998337	144.880000
225.090988	144.520000
225.183640	144.440000
225.276291	144.180000
225.368942	144.360000
225.461594	144.900000
225.554245	145.400000
225.646912	145.420000
225.739578	146.200000
225.832230	146.440000
225.924896	145.900000
226.017548	146.100000
226.110199	146.880000
226.202866	145.940000
226.295532	146.020000
226.388184	145.980000
226.480850	145.380000
226.573517	144.720000
226.666168	145.140000
226.758835	145.240000
226.851501	145.760000
226.944183	146.020000
227.036850	145.560000
227.129517	145.620000
227.222183	145.640000
227.314850	145.500000
227.407516	145.500000
227.500198	146.580000
227.592865	145.840000
227.685532	145.680000
227.778214	145.460000
227.870880	145.840000
227.963562	145.780000
228.056229	146.820000
228.148926	146.960000
228.241592	147.660000
228.334274	147.160000
228.426956	146.780000
228.519638	146.520000
228.612305	145.820000
228.704987	145.380000
228.797668	145.640000
228.890350	145.360000
228.983032	144.540000
229.075714	145.380000
229.168396	145.180000
229.261108	144.840000
229.353790	145.180000
229.446472	145.660000
229.539169	145.380000
229.631851	145.000000
229.724533	145.380000
229.817230	145.500000
229.909912	146.660000
230.002609	146.560000
230.095306	146.740000
230.187988	146.800000
230.280685	146.220000
230.373383	144.820000
230.466095	144.520000
230.558792	144.640000
230.651474	144.580000
230.744171	144.600000
230.836868	144.540000
230.929581	144.960000
231.022278	144.960000
231.114975	144.940000
231.207672	145.000000
231.300369	145.640000
231.393082	145.520000
231.485779	145.520000
231.578506	145.200000
231.671204	145.420000
231.763916	145.240000
231.856613	145.220000
231.949326	145.620000
232.042023	145.540000
232.134735	145.300000
232.227448	145.060000
232.320160	145.260000
232.412872	145.000000
232.505585	146.020000
232.598297	146.620000
232.691010	146.360000
232.783722	145.740000
232.876450	146.060000
232.969162	145.260000
233.061874	144.640000
233.154587	144.540000
233.247314	145.000000
233.340027	144.280000
233.432739	144.660000
233.525467	144.540000
233.618179	145.280000
233.710907	144.880000
233.803635	145.400000
233.896347	145.260000
233.989090	145.940000
234.081818	145.620000
234.174545	146.220000
234.267258	146.020000
234.359985	145.980000
234.452713	145.800000
234.545441	145.740000
234.638168	145.100000
234.730896	145.320000
234.823639	145.240000
234.916367	145.620000
235.009094	145.980000
235.101822	146.320000
235.194580	146.140000
235.287308	145.940000
235.380051	145.260000
235.472778	145.000000
235.565521	145.360000
235.658249	145.140000
235.750992	145.440000
235.843719	145.480000
235.936462	145.820000
236.029205	145.280000
236.121948	145.100000
236.214691	145.420000
236.307449	145.860000
236.400192	145.520000
236.492935	145.460000
236.585678	145.780000
236.678421	145.400000
236.771164	145.380000
236.863907	145.880000
236.956665	146.240000
237.049408	147.740000
237.142151	147.360000
237.234909	147.660000
237.327652	147.460000
237.420410	147.200000
237.513153	146.260000
237.605927	146.380000
237.698669	145.940000
237.791428	145.420000
237.884186	145.820000
237.976944	145.060000
238.069702	145.440000
238.162445	144.940000
238.255203	145.100000
238.347961	145.460000
238.440720	145.880000
238.533478	145.620000
238.626266	145.740000
238.719025	146.080000
238.811783	145.800000
238.904541	145.540000
238.997314	145.460000
239.090073	145.380000
239.182831	145.400000
239.275604	145.900000
239.368362	145.720000
239.461136	145.920000
239.553909	145.860000
239.646667	145.460000
239.739441	144.960000
239.832214	145.320000
239.925003	145.520000
240.017761	146.280000
240.110535	147.020000
240.203308	146.680000
240.296082	146.460000
240.388855	146.200000
240.481628	146.120000
240.574417	146.100000
240.667191	146.220000
240.759964	146.320000
240.852737	146.420000
240.945526	145.820000
241.038315	145.140000
241.131088	145.160000
241.223877	145.280000
241.316650	144.840000
241.409439	145.280000
241.502228	145.420000
241.595001	145.960000
241.687790	145.980000
241.780579	146.440000
241.873367	146.660000
241.966141	146.620000
242.058929	145.900000
242.151718	146.060000
242.244507	146.100000
242.337311	145.280000
242.430099	145.820000
242.522903	146.060000
242.615692	145.500000
242.708481	145.560000
242.801270	146.160000
242.894073	145.840000
242.986862	145.840000
243.079651	146.460000
243.172455	145.960000
243.265244	145.800000
243.358063	145.180000
243.450867	145.480000
243.543655	145.280000
243.636459	145.800000
243.729263	146.120000
243.822067	146.960000
243.914856	147.200000
244.007660	147.440000
244.100464	147.280000
244.193268	146.640000
244.286072	146.180000
244.378876	145.560000
244.471680	145.020000
244.564499	144.940000
244.657318	145.820000
244.750122	146.400000
244.842926	146.020000
244.935745	146.500000
245.028549	146.280000
245.121368	145.800000
245.214172	145.400000
245.306992	145.800000
245.399796	145.420000
245.492615	145.660000
245.585434	145.560000
245.678253	145.340000
245.771072	145.520000
245.863892	145.960000
245.956711	146.240000
246.049530	145.960000
246.142349	145.940000
246.235168	145.740000
246.327988	145.940000
246.420807	145.520000
246.513626	145.980000
246.606445	145.800000
246.699280	145.860000
246.792099	145.640000
246.884918	145.560000
246.977753	144.920000
247.070587	145.140000
247.163422	145.220000
247.256241	145.180000
247.349075	145.360000
247.441895	145.860000
247.534729	145.900000
247.627563	145.480000
247.720383	146.020000
247.813217	145.980000
247.906052	145.660000
247.998886	145.840000
248.091736	146.040000
248.184570	145.340000
248.277405	145.640000
248.370239	146.620000
248.463074	147.120000
248.555908	147.260000
248.648743	147.240000
248.741592	147.100000
248.834427	146.280000
248.927261	145.380000
249.020111	145.860000
249.112946	146.320000
249.205795	145.980000
249.298630	146.220000
249.391495	146.200000
249.484344	145.660000
249.577179	145.260000
249.670029	145.660000
249.762878	146.080000
249.855728	146.660000
249.948563	146.760000
250.041412	146.500000
250.134262	146.600000
250.227112	146.400000
250.319962	146.080000
250.412827	145.980000
250.505692	145.700000
250.598541	145.500000
250.691391	145.160000
250.784241	145.640000
250.877106	145.660000
250.969955	145.480000
251.062805	145.900000
251.155670	146.500000
251.248520	145.820000
251.341385	145.940000
251.434235	146.140000
251.527100	145.760000
251.619965	145.260000
251.712814	146.120000
251.805695	146.280000
251.898560	146.780000
251.991425	147.060000
252.084290	147.440000
252.177155	146.600000
252.270020	146.220000
252.362885	146.040000
252.455750	145.600000
252.548615	144.860000
252.641479	144.840000
252.734360	144.840000
252.827240	144.900000
252.920105	145.480000
253.012970	145.560000
253.105850	145.560000
253.198715	145.260000
253.291595	145.120000
253.384460	144.560000
253.477341	144.760000
253.570221	144.920000
253.663086	144.880000
253.755966	145.500000
253.848846	145.440000
253.941727	145.540000
254.034592	145.520000
254.127472	145.200000
254.220367	144.700000
254.313248	145.060000
254.406128	144.340000
254.499008	144.360000
254.591904	145.200000
254.684784	145.940000
254.777664	145.680000
254.870544	146.060000
254.963440	146.020000
255.056335	146.200000
255.149216	145.660000
255.242111	146.520000
255.334991	146.760000
255.427887	147.080000
255.520767	147.120000
255.613663	147.080000
255.706558	146.100000
255.799438	146.140000
255.892334	145.580000
255.985229	145.300000
256.078125	145.140000
256.171021	145.360000
256.263916	145.540000
256.356812	146.100000
256.449707	146.260000
256.542603	146.140000
256.635498	146.500000
256.728394	146.140000
256.821289	145.620000
256.914215	145.800000
257.007080	146.020000
257.100006	146.000000
257.192932	146.300000
257.285828	146.940000
257.378723	146.500000
257.471619	146.600000
257.564545	146.140000
257.657440	146.220000
257.750336	146.460000
257.843262	146.440000
257.936157	147.360000
258.029053	147.800000
258.121979	147.900000
258.214874	147.480000
258.307800	147.280000
258.400696	146.060000
258.493622	145.740000
258.586517	145.020000
258.679443	145.400000
258.772339	145.400000
258.865265	145.360000
258.958160	145.080000
259.051086	146.100000
259.144012	145.640000
259.236938	146.280000
259.329834	146.580000
259.422791	146.580000
259.515717	145.640000
259.608612	145.680000
259.701538	145.620000
259.794464	145.380000
259.887390	145.400000
259.980316	145.380000
260.073212	145.020000
260.166138	144.220000
260.259064	144.340000
260.351990	144.920000
260.444916	145.240000
260.537842	145.700000
260.630768	146.420000
260.723694	146.660000
260.816620	146.260000
260.909546	146.180000
261.002472	145.600000
261.095398	144.900000
261.188354	144.760000
261.281281	144.400000
261.374207	144.480000
261.467133	145.240000
261.560089	145.520000
261.653015	145.360000
261.745972	146.400000
261.838867	146.640000
261.931824	146.540000
262.024780	146.160000
262.117706	146.400000
262.210663	145.800000
262.303589	145.580000
262.396515	145.500000
262.489471	146.560000
262.582397	146.320000
262.675354	146.420000
262.768280	146.540000
262.861237	146.440000
262.954163	146.180000
263.047119	146.420000
263.140045	145.980000
263.233002	146.080000
263.325958	146.080000
263.418884	145.620000
263.511841	145.500000
263.604797	145.760000
263.697723	145.780000
263.790680	145.400000
263.883636	146.060000
263.976593	145.920000
264.069550	145.840000
264.162476	145.300000
264.255463	145.680000
264.348419	145.060000
264.441376	145.220000
264.534332	145.100000
264.627289	145.360000
264.720245	145.660000
264.813202	145.540000
264.906158	145.640000
264.999115	146.160000
265.092072	146.020000
265.185028	146.560000
265.277985	146.680000
265.370941	146.560000
265.463898	145.940000
265.556854	145.760000
265.649811	144.640000
265.742798	144.600000
265.835754	144.720000
265.928711	145.360000
266.021667	145.700000
266.114655	146.320000
266.207611	146.880000
266.300568	146.060000
266.393585	145.860000
266.486511	146.300000
266.579498	145.400000
266.672485	145.280000
266.765442	145.600000
266.858429	145.580000
266.951385	144.700000
267.044342	144.920000
267.137329	144.400000
267.230316	144.760000
267.323273	144.380000
267.416260	145.240000
267.509216	145.220000
267.602203	145.460000
267.695160	145.600000
267.788147	145.640000
267.881134	144.840000
267.974091	145.200000
268.067078	145.140000
268.160065	145.100000
268.253052	145.320000
268.346008	145.780000
268.438995	145.640000
268.531982	145.700000
268.624969	145.240000
268.717987	145.340000
268.810944	145.180000
268.903961	145.480000
268.996948	145.140000
269.089905	145.960000
269.182892	146.120000
269.275879	146.220000
269.368866	145.560000
269.461853	145.960000
269.554871	145.480000
269.647858	145.240000
269.740845	145.420000
269.833832	145.960000
269.926819	145.620000
270.019806	145.860000
270.112793	145.520000
270.205811	145.480000
270.298798	145.200000
270.391785	145.740000
270.484772	145.420000
270.577789	145.880000
270.670776	145.500000
270.763763	145.420000
270.856750	145.280000
270.949768	145.240000
271.042786	145.140000
271.135773	145.680000
271.228790	146.080000
271.321808	145.460000
271.414795	145.040000
271.507782	144.700000
271.600800	143.920000
271.693817	143.720000
271.786804	144.540000
271.879822	145.040000
271.972809	145.140000
272.065826	146.000000
272.158844	145.680000
272.251831	145.960000
272.344849	145.660000
272.437866	145.640000
272.530853	145.560000
272.623871	145.820000
272.716888	144.680000
272.809906	145.240000
272.902893	145.280000
272.995911	144.560000
273.088928	144.560000
273.181946	145.300000
273.274963	144.620000
273.367981	144.560000
273.460999	145.020000
273.554047	145.420000
273.647003	145.800000
273.740051	146.440000
273.833069	147.060000
273.926086	147.260000
274.019135	146.840000
274.112152	146.400000
274.205170	146.180000
274.298187	146.100000
274.391205	145.360000
274.484222	145.680000
274.577240	145.800000
274.670258	145.720000
274.763306	145.460000
274.856323	146.380000
274.949341	146.360000
275.042358	146.640000
275.135406	146.460000
275.228424	146.420000
275.321442	146.060000
275.414490	145.640000
275.507507	145.660000
275.600525	146.340000
275.693573	146.160000
275.786591	145.940000
275.879669	146.200000
275.972656	145.780000
276.065735	145.500000
276.158752	146.000000
276.251801	146.660000
276.344818	146.800000
276.437866	146.700000
276.530884	146.300000
276.623932	145.380000
276.716980	145.180000
276.809998	145.260000
276.903046	145.320000
276.996094	146.420000
277.089111	147.520000
277.182159	147.940000
277.275208	147.360000
277.368256	147.060000
277.461304	146.380000
277.554321	145.560000
277.647369	145.180000
277.740417	145.520000
277.833466	145.820000
277.926514	145.660000
278.019562	146.140000
278.112610	145.480000
278.205688	145.720000
278.298706	145.940000
278.391785	145.980000
278.484833	145.860000
278.577881	145.960000
278.670929	146.040000
278.763977	145.960000
278.857025	146.260000
278.950073	146.080000
279.043121	145.980000
279.136169	145.700000
279.229248	145.340000
279.322296	144.980000
279.415344	144.960000
279.508392	144.980000
279.601440	145.040000
279.694519	145.080000
279.787567	145.020000
279.880615	144.940000
279.973694	144.920000
280.066742	144.840000
280.159790	145.140000
280.252869	145.020000
280.345917	145.120000
280.438995	145.180000
280.532074	145.120000
280.625122	145.300000
280.718201	146.180000
280.811279	146.400000
280.904327	146.540000
280.997406	146.740000
281.090454	146.600000
281.183533	145.920000
281.276581	145.900000
281.369659	145.520000
281.462738	145.720000
281.555786	145.520000
281.648865	145.720000
281.741943	145.520000
281.835022	146.380000
281.928070	146.060000
282.021149	146.040000
282.114227	146.000000
282.207306	145.720000
282.300385	145.760000
282.393433	145.800000
282.486511	145.800000
282.579590	146.020000
282.672668	146.660000
282.765747	145.880000
282.858856	145.580000
282.951904	145.880000
283.045013	145.960000
283.138062	146.020000
283.231171	146.480000
283.324249	146.900000
283.417328	147.080000
283.510406	146.780000
283.603485	146.600000
283.696564	146.420000
283.789642	146.480000
283.882751	145.840000
283.975830	146.200000
284.068909	145.760000
284.161987	146.500000
284.255066	145.800000
284.348175	146.220000
284.441254	145.660000
284.534332	146.440000
284.627441	145.620000
284.720520	145.600000
284.813599	145.480000
284.906708	145.900000
284.999786	145.240000
285.092896	144.920000
285.185974	146.140000
285.279053	145.740000
285.372192	145.700000
285.465240	146.400000
285.558380	146.620000
285.651459	145.660000
285.744568	146.620000
285.837677	145.920000
285.930756	145.680000
286.023865	145.960000
286.116943	145.640000
286.210052	145.440000
286.303162	145.880000
286.396240	145.800000
286.489349	145.580000
286.582458	146.200000
286.675568	146.040000
286.768646	146.040000
286.861755	146.000000
286.954865	146.800000
287.047974	146.400000
287.141083	146.180000
287.234161	145.680000
287.327271	145.460000
287.420380	145.400000
287.513519	145.320000
287.606598	145.220000
287.699738	145.940000
287.792816	146.000000
287.885956	145.700000
287.979034	145.740000
288.072174	145.860000
288.165283	145.300000
288.258392	145.560000
288.351501	144.860000
288.444611	145.340000
288.537720	145.720000
288.630859	146.040000
288.723969	145.900000
288.817078	146.520000
288.910187	146.400000
289.003296	145.820000
289.096436	145.460000
289.189545	145.340000
289.282654	144.760000
289.375763	145.180000
289.468903	145.680000
289.562012	146.060000
289.655121	146.120000
289.748260	146.520000
289.841400	146.520000
289.934509	146.260000
290.027649	146.300000
290.120728	146.200000
290.213898	146.360000
290.306976	146.060000
290.400146	146.100000
290.493256	145.640000
290.586395	145.640000
290.679535	145.500000
290.772644	145.360000
290.865784	144.600000
290.958893	144.960000
291.052032	144.880000
291.145172	144.860000
291.238281	144.580000
291.331421	145.040000
291.424561	145.780000
291.517670	145.880000
291.610809	146.200000
291.703949	146.200000
291.797089	146.380000
291.890228	145.240000
291.983337	144.960000
292.076477	144.720000
292.169617	145.080000
292.262756	145.180000
292.355927	145.400000
292.449036	145.220000
292.542206	145.300000
292.635315	145.500000
292.728485	145.560000
292.821625	145.340000
292.914764	146.500000
293.007904	146.400000
293.101044	146.020000
293.194183	145.700000
293.287323	146.000000
293.380463	145.320000
293.473602	145.320000
293.566742	145.640000
293.659882	146.040000
293.753021	146.240000
293.846191	146.160000
293.939331	145.980000
294.032471	145.900000
294.125610	145.520000
294.218781	145.580000
294.311920	145.780000
294.405060	146.000000
294.498230	146.000000
294.591370	146.300000
294.684540	145.700000
294.777679	145.280000
294.870850	145.620000
294.963959	145.300000
295.057159	144.940000
295.150299	145.480000
295.243469	145.600000
295.336609	144.740000
295.429779	144.900000
295.522919	145.460000
295.616089	145.440000
295.709229	146.420000
295.802399	146.880000
295.895569	146.360000
295.988708	146.200000
296.081879	146.400000
296.175018	145.300000
296.268188	145.140000
296.361359	146.320000
296.454529	146.240000
296.547668	146.080000
296.640839	146.820000
296.734009	146.560000
296.827179	146.320000
296.920319	146.360000
297.013519	145.900000
297.106659	145.620000
297.199860	145.860000
297.292999	145.600000
297.386200	145.380000
297.479309	145.640000
297.572510	145.700000
297.665680	145.760000
297.758850	145.800000
297.852020	146.240000
297.945190	146.340000
298.038361	146.020000
298.131531	146.700000
298.224701	146.340000
298.317871	145.660000
298.411072	145.100000
298.504242	145.280000
298.597412	144.920000
298.690582	145.180000
298.783752	145.320000
298.876923	145.940000
298.970093	145.860000
299.063293	145.920000
299.156464	146.480000
299.249634	146.860000
299.342834	146.740000
299.436005	147.060000
299.529205	146.920000
299.622345	146.380000
299.715576	145.800000
299.808716	145.780000
299.901917	145.580000
299.995117	145.600000
300.088287	145.620000
300.181488	145.760000
300.274658	145.780000
300.367828	145.840000
300.461029	145.600000
300.554199	145.960000
300.647400	146.220000
300.740601	146.620000
300.833771	146.300000
300.926971	146.860000
301.020142	146.280000
301.113342	145.960000
301.206512	145.660000
301.299713	146.080000
301.392914	145.880000
301.486084	146.400000
301.579285	146.580000
301.672516	146.840000
301.765686	146.500000
301.858887	146.300000
301.952057	146.000000
302.045288	145.820000
302.138458	145.580000
302.231659	145.160000
302.324860	145.120000
302.418060	145.040000
302.511261	145.140000
302.604462	145.280000
302.697662	145.560000
302.790863	145.560000
302.884064	145.420000
302.977264	145.600000
303.070465	145.980000
303.163666	146.760000
303.256866	147.060000
303.350067	147.240000
303.443268	147.100000
303.536469	146.600000
303.629669	145.860000
303.722870	146.060000
303.816071	145.820000
303.909271	145.820000
304.002472	145.300000
304.095673	145.240000
304.188934	144.340000
304.282104	145.200000
304.375336	145.140000
304.468506	145.400000
304.561768	145.360000
304.654968	145.840000
304.748169	145.000000
304.841370	144.820000
304.934601	145.140000
305.027802	145.080000
305.121002	144.740000
305.214233	145.060000
305.307434	145.200000
305.400665	145.680000
305.493866	145.740000
305.587097	146.140000
305.680298	146.120000
305.773499	146.840000
305.866730	146.440000
305.959930	147.040000
306.053162	147.140000
306.146393	146.940000
306.239594	145.980000
306.332825	145.980000
306.426025	146.340000
306.519287	146.000000
306.612488	145.760000
306.705719	146.240000
306.798920	146.320000
306.892181	145.160000
306.985352	144.760000
307.078613	144.440000
307.171844	144.660000
307.265045	144.320000
307.358276	144.320000
307.451508	144.820000
307.544739	145.620000
307.637970	145.200000
307.731201	145.360000
307.824402	146.280000
307.917633	146.620000
308.010864	147.060000
308.104095	147.520000
308.197327	147.520000
308.290558	147.020000
308.383789	146.480000
308.477020	145.840000
308.570251	144.960000
308.663483	144.500000
308.756714	144.720000
308.849976	144.820000
308.943176	145.380000
309.036438	145.800000
309.129639	145.680000
309.222900	145.460000
309.316101	145.420000
309.409393	144.600000
309.502625	144.520000
309.595856	144.960000
309.689087	145.000000
309.782318	145.100000
309.875580	145.320000
309.968811	145.380000
310.062042	145.040000
310.155273	144.960000
310.248535	145.320000
310.341766	145.380000
310.434998	145.020000
310.528259	145.040000
310.621490	145.300000
310.714722	144.520000
310.807983	144.720000
310.901215	145.080000
310.994476	145.360000
311.087708	144.960000
311.181000	145.560000
311.274200	145.000000
311.367462	144.940000
311.460693	144.800000
311.553986	145.640000
311.647186	145.600000
311.740479	146.500000
311.833710	146.360000
311.926971	146.500000
312.020203	145.620000
312.113464	145.500000
312.206726	144.920000
312.299957	145.120000
312.393219	145.720000
312.486481	146.140000
312.579712	146.060000
312.672974	145.920000
312.766235	145.880000
312.859497	145.420000
312.952759	145.060000
313.045990	145.680000
313.139252	145.360000
313.232513	145.500000
313.325775	145.520000
313.419037	145.520000
313.512299	144.800000
313.605530	145.460000
313.698822	145.540000
313.792053	145.360000
313.885345	144.800000
313.978577	144.900000
314.071869	144.380000
314.165131	144.280000
314.258392	144.620000
314.351654	145.400000
314.444916	144.700000
314.538177	145.460000
314.631439	145.920000
314.724701	145.520000
314.817993	145.600000
314.911255	146.640000
315.004517	146.060000
315.097778	145.560000
315.191040	146.080000
315.284302	146.220000
315.377594	145.660000
315.470856	145.500000
315.564117	145.040000
315.657379	144.280000
315.750671	143.640000
315.843933	143.800000
315.937195	143.700000
316.030518	143.780000
316.123749	144.100000
316.217041	145.300000
316.310303	145.480000
316.403595	145.980000
316.496857	146.600000
316.590149	146.760000
316.683411	145.460000
316.776703	145.080000
316.869965	144.900000
316.963257	144.340000
317.056519	144.000000
317.149811	144.260000
317.243073	144.360000
317.336365	144.700000
317.429626	145.280000
317.522919	145.740000
317.616180	145.860000
317.709473	145.760000
317.802765	145.660000
317.896027	145.600000
317.989319	145.760000
318.082611	145.840000
318.175873	145.800000
318.269165	145.680000
318.362488	145.540000
318.455750	145.180000
318.549042	145.640000
318.642303	146.200000
318.735626	145.680000
318.828888	145.900000
318.922211	145.580000
319.015472	145.760000
319.108765	145.180000
319.202057	145.080000
319.295349	144.800000
319.388641	144.840000
319.481934	144.160000
319.575226	144.180000
319.668518	144.520000
319.761810	144.720000
319.855103	145.060000
319.948395	145.380000
320.041687	145.600000
320.134979	145.500000
320.228271	145.160000
320.321564	144.680000
320.414856	144.460000
320.508148	144.140000
320.601440	144.360000
320.694763	144.480000
320.788025	145.380000
320.881348	145.300000
320.974640	145.460000
321.067963	145.040000
321.161224	145.140000
321.254547	144.260000
321.347839	145.140000
321.441162	144.900000
321.534454	145.400000
321.627747	145.060000
321.721069	145.620000
321.814362	145.120000
321.907654	145.320000
322.000946	145.320000
322.094269	146.220000
322.187561	146.120000
322.280884	146.060000
322.374176	146.420000
322.467468	146.820000
322.560791	146.360000
322.654083	146.760000
322.747406	147.040000
322.840698	147.320000
322.934021	147.160000
323.027344	147.200000
323.120636	146.640000
323.213959	146.320000
323.307251	145.520000
323.400574	145.220000
323.493866	144.960000
323.587219	144.980000
323.680511	145.480000
323.773834	145.880000
323.867157	145.980000
323.960449	146.100000
324.053772	146.040000
324.147095	145.940000
324.240387	146.340000
324.333710	146.660000
324.427032	146.760000
324.520355	146.960000
324.613647	146.360000
324.706970	146.040000
324.800293	145.540000
324.893616	145.800000
324.986938	145.920000
325.080231	145.840000
325.173553	146.420000
325.266876	146.800000
325.360199	146.500000
325.453522	146.100000
325.546875	146.160000
325.640167	145.820000
325.733521	145.860000
325.826813	146.120000
325.920166	146.080000
326.013489	146.100000
326.106812	145.180000
326.200134	144.820000
326.293457	144.100000
326.386780	144.180000
326.480103	143.840000
326.573425	144.220000
326.666748	144.480000
326.760071	145.340000
326.853424	145.700000
326.946747	145.820000
327.040070	146.480000
327.133392	146.240000
327.226715	145.280000
327.320068	144.640000
327.413391	145.080000
327.506714	144.300000
327.600037	144.460000
327.693390	144.840000
327.786713	145.100000
327.880066	144.920000
327.973358	145.480000
328.066742	145.580000
328.160034	145.640000
328.253418	145.940000
328.346710	145.780000
328.440063	145.300000
328.533417	145.340000
328.626740	145.720000
328.720093	145.520000
328.813416	145.520000
328.906769	145.700000
329.000092	145.740000
329.093445	145.540000
329.186768	145.360000
329.280121	145.960000
329.373444	146.300000
329.466797	146.180000
329.560120	146.280000
329.653473	146.640000
329.746796	146.160000
329.840149	145.740000
329.933502	145.540000
330.026825	145.300000
330.120178	144.880000
330.213562	144.840000
330.306854	144.940000
330.400238	145.140000
330.493561	144.920000
330.586945	145.680000
330.680237	146.020000
330.773621	146.100000
330.866974	146.020000
330.960327	146.320000
331.053680	145.660000
331.147003	145.840000
331.240356	145.860000
331.333710	145.760000
331.427063	145.460000
331.520416	145.440000
331.613770	144.960000
331.707123	145.000000
331.800476	145.220000
331.893829	146.220000
331.987152	146.500000
332.080505	146.440000
332.173859	146.440000
332.267212	145.960000
332.360565	145.020000
332.453918	144.980000
332.547333	145.080000
332.640656	145.220000
332.734039	145.420000
332.827362	145.540000
332.920746	145.920000
333.014069	146.120000
333.107452	146.480000
333.200806	146.820000
333.294159	147.100000
333.387543	146.360000
333.480896	145.780000
333.574249	145.360000
333.667603	144.920000
333.760956	144.880000
333.854340	145.240000
333.947693	145.700000
334.041046	145.800000
334.134430	146.260000
334.227783	145.660000
334.321136	145.540000
334.414520	145.060000
334.507874	145.040000
334.601227	144.620000
334.694611	145.080000
334.787964	145.180000
334.881348	145.760000
334.974701	145.900000
335.068085	145.720000
335.161438	145.620000
335.254822	145.400000
335.348175	145.340000
335.441559	144.860000
335.534943	145.880000
335.628296	146.020000
335.721680	146.300000
335.815033	146.220000
335.908417	146.500000
336.001770	146.120000
336.095154	145.880000
336.188538	145.420000
336.281891	145.120000
336.375275	144.600000
336.468658	144.060000
336.562012	144.160000
336.655396	144.580000
336.748779	145.140000
336.842133	145.600000
336.935516	146.100000
337.028900	145.740000
337.122284	145.260000
337.215637	144.840000
337.309021	144.640000
337.402435	143.960000
337.495789	144.180000
337.589203	144.240000
337.682526	144.280000
337.775940	144.640000
337.869324	145.120000
337.962708	144.940000
338.056091	145.760000
338.149475	145.680000
338.242859	145.300000
338.336243	145.180000
338.429626	145.520000
338.523010	145.160000
338.616394	144.960000
338.709778	145.200000
338.803162	145.460000
338.896545	145.520000
338.989929	145.380000
339.083313	145.880000
339.176697	145.540000
339.270081	145.460000
339.363464	145.580000
339.456848	145.640000
339.550232	145.060000
339.643616	144.900000
339.737030	144.820000
339.830383	144.740000
339.923828	144.980000
340.017181	145.180000
340.110596	145.540000
340.203949	145.500000
340.297363	144.920000
340.390778	144.720000
340.484161	144.840000
340.577545	144.860000
340.670959	145.180000
340.764343	145.360000
340.857727	145.580000
340.951111	145.140000
341.044525	145.060000
341.137909	144.500000
341.231293	144.600000
341.324707	143.900000
341.418091	144.900000
341.511505	144.980000
341.604889	145.400000
341.698303	145.760000
341.791687	145.960000
341.885071	145.220000
341.978485	145.100000
342.071899	145.220000
342.165283	145.220000
342.258698	145.520000
342.352081	146.020000
342.445496	146.340000
342.538879	145.940000
342.632324	145.680000
342.725708	145.520000
342.819122	144.980000
342.912506	144.860000
343.005920	144.860000
343.099335	145.740000
343.192719	145.760000
343.286133	145.860000
343.379547	145.920000
343.472931	146.060000
343.566345	145.200000
343.659760	145.600000
343.753143	145.760000
343.846558	145.420000
343.939972	145.300000
344.033386	146.040000
344.126770	145.740000
344.220184	145.800000
344.313599	146.600000
344.407043	147.140000
344.500427	146.260000
344.593872	146.540000
344.687225	146.200000
344.780670	145.340000
344.874054	144.780000
344.967499	145.660000
345.060913	145.580000
345.154327	145.680000
345.247742	145.580000
345.341156	145.600000
345.434570	144.780000
345.527985	144.640000
345.621399	144.740000
345.714813	144.980000
345.808228	145.180000
345.901642	145.160000
345.995056	145.100000
346.088470	145.200000
346.181885	145.160000
346.275299	144.780000
346.368713	144.660000
346.462128	144.100000
346.555573	144.040000
346.648987	144.260000
346.742401	144.540000
346.835815	145.040000
346.929260	145.320000
347.022644	145.300000
347.116119	145.460000
347.209503	145.380000
347.302948	146.060000
347.396362	146.660000
347.489807	146.560000
347.583221	146.980000
347.676636	146.660000
347.770050	145.560000
347.863495	145.180000
347.956909	145.600000
348.050323	144.680000
348.143768	145.160000
348.237183	145.160000
348.330597	145.680000
348.424042	145.880000
348.517456	146.440000
348.610901	146.540000
348.704315	146.440000
348.797760	145.500000
348.891174	144.760000
348.984619	144.280000
349.078033	144.360000
349.171448	145.060000
349.264923	145.280000
349.358337	145.320000
349.451782	145.560000
349.545197	145.020000
349.638641	144.480000
349.732086	144.400000
349.825500	144.840000
349.918945	144.400000
350.012390	144.880000
350.105804	145.360000
350.199249	145.380000
350.292664	145.580000
350.386108	145.960000
350.479553	146.240000
350.572968	146.080000
350.666412	146.220000
350.759857	145.800000
350.853302	146.260000
350.946716	145.660000
351.040161	145.740000
351.133606	145.740000
351.227081	145.880000
351.320465	146.340000
351.413940	146.900000
351.507355	147.140000
351.600830	147.360000
351.694244	146.880000
351.787720	146.540000
351.881104	145.940000
351.974579	145.220000
352.067993	145.700000
352.161469	146.120000
352.254883	145.180000
352.348358	145.220000
352.441803	145.520000
352.535248	145.100000
352.628693	145.440000
352.722137	145.740000
352.815582	145.960000
352.909027	146.240000
353.002472	146.140000
353.095917	145.700000
353.189362	145.780000
353.282806	145.940000
353.376251	145.220000
353.469696	144.740000
353.563141	145.180000
353.656586	144.940000
353.750061	144.460000
353.843475	144.640000
353.936981	145.360000
354.030396	144.820000
354.123871	144.920000
354.217285	145.800000
354.310760	146.140000
354.404175	146.040000
354.497681	145.720000
354.591095	145.880000
354.684570	144.900000
354.777985	144.580000
354.871490	144.220000
354.964935	144.780000
355.058380	144.860000
355.151855	145.000000
355.245300	145.400000
355.338745	145.880000
355.432220	145.600000
355.525665	144.940000
355.619110	145.320000
355.712585	145.100000
355.806030	144.580000
355.899475	144.480000
355.992950	145.100000
356.086426	145.240000
356.179871	145.140000
356.273346	145.240000
356.366791	145.700000
356.460266	145.920000
356.553711	145.440000
356.647186	145.880000
356.740631	145.620000
356.834106	145.360000
356.927551	145.200000
357.021027	145.420000
357.114471	145.240000
357.207947	145.740000
357.301422	145.960000
357.394867	145.880000
357.488342	146.160000
357.581818	146.360000
357.675262	146.540000
357.768738	146.120000
357.862213	145.780000
357.955658	145.600000
358.049133	145.100000
358.142609	145.040000
358.236053	145.000000
358.329529	145.060000
358.423035	145.480000
358.516449	145.260000
358.609955	145.720000
358.703400	146.360000
358.796906	146.640000
358.890350	145.700000
358.983826	146.440000
359.077271	145.320000
359.170776	145.060000
359.264221	144.920000
359.357727	145.460000
359.451172	145.480000
359.544647	146.080000
359.638123	145.640000
359.731598	146.200000
359.825073	146.160000
359.918549	145.920000
360.012024	145.960000
360.105499	146.060000
360.198975	145.720000
360.292450	145.760000
360.385925	145.500000
360.479401	145.140000
360.572876	145.500000
360.666351	145.760000
360.759857	145.660000
360.853302	145.840000
360.946808	145.620000
361.040253	145.440000
361.133759	144.760000
361.227203	145.140000
361.320709	144.960000
361.414154	145.320000
361.507660	145.580000
361.601105	146.280000
361.694641	146.440000
361.788086	146.520000
361.881592	146.780000
361.975067	146.300000
362.068542	146.660000
362.162018	146.320000
362.255524	146.020000
362.348999	145.840000
362.442474	146.300000
362.535950	145.720000
362.629456	145.520000
362.722931	145.820000
362.816406	145.960000
362.909882	146.280000
363.003387	145.900000
363.096863	146.220000
363.190338	146.140000
363.283875	145.900000
363.377319	145.480000
363.470825	145.980000
363.564301	145.140000
363.657806	145.280000
363.751282	144.920000
363.844788	145.860000
363.938232	145.400000
364.031769	146.540000
364.125214	146.720000
364.218750	147.360000
364.312225	145.900000
364.405731	146.160000
364.499207	145.400000
364.592712	145.160000
364.686188	144.920000
364.779694	145.700000
364.873169	145.840000
364.966675	146.080000
365.060150	146.020000
365.153656	146.140000
365.247131	145.960000
365.340637	146.080000
365.434143	146.360000
365.527618	146.540000
365.621155	146.060000
365.714600	145.900000
365.808136	145.740000
365.901611	144.820000
365.995117	144.580000
366.088593	144.720000
366.182129	144.720000
366.275604	144.640000
366.369110	144.900000
366.462585	144.860000
366.556122	145.480000
366.649567	145.440000
366.743103	145.580000
366.836609	145.360000
366.930115	145.680000
367.023590	145.480000
367.117096	145.080000
367.210602	144.980000
367.304108	146.000000
367.397614	146.500000
367.491119	146.900000
367.584595	147.560000
367.678101	147.820000
367.771606	147.180000
367.865112	146.360000
367.958649	145.580000
368.052124	145.280000
368.145660	144.940000
368.239136	145.340000
368.332672	145.640000
368.426147	145.740000
368.519684	146.000000
368.613159	146.320000
368.706696	145.920000
368.800171	145.780000
368.893707	145.640000
368.987183	145.400000
369.080719	145.240000
369.174225	145.140000
369.267731	145.320000
369.361237	145.520000
369.454742	145.560000
369.548248	145.940000
369.641754	145.960000
369.735260	145.820000
369.828766	144.960000
369.922272	145.680000
370.015808	145.100000
370.109314	145.080000
370.202820	144.700000
370.296356	146.300000
370.389832	145.500000
370.483368	145.120000
370.576874	144.980000
370.670410	145.660000
370.763885	144.260000
370.857422	144.440000
370.950928	144.880000
371.044464	145.780000
371.137939	145.800000
371.231476	146.620000
371.324982	147.000000
371.418518	147.040000
371.512024	146.760000
371.605560	146.600000
371.699066	146.660000
371.792572	146.040000
371.886108	146.300000
371.979614	145.980000
372.073120	146.100000
372.166656	145.680000
372.260162	146.220000
372.353668	145.900000
372.447205	145.340000
372.540710	145.000000
372.634277	145.180000
372.727753	144.900000
372.821320	145.080000
372.914795	145.340000
373.008362	145.340000
373.101837	145.140000
373.195404	145.140000
373.288879	144.860000
373.382446	145.460000
373.475922	145.460000
373.569489	146.220000
373.662964	146.780000
373.756531	147.080000
373.850037	147.020000
373.943573	147.200000
374.037109	146.080000
374.130615	145.940000
374.224152	145.980000
374.317657	145.760000
374.411194	146.380000
374.504730	146.600000
374.598236	146.340000
374.691772	146.180000
374.785309	146.360000
374.878815	145.160000
374.972351	145.940000
375.065887	145.800000
375.159454	146.560000
375.252930	146.220000
375.346497	146.900000
375.440002	146.880000
375.533569	146.720000
375.627045	145.840000
375.720612	146.040000
375.814117	146.160000
375.907684	145.680000
376.001160	145.900000
376.094727	145.440000
376.188232	146.220000
376.281799	146.000000
376.375336	145.980000
376.468872	146.600000
376.562408	147.160000
376.655914	146.280000
376.749451	146.340000
376.842987	146.700000
376.936523	145.980000
377.030060	145.860000
377.123596	146.060000
377.217133	145.480000
377.310669	145.340000
377.404205	145.780000
377.497772	146.160000
377.591278	146.120000
377.684845	147.300000
377.778351	147.060000
377.871918	146.680000
377.965424	146.100000
378.058990	145.860000
378.152496	145.100000
378.246063	145.420000
378.339569	145.440000
378.433136	145.520000
378.526642	145.560000
378.620209	145.800000
378.713745	145.660000
378.807312	146.080000
378.900848	145.980000
378.994385	146.680000
379.087921	145.920000
379.181458	146.000000
379.274994	145.260000
379.368530	145.260000
379.462097	145.120000
379.555634	145.880000
379.649170	145.280000
379.742706	145.320000
379.836273	145.660000
379.929810	144.940000
380.023376	144.480000
380.116882	144.720000
380.210449	144.900000
380.303986	144.680000
380.397552	144.700000
380.491058	144.940000
380.584656	144.800000
380.678162	144.840000
380.771729	144.900000
380.865265	145.680000
380.958832	145.960000
381.052368	146.120000
381.145935	146.400000
381.239471	146.640000
381.333008	146.180000
381.426575	145.860000
381.520111	146.460000
381.613647	146.580000
381.707214	146.320000
381.800751	146.060000
381.894318	146.400000
381.987854	145.720000
382.081421	145.280000
382.174988	145.340000
382.268524	145.280000
382.362091	144.940000
382.455627	146.100000
382.549194	145.880000
382.642731	145.540000
382.736298	145.440000
382.829834	145.400000
382.923401	145.600000
383.016937	146.040000
383.110504	146.740000
383.204041	146.760000
383.297607	147.300000
383.391174	146.120000
383.484741	146.780000
383.578278	146.200000
383.671844	146.200000
383.765411	145.400000
383.858948	146.040000
383.952515	145.740000
384.046051	146.560000
384.139618	147.020000
384.233185	147.320000
384.326721	146.880000
384.420288	147.200000
384.513855	146.840000
384.607422	146.760000
384.700989	146.880000
384.794525	146.560000
384.888123	146.140000
384.981659	146.220000
385.075226	146.020000
385.168762	145.860000
385.262360	146.080000
385.355896	145.320000
385.449463	144.960000
385.542999	144.780000
385.636597	145.180000
385.730164	145.420000
385.823730	145.300000
385.917267	145.000000
386.010834	145.320000
386.104401	145.280000
386.197968	145.460000
386.291534	146.140000
386.385101	146.520000
386.478668	147.120000
386.572235	147.200000
386.665802	146.600000
386.759338	146.200000
386.852905	146.060000
386.946472	145.500000
387.040070	145.360000
387.133606	145.540000
387.227203	145.260000
387.320740	145.420000
387.414337	145.220000
387.507874	145.040000
387.601471	145.040000
387.695007	145.180000
387.788605	144.820000
387.882141	145.120000
387.975739	145.120000
388.069275	144.760000
388.162872	145.100000
388.256439	145.200000
388.350037	144.780000
388.443604	144.640000
388.537170	144.920000
388.630737	145.460000
388.724304	145.560000
388.817871	145.440000
388.911438	145.820000
389.005005	146.000000
389.098602	146.040000
389.192169	145.800000
389.285736	146.380000
389.379333	146.100000
389.472870	145.860000
389.566467	145.640000
389.660034	145.820000
389.753632	145.400000
389.847168	145.660000
389.940765	146.000000
390.034332	145.720000
390.127930	145.560000
390.221466	145.360000
390.315063	144.780000
390.408630	144.100000
390.502228	143.500000
390.595795	143.700000
390.689362	144.020000
390.782959	144.380000
390.876526	145.040000
390.970093	145.480000
391.063690	145.820000
391.157257	146.200000
391.250824	146.580000
391.344421	146.040000
391.437988	146.160000
391.531555	146.200000
391.625153	145.940000
391.718750	146.060000
391.812317	146.280000
391.905914	146.160000
391.999481	146.020000
392.093079	146.020000
392.186615	146.240000
392.280243	146.260000
392.373779	146.180000
392.467407	146.480000
392.560944	146.340000
392.654572	145.520000
392.748108	145.460000
392.841736	145.680000
392.935303	145.140000
393.028900	145.080000
393.122467	145.480000
393.216064	145.220000
393.309631	144.960000
393.403229	144.620000
393.496796	144.640000
393.590393	143.780000
393.683990	144.300000
393.777557	144.880000
393.871155	145.400000
393.964722	145.820000
394.058350	146.360000
394.151917	146.300000
394.245514	145.860000
394.339081	145.900000
394.432678	146.000000
394.526245	145.820000
394.619873	145.380000
394.713409	145.460000
394.807037	145.280000
394.900604	145.300000
394.994202	145.580000
395.087769	146.120000
395.181396	145.880000
395.274994	147.100000
395.368561	146.280000
395.462158	146.560000
395.555756	146.260000
395.649353	146.640000
395.742920	145.660000
395.836517	146.420000
395.930115	145.580000
396.023712	145.920000
396.117279	146.360000
396.210876	145.880000
396.304474	145.840000
396.398071	146.240000
396.491669	145.920000
396.585266	145.240000
396.678833	145.460000
396.772461	145.560000
396.866028	145.760000
396.959656	146.260000
397.053223	146.840000
397.146851	147.120000
397.240417	147.880000
397.334015	149.440000
397.427582	150.500000
397.521210	152.520000
397.614807	155.420000
397.708405	158.500000
397.802002	162.140000
397.895599	168.200000
397.989197	175.060000
398.082794	183.700000
398.176392	195.420000
398.269989	208.400000
398.363586	223.680000
398.457184	241.580000
398.550781	261.060000
398.644379	280.220000
398.737976	301.680000
398.831573	323.940000
398.925201	345.980000
399.018768	370.160000
399.112396	396.600000
399.205963	426.280000
399.299591	457.980000
399.393158	493.920000
399.486786	532.280000
399.580353	568.960000
399.673981	599.340000
399.767578	625.920000
399.861206	643.360000
399.954773	650.100000
400.048401	646.420000
400.141998	637.360000
400.235596	620.680000
400.329193	600.740000
400.422791	579.540000
400.516418	559.200000
400.610016	537.700000
400.703613	515.440000
400.797211	488.360000
400.890808	458.700000
400.984436	427.440000
401.078033	395.420000
401.171631	363.480000
401.265259	335.500000
401.358826	309.280000
401.452484	285.160000
401.546051	264.020000
401.639679	243.760000
401.733246	225.900000
401.826904	209.680000
401.920471	195.700000
402.014099	183.840000
402.107697	174.820000
402.201324	167.180000
402.294891	161.980000
402.388550	158.420000
402.482147	155.260000
402.575745	152.580000
402.669373	150.360000
402.762970	148.860000
402.856567	148.080000
402.950195	147.360000
403.043793	146.980000
403.137390	147.720000
403.231018	146.860000
403.324615	147.000000
403.418243	146.500000
403.511841	146.960000
403.605469	146.460000
403.699066	147.200000
403.792694	147.120000
403.886292	147.600000
403.979919	147.120000
404.073517	146.520000
404.167145	146.740000
404.260712	146.360000
404.354370	146.080000
404.447937	146.200000
404.541595	146.700000
404.635162	146.540000
404.728821	146.960000
404.822418	146.660000
404.916046	146.640000
405.009644	146.680000
405.103271	146.820000
405.196899	146.360000
405.290497	146.480000
405.384125	146.560000
405.477722	146.180000
405.571350	145.600000
405.664948	145.860000
405.758575	145.540000
405.852203	145.120000
405.945801	145.320000
406.039429	145.580000
406.133057	145.220000
406.226654	145.480000
406.320312	145.440000
406.413879	145.640000
406.507538	145.640000
406.601135	145.400000
406.694763	145.680000
406.788361	145.760000
406.882019	145.320000
406.975586	145.660000
407.069244	146.120000
407.162872	145.980000
407.256470	146.000000
407.350098	145.900000
407.443726	145.180000
407.537323	144.740000
407.630951	145.140000
407.724579	144.860000
407.818207	145.380000
407.911804	145.440000
408.005432	145.480000
408.099060	145.600000
408.192688	146.280000
408.286285	145.760000
408.379913	145.560000
408.473572	145.820000
408.567169	145.020000
408.660828	144.800000
408.754395	145.140000
408.848053	145.220000
408.941650	145.420000
409.035309	145.260000
409.128906	145.280000
409.222565	145.300000
409.316132	145.640000
409.409790	145.200000
409.503387	145.400000
409.597046	145.320000
409.690674	145.260000
409.784302	145.060000
409.877930	145.120000
409.971558	145.260000
410.065186	145.180000
410.158783	144.920000
410.252411	145.160000
410.346039	145.640000
410.439667	145.640000
410.533295	145.940000
410.626923	146.440000
410.720551	146.020000
410.814209	146.120000
410.907806	146.280000
411.001465	145.580000
411.095062	145.540000
411.188721	145.500000
411.282318	145.060000
411.375977	144.700000
411.469574	144.820000
411.563232	144.560000
411.656830	144.600000
411.750488	144.300000
411.844086	144.140000
411.937744	144.580000
412.031372	144.600000
412.125000	144.660000
412.218628	144.800000
412.312256	145.640000
412.405884	146.080000
412.499512	145.860000
412.593170	146.220000
412.686798	146.340000
412.780426	145.640000
412.874054	145.360000
412.967682	145.420000
413.061310	145.920000
413.154968	146.180000
413.248566	146.140000
413.342224	146.020000
413.435852	146.180000
413.529510	145.520000
413.623108	144.820000
413.716766	144.940000
413.810364	145.160000
413.904022	145.000000
413.997650	144.760000
414.091309	145.740000
414.184906	145.820000
414.278564	145.380000
414.372192	145.780000
414.465851	146.280000
414.559479	145.500000
414.653107	146.220000
414.746735	146.020000
414.840393	145.960000
414.934021	145.940000
415.027649	145.960000
415.121277	145.420000
415.214935	146.120000
415.308563	145.800000
415.402191	145.260000
415.495850	145.460000
415.589478	145.400000
415.683136	144.660000
415.776733	144.960000
415.870422	145.780000
415.964020	145.000000
416.057678	144.920000
416.151306	145.140000
416.244965	144.920000
416.338562	144.680000
416.432251	145.560000
416.525848	146.540000
416.619507	147.060000
416.713165	147.540000
416.806793	147.160000
416.900421	147.360000
416.994080	146.140000
417.087708	145.740000
417.181366	145.260000
417.274994	145.300000
417.368622	145.280000
417.462280	145.900000
417.555908	145.940000
417.649567	146.060000
417.743195	146.100000
417.836853	145.840000
417.930481	146.060000
418.024170	146.300000
418.117767	146.840000
418.211426	147.080000
418.305054	147.260000
418.398712	146.620000
418.492340	146.320000
418.585999	145.820000
418.679626	145.740000
418.773285	145.660000
418.866913	145.980000
418.960571	146.460000
419.054230	146.520000
419.147858	146.800000
419.241516	146.960000
419.335144	146.820000
419.428802	146.300000
419.522461	146.100000
419.616089	145.640000
419.709747	145.820000
419.803375	145.980000
419.897034	146.000000
419.990662	146.240000
420.084320	146.760000
420.177979	146.580000
420.271606	146.520000
420.365295	147.020000
420.458893	147.240000
420.552582	147.020000
420.646210	146.860000
420.739868	146.780000
420.833496	146.240000
420.927155	145.580000
421.020782	145.060000
421.114471	144.800000
421.208069	144.620000
421.301758	144.860000
421.395386	145.180000
421.489044	145.400000
421.582703	145.740000
421.676361	146.540000
421.769989	146.340000
421.863647	146.860000
421.957306	147.020000
422.050934	146.980000
422.144592	146.560000
422.238251	146.420000
422.331909	145.780000
422.425537	145.640000
422.519196	145.500000
422.612854	144.920000
422.706543	144.660000
422.800140	144.880000
422.893829	144.660000
422.987457	144.180000
423.081146	144.460000
423.174744	145.020000
423.268433	144.600000
423.362061	144.700000
423.455750	145.280000
423.549347	145.480000
423.643036	144.760000
423.736664	145.460000
423.830353	145.860000
423.924011	146.060000
424.017639	145.460000
424.111298	145.820000
424.204956	145.540000
424.298615	145.300000
424.392273	144.900000
424.485931	145.500000
424.579559	145.780000
424.673218	145.480000
424.766876	145.460000
424.860535	145.300000
424.954193	145.160000
425.047882	145.220000
425.141510	145.680000
425.235199	145.740000
425.328796	145.680000
425.422485	145.380000
425.516113	144.840000
425.609802	144.660000
425.703430	144.340000
425.797119	144.360000
425.890747	144.740000
425.984436	145.120000
426.078064	145.340000
426.171753	145.940000
426.265411	145.860000
426.359070	145.700000
426.452728	145.640000
426.546356	145.240000
426.640015	144.620000
426.733673	144.940000
426.827332	144.960000
426.920990	145.700000
427.014648	145.540000
427.108307	145.900000
427.201965	145.880000
427.295624	146.080000
427.389282	145.280000
427.482941	145.840000
427.576630	145.740000
427.670258	145.340000
427.763947	145.000000
427.857574	145.180000
427.951263	144.860000
428.044922	144.740000
428.138611	144.940000
428.232239	145.760000
428.325928	145.900000
428.419556	146.260000
428.513245	146.200000
428.606903	146.540000
428.700562	145.700000
428.794220	145.260000
428.887878	144.520000
428.981537	145.040000
429.075195	144.840000
429.168854	145.260000
429.262512	145.460000
429.356201	145.960000
429.449860	145.480000
429.543518	145.780000
429.637177	146.020000
429.730835	145.960000
429.824493	145.960000
429.918182	146.160000
430.011810	145.580000
430.105530	144.660000
430.199158	144.660000
430.292847	144.600000
430.386475	144.440000
430.480164	144.300000
430.573792	144.260000
430.667511	144.280000
430.761139	144.460000
430.854828	144.960000
430.948456	145.400000
431.042145	146.200000
431.135834	146.040000
431.229492	145.980000
431.323151	146.080000
431.416809	145.840000
431.510468	145.640000
431.604156	145.440000
431.697815	145.100000
431.791473	144.580000
431.885132	144.320000
431.978821	144.480000
432.072479	145.120000
432.166138	145.580000
432.259827	145.260000
432.353485	145.880000
432.447174	146.000000
432.540802	145.720000
432.634491	145.560000
432.728149	145.960000
432.821838	146.220000
432.915466	145.620000
433.009186	145.800000
433.102814	144.980000
433.196503	144.780000
433.290131	144.580000
433.383850	144.700000
433.477509	144.720000
433.571167	146.040000
433.664856	146.560000
433.758514	146.620000
433.852173	146.540000
433.945862	146.540000
434.039520	146.160000
434.133179	145.560000
434.226868	145.320000
434.320526	144.940000
434.414185	145.220000
434.507874	144.740000
434.601562	145.340000
434.695221	145.240000
434.788910	145.840000
434.882538	145.580000
434.976257	145.420000
435.069885	145.040000
435.163574	145.280000
435.257233	144.980000
435.350922	145.080000
435.444580	145.080000
435.538269	144.900000
435.631897	145.180000
435.725616	145.620000
435.819275	145.960000
435.912964	146.380000
436.006622	146.900000
436.100311	146.520000
436.193970	145.860000
436.287628	145.340000
436.381317	145.360000
436.474976	144.840000
436.568665	144.620000
436.662323	144.900000
436.756012	144.880000
436.849670	144.860000
436.943390	144.880000
437.037018	145.080000
437.130737	145.200000
437.224365	145.000000
437.318085	145.040000
437.411713	145.440000
437.505432	145.980000
437.599060	146.180000
437.692780	147.060000
437.786407	146.680000
437.880127	146.360000
437.973755	145.940000
438.067474	145.760000
438.161133	145.320000
438.254822	146.020000
438.348480	146.080000
438.442169	146.420000
438.535828	146.840000
438.629517	146.380000
438.723175	145.580000
438.816864	145.940000
438.910553	145.540000
439.004211	145.160000
439.097900	145.320000
439.191559	145.700000
439.285248	144.740000
439.378906	145.020000
439.472626	144.760000
439.566284	144.760000
439.659973	145.120000
439.753632	145.420000
439.847321	145.740000
439.940979	146.100000
440.034698	146.340000
440.128326	145.620000
440.222046	145.640000
440.315674	144.740000
440.409393	144.700000
440.503082	144.280000
440.596741	144.520000
440.690430	144.860000
440.784088	145.000000
440.877777	144.600000
440.971466	144.860000
441.065125	144.620000
441.158813	144.200000
441.252502	144.440000
441.346161	144.860000
441.439850	145.080000
441.533539	145.140000
441.627197	145.840000
441.720886	145.540000
441.814606	145.780000
441.908234	146.100000
442.001953	146.360000
442.095612	146.120000
442.189301	146.200000
442.282959	145.960000
442.376678	145.000000
442.470306	145.720000
442.564026	145.580000
442.657684	145.940000
442.751404	145.780000
442.845032	146.640000
442.938751	145.860000
443.032440	145.880000
443.126099	145.360000
443.219788	145.760000
443.313477	145.640000
443.407166	145.740000
443.500824	145.780000
443.594513	146.140000
443.688202	145.900000
443.781891	145.120000
443.875549	144.920000
443.969238	144.840000
444.062927	144.700000
444.156647	144.720000
444.250275	145.480000
444.343994	145.320000
444.437653	145.320000
444.531372	145.480000
444.625031	145.300000
444.718719	144.700000
444.812378	145.000000
444.906097	145.040000
444.999756	144.400000
445.093445	144.500000
445.187103	144.580000
445.280823	145.180000
445.374512	144.900000
445.468201	145.560000
445.561859	145.420000
445.655548	145.720000
445.749237	145.000000
445.842926	145.280000
445.936615	145.520000
446.030304	145.260000
446.123962	145.420000
446.217651	145.280000
446.311340	145.320000
446.405029	144.860000
446.498749	144.800000
446.592407	144.260000
446.686096	144.620000
446.779755	144.480000
446.873474	144.520000
446.967133	145.060000
447.060852	145.160000
447.154510	145.300000
447.248230	145.360000
447.341858	145.300000
447.435577	144.700000
447.529236	144.420000
447.622955	143.980000
447.716644	144.080000
447.810333	144.280000
447.904022	145.080000
447.997711	145.140000
448.091400	145.580000
448.185059	145.420000
448.278748	145.600000
448.372437	145.000000
448.466125	145.500000
448.559814	145.240000
448.653503	145.620000
448.747192	145.480000
448.840912	146.120000
448.934570	145.700000
449.028290	145.800000
449.121948	145.440000
449.215637	145.400000
449.309296	144.820000
449.403015	145.280000
449.496674	145.500000
449.590393	145.660000
449.684052	145.320000
449.777771	146.240000
449.871429	145.420000
449.965149	145.100000
450.058838	145.240000
450.152527	145.920000
450.246216	145.600000
450.339905	146.060000
450.433594	146.180000
450.527283	146.740000
450.620972	146.320000
450.714661	145.940000
450.808350	146.240000
450.902039	146.580000
450.995728	146.160000
451.089417	145.780000
451.183105	145.780000
451.276794	146.040000
451.370514	145.300000
451.464172	144.660000
451.557892	144.880000
451.651550	145.200000
451.745270	144.740000
451.838928	144.260000
451.932648	144.640000
452.026306	145.180000
452.120026	144.820000
452.213684	145.560000
452.307404	146.040000
452.401062	146.280000
452.494781	146.080000
452.588470	146.060000
452.682159	145.140000
452.775848	145.580000
452.869537	144.980000
452.963226	144.620000
453.056915	144.820000
453.150604	145.260000
453.244293	145.240000
453.337982	146.060000
453.431671	146.360000
453.525360	146.680000
453.619049	146.520000
453.712769	146.680000
453.806427	146.140000
453.900146	146.020000
453.993805	145.540000
454.087555	145.860000
454.181213	145.340000
454.274933	145.100000
454.368591	145.040000
454.462311	144.880000
454.555969	144.300000
454.649689	145.360000
454.743347	145.360000
454.837067	145.940000
454.930756	146.640000
455.024445	147.160000
455.118134	146.520000
455.211853	146.860000
455.305542	146.320000
455.399231	146.060000
455.492920	145.640000
455.586609	145.780000
455.680298	145.980000
455.773987	146.060000
455.867676	146.080000
455.961365	146.380000
456.055084	146.000000
456.148773	145.660000
456.242493	145.740000
456.336151	145.600000
456.429871	145.920000
456.523529	146.260000
456.617249	146.080000
456.710907	146.640000
456.804626	146.740000
456.898315	146.140000
456.992035	145.800000
457.085693	145.760000
457.179413	144.460000
457.273102	145.360000
457.366791	145.500000
457.460480	146.020000
457.554199	146.620000
457.647888	147.140000
457.741577	146.220000
457.835266	146.380000
457.928955	146.120000
458.022644	146.180000
458.116364	146.520000
458.210052	146.260000
458.303741	146.320000
458.397461	145.800000
458.491119	145.000000
458.584839	144.980000
458.678528	145.200000
458.772247	145.000000
458.865906	145.280000
458.959625	146.500000
459.053284	146.160000
459.147003	146.100000
459.240692	146.540000
459.334412	146.820000
459.428070	145.960000
459.521790	146.040000
459.615479	145.600000
459.709198	145.840000
459.802887	145.200000
459.896576	145.380000
459.990265	145.800000
460.083954	146.440000
460.177673	145.540000
460.271362	145.840000
460.365051	145.760000
460.458740	145.060000
460.552429	144.520000
460.646149	144.680000
460.739838	144.380000
460.833527	144.640000
460.927246	144.520000
461.020905	144.540000
461.114655	144.760000
461.208313	145.400000
461.302032	144.760000
461.395691	145.280000
461.489441	145.480000
461.583099	145.280000
461.676819	145.080000
461.770477	145.580000
461.864197	145.100000
461.957916	144.940000
462.051605	144.540000
462.145294	145.200000
462.238983	144.820000
462.332703	145.400000
462.426392	146.040000
462.520081	146.320000
462.613770	145.780000
462.707489	146.000000
462.801178	146.080000
462.894867	145.720000
462.988556	146.000000
463.082275	145.980000
463.175964	145.620000
463.269684	145.540000
463.363342	145.500000
463.457092	144.820000
463.550751	145.320000
463.644470	145.500000
463.738129	145.480000
463.831879	145.660000
463.925537	146.580000
464.019257	146.160000
464.112946	146.100000
464.206665	145.700000
464.300323	145.720000
464.394043	145.280000
464.487762	145.220000
464.581451	145.760000
464.675140	145.880000
464.768829	145.840000
464.862549	146.240000
464.956238	146.560000
465.049927	146.460000
465.143646	146.840000
465.237335	146.880000
465.331024	147.120000
465.424713	146.940000
465.518433	146.800000
465.612152	146.280000
465.705811	146.040000
465.799561	145.620000
465.893219	145.420000
465.986938	145.320000
466.080597	145.300000
466.174347	145.620000
466.268005	145.820000
466.361725	145.800000
466.455414	145.860000
466.549133	145.880000
466.642792	145.980000
466.736542	145.260000
466.830231	145.440000
466.923920	145.500000
467.017609	145.600000
467.111328	145.080000
467.205017	145.460000
467.298706	145.400000
467.392426	145.420000
467.486115	145.820000
467.579803	145.580000
467.673523	145.980000
467.767212	145.960000
467.860901	146.000000
467.954651	146.000000
468.048309	146.360000
468.142029	145.940000
468.235718	145.880000
468.329437	145.580000
468.423096	145.260000
468.516846	145.180000
468.610504	145.160000
468.704224	144.780000
468.797913	144.680000
468.891632	144.740000
468.985291	144.840000
469.079010	145.080000
469.172729	144.900000
469.266418	145.560000
469.360107	145.660000
469.453827	145.360000
469.547516	145.240000
469.641205	145.900000
469.734924	145.880000
469.828613	146.360000
469.922302	146.920000
470.016022	146.900000
470.109711	146.780000
470.203430	146.240000
470.297150	145.320000
470.390808	145.220000
470.484558	144.980000
470.578217	145.520000
470.671936	146.100000
470.765625	146.540000
470.859344	146.200000
470.953003	146.720000
471.046753	146.420000
471.140411	145.580000
471.234131	145.880000
471.327820	146.360000
471.421539	146.180000
471.515228	145.540000
471.608948	145.900000
471.702637	145.220000
471.796326	144.800000
471.890045	144.960000
471.983734	145.280000
472.077423	145.100000
472.171143	145.400000
472.264832	145.740000
472.358521	145.080000
472.452240	144.700000
472.545929	145.200000
472.639648	145.460000
472.733337	145.440000
472.827057	145.900000
472.920746	146.380000
473.014465	146.540000
473.108124	146.400000
473.201874	146.380000
473.295532	146.180000
473.389252	146.340000
473.482941	146.340000
473.576660	145.960000
473.670319	145.760000
473.764069	146.240000
473.857727	146.280000
473.951477	146.240000
474.045166	146.900000
474.138855	146.920000
474.232574	146.600000
474.326263	146.560000
474.419952	146.600000
474.513672	146.380000
474.607361	146.260000
474.701050	146.620000
474.794769	146.680000
474.888458	146.800000
474.982178	146.840000
475.075867	147.160000
475.169586	147.040000
475.263275	146.800000
475.356995	146.580000
475.450653	146.160000
475.544403	145.780000
475.638062	146.080000
475.731812	145.780000
475.825470	145.420000
475.919189	145.480000
476.012878	145.580000
476.106598	144.940000
476.200256	145.400000
476.294006	145.500000
476.387695	145.760000
476.481384	145.700000
476.575104	145.900000
476.668793	145.320000
476.762512	144.820000
476.856201	145.300000
476.949890	145.080000
477.043610	144.360000
477.137299	144.380000
477.230988	145.040000
477.324707	144.400000
477.418396	145.160000
477.512146	145.720000
477.605804	145.880000
477.699524	146.000000
477.793213	145.680000
477.886932	145.260000
477.980591	144.940000
478.074341	145.000000
478.167999	144.520000
478.261749	144.900000
478.355408	144.700000
478.449127	145.440000
478.542816	146.240000
478.636536	146.900000
478.730225	147.140000
478.823944	147.620000
478.917633	147.180000
479.011322	146.960000
479.105042	146.700000
479.198730	146.700000
479.292450	146.060000
479.386139	146.420000
479.479828	146.540000
479.573547	146.740000
479.667267	146.240000
479.760925	146.540000
479.854675	146.640000
479.948334	146.460000
480.042084	145.920000
480.135742	146.140000
480.229462	145.600000
480.323151	145.400000
480.416870	144.580000
480.510529	144.860000
480.604279	144.640000
480.697937	145.520000
480.791656	145.160000
480.885345	145.260000
480.979065	145.260000
481.072754	145.920000
481.166473	145.980000
481.260132	145.980000
481.353882	146.300000
481.447540	146.180000
481.541260	145.940000
481.635010	145.400000
481.728668	145.280000
481.822388	145.220000
481.916077	145.160000
482.009796	145.020000
482.103485	145.420000
482.197205	145.680000
482.290863	145.760000
482.384613	145.740000
482.478271	145.520000
482.571991	145.180000
482.665680	145.120000
482.759399	145.960000
482.853058	146.340000
482.946808	146.420000
483.040466	146.660000
483.134216	146.380000
483.227875	145.520000
483.321594	145.760000
483.415283	145.820000
483.509003	145.340000
483.602661	145.620000
483.696411	145.880000
483.790070	145.420000
483.883789	145.560000
483.977478	146.080000
484.071198	146.320000
484.164917	146.040000
484.258606	145.700000
484.352325	145.720000
484.445984	145.860000
484.539734	145.540000
484.633392	145.200000
484.727142	145.960000
484.820801	145.840000
484.914520	145.880000
485.008209	146.180000
485.101929	146.860000
485.195587	146.120000
485.289337	146.320000
485.382996	145.860000
485.476715	145.800000
485.570404	145.980000
485.664124	146.100000
485.757782	146.580000
485.851532	146.220000
485.945190	145.880000
486.038910	145.820000
486.132599	146.160000
486.226318	145.080000
486.319977	145.320000
486.413727	146.140000
486.507446	145.660000
486.601105	145.220000
486.694855	145.220000
486.788513	145.160000
486.882233	144.620000
486.975922	144.680000
487.069641	144.360000
487.163300	144.400000
487.257050	145.640000
487.350708	145.380000
487.444427	145.220000
487.538116	145.640000
487.631836	145.880000
487.725494	145.200000
487.819214	145.320000
487.912903	145.360000
488.006622	145.820000
488.100281	145.880000
488.194031	146.000000
488.287689	146.380000
488.381409	147.120000
488.475098	146.560000
488.568817	146.880000
488.662476	146.580000
488.756226	146.000000
488.849945	144.860000
488.943604	145.460000
489.037354	145.540000
489.131012	145.280000
489.224731	145.140000
489.318390	145.240000
489.412140	145.040000
489.505798	144.640000
489.599518	144.580000
489.693207	145.220000
489.786926	145.380000
489.880585	145.020000
489.974335	145.360000
490.067993	146.460000
490.161713	146.240000
490.255371	147.080000
490.349121	147.480000
490.442780	147.340000
490.536499	146.260000
490.630188	146.400000
490.723907	145.760000
490.817566	145.760000
490.911285	145.540000
491.004974	145.560000
491.098694	145.060000
491.192413	145.360000
491.286102	144.940000
491.379822	145.300000
491.473480	145.480000
491.567200	145.540000
491.660889	145.120000
491.754608	145.140000
491.848267	144.760000
491.941986	144.840000
492.035675	145.200000
492.129395	145.700000
492.223053	145.920000
492.316772	146.360000
492.410461	146.180000
492.504181	146.200000
492.597839	145.700000
492.691559	145.640000
492.785248	145.640000
492.878967	145.600000
492.972626	145.160000
493.066345	145.320000
493.160034	144.800000
493.253754	144.380000
493.347412	144.240000
493.441132	144.540000
493.534882	145.000000
493.628540	145.740000
493.722260	146.200000
493.815918	146.320000
493.909668	146.640000
494.003326	146.700000
494.097046	146.380000
494.190704	145.760000
494.284454	146.100000
494.378113	146.140000
494.471832	145.680000
494.565491	145.540000
494.659210	145.920000
494.752899	145.520000
494.846619	145.220000
494.940277	145.380000
495.033997	145.580000
495.127686	145.240000
495.221405	145.360000
495.315063	145.240000
495.408783	145.220000
495.502441	145.180000
495.596191	145.240000
495.689850	144.960000
495.783569	145.420000
495.877228	145.480000
495.970947	145.160000
496.064697	145.140000
496.158356	145.940000
496.252075	145.800000
496.345734	145.540000
496.439453	146.420000
496.533142	146.640000
496.626862	146.780000
496.720520	146.700000
496.814240	147.160000
496.907898	146.320000
497.001617	146.440000
497.095306	145.520000
497.189026	145.220000
497.282684	144.760000
497.376404	145.320000
497.470062	144.920000
497.563782	145.340000
497.657471	145.280000
497.751190	145.240000
497.844849	145.140000
497.938568	145.240000
498.032227	145.000000
498.125946	145.160000
498.219635	144.900000
498.313354	145.000000
498.407074	144.880000
498.500732	145.240000
498.594452	145.560000
498.688110	145.240000
498.781830	144.740000
498.875519	144.880000
498.969238	144.420000
499.062897	144.000000
499.156616	144.820000
499.250275	145.300000
499.343994	144.720000
499.437653	145.100000
499.531372	145.420000
499.625061	145.940000
499.718781	145.980000
499.812439	146.760000
499.906158	146.500000
499.999817	146.240000
500.093536	145.480000
500.187195	145.440000
500.280914	145.400000
500.374573	145.540000
500.468323	145.200000
500.561981	145.340000
500.655701	144.720000
500.749420	144.780000
500.843079	145.140000
500.936798	145.520000
501.030457	145.840000
501.124176	146.220000
501.217834	146.020000
501.311554	145.380000
501.405212	145.220000
501.498962	144.360000
501.592621	144.080000
501.686340	144.560000
501.779999	144.800000
501.873718	144.880000
501.967377	145.600000
502.061096	146.040000
502.154755	145.280000
502.248474	145.600000
502.342133	145.620000
502.435852	145.300000
502.529510	146.020000
502.623230	146.820000
502.716888	146.080000
502.810608	146.140000
502.904266	146.680000
502.997986	145.460000
503.091705	144.940000
503.185364	145.220000
503.279083	145.140000
503.372772	144.800000
503.466492	144.780000
503.560150	144.740000
503.653870	144.860000
503.747528	144.880000
503.841248	144.760000
503.934906	145.320000
504.028625	145.060000
504.122284	145.180000
504.216003	145.820000
504.309662	145.600000
504.403381	145.560000
504.497040	145.840000
504.590759	145.440000
504.684418	145.200000
504.778137	145.920000
504.871796	146.340000
504.965515	145.820000
505.059174	146.100000
505.152893	145.540000
505.246521	144.680000
505.340240	143.920000
505.433899	144.420000
505.527618	144.620000
505.621338	144.900000
505.714996	144.880000
505.808716	145.040000
505.902374	145.420000
505.996094	145.340000
506.089752	145.260000
506.183472	145.660000
506.277130	145.780000
506.370850	145.500000
506.464508	145.360000
506.558228	145.400000
506.651886	144.880000
506.745605	145.180000
506.839264	145.220000
506.932983	145.340000
507.026611	145.000000
507.120331	145.620000
507.213989	144.880000
507.307709	144.600000
507.401367	144.560000
507.495087	145.700000
507.588745	145.200000
507.682465	145.980000
507.776123	145.840000
507.869843	146.000000
507.963531	145.340000
508.057190	146.080000
508.150909	145.140000
508.244568	145.760000
508.338287	145.480000
508.431946	145.340000
508.525665	144.820000
508.619324	145.020000
508.713013	144.960000
508.806671	145.280000
508.900391	146.340000
508.994049	146.660000
509.087769	146.640000
509.181427	146.520000
509.275146	146.080000
509.368774	144.560000
509.462494	144.300000
509.556152	144.400000
509.649872	144.600000
509.743530	144.800000
509.837250	145.500000
509.930878	145.420000
510.024597	145.460000
510.118256	145.160000
510.211975	144.880000
510.305695	144.640000
510.399353	144.780000
510.493042	145.400000
510.586700	145.600000
510.680420	146.560000
510.774078	146.080000
510.867798	146.180000
510.961426	145.360000
511.055145	145.100000
511.148804	144.460000
511.242523	145.480000
511.336151	145.640000
511.429871	146.120000
511.523529	145.980000
511.617249	145.900000
511.710876	145.500000
511.804596	145.120000
511.898254	144.980000
511.991974	145.480000
512.085632	145.380000
512.179321	145.440000
512.272949	145.800000
512.366699	145.880000
512.460327	145.620000
512.554077	146.340000
512.647766	146.220000
512.741394	146.060000
512.835144	146.620000
512.928772	146.380000
513.022461	146.160000
513.116150	145.860000
513.209839	146.380000
513.303467	145.700000
513.397217	145.740000
513.490845	145.540000
513.584595	145.440000
513.678223	144.640000
513.771912	144.360000
513.865601	144.780000
513.959290	144.440000
514.052917	144.960000
514.146667	146.100000
514.240295	146.620000
514.333984	146.700000
514.427673	146.560000
514.521362	146.760000
514.614990	145.540000
514.708740	145.540000
514.802368	145.460000
514.896057	145.700000
514.989746	146.200000
515.083435	146.520000
515.177124	146.600000
515.270752	146.240000
515.364502	146.440000
515.458130	146.280000
515.551819	146.320000
515.645508	146.240000
515.739197	146.400000
515.832825	146.540000
515.926575	145.760000
516.020203	145.700000
516.113892	145.820000
516.207520	145.640000
516.301270	145.500000
516.394897	145.720000
516.488586	146.260000
516.582275	146.260000
516.675964	145.760000
516.769592	145.540000
516.863281	146.040000
516.956970	146.220000
517.050659	145.880000
517.144287	146.120000
517.238037	146.460000
517.331665	145.540000
517.425354	144.860000
517.519043	144.900000
517.612732	145.620000
517.706421	145.400000
517.800049	145.520000
517.893738	145.300000
517.987427	145.020000
518.081116	144.360000
518.174744	143.900000
518.268433	144.100000
518.362122	144.800000
518.455811	144.940000
518.549438	145.660000
518.643127	146.880000
518.736816	146.680000
518.830505	146.180000
518.924133	146.200000
519.017822	146.260000
519.111511	145.740000
519.205200	146.480000
519.298828	146.640000
519.392517	146.500000
519.486206	146.480000
519.579895	146.180000
519.673523	145.680000
519.767212	145.260000
519.860901	145.820000
519.954590	145.560000
520.048279	145.160000
520.141907	145.020000
520.235596	145.980000
520.329224	146.060000
520.422974	145.920000
520.516602	146.460000
520.610291	146.200000
520.703918	145.960000
520.797607	145.360000
520.891296	145.400000
520.984985	145.380000
521.078613	146.220000
521.172302	145.600000
521.265930	146.660000
521.359680	147.140000
521.453308	147.080000
521.546997	146.620000
521.640625	146.920000
521.734314	146.120000
521.827942	145.620000
521.921692	145.720000
522.015320	145.700000
522.109009	145.160000
522.202698	145.320000
522.296326	145.600000
522.390015	145.800000
522.483704	146.020000
522.577393	146.480000
522.671021	146.220000
522.764709	145.680000
522.858337	145.760000
522.952026	145.760000
523.045654	146.180000
523.139404	146.860000
523.233032	146.960000
523.326721	146.680000
523.420349	146.760000
523.514038	146.180000
523.607666	146.340000
523.701355	146.300000
523.795044	146.500000
523.888733	146.460000
523.982361	146.520000
524.076050	145.680000
524.169678	146.180000
524.263367	145.500000
524.356995	144.900000
524.450684	144.980000
524.544373	144.960000
524.638062	144.640000
524.731750	144.960000
524.825378	145.240000
524.919067	144.780000
525.012695	144.860000
525.106384	144.620000
525.200012	144.860000
525.293701	144.660000
525.387329	145.280000
525.481018	145.500000
525.574646	146.060000
525.668396	145.960000
525.762024	146.340000
525.855713	146.460000
525.949341	146.000000
526.043030	145.900000
526.136658	145.980000
526.230347	145.940000
526.323975	145.560000
526.417664	145.380000
526.511292	145.360000
526.604980	145.700000
526.698608	145.620000
526.792297	145.940000
526.885925	146.540000
526.979614	146.380000
527.073303	146.000000
527.166931	145.740000
527.260620	145.660000
527.354309	145.880000
527.447998	145.780000
527.541626	145.260000
527.635315	145.480000
527.728943	146.160000
527.822632	146.120000
527.916260	146.400000
528.009949	146.800000
528.103577	146.580000
528.197266	145.400000
528.290894	145.600000
528.384583	145.300000
528.478210	145.380000
528.571899	145.800000
528.665527	146.360000
528.759216	146.180000
528.852844	146.700000
528.946533	146.540000
529.040161	146.380000
529.133850	145.860000
529.227478	145.860000
529.321167	146.120000
529.414856	146.380000
529.508484	146.740000
529.602173	146.640000
529.695801	146.520000
529.789490	146.140000
529.883057	146.060000
529.976746	146.140000
530.070374	146.960000
530.164062	147.020000
530.257690	147.180000
530.351379	147.240000
530.445007	147.060000
530.538696	146.460000
530.632324	146.440000
530.726013	146.280000
530.819641	146.380000
530.913330	146.420000
531.006958	146.600000
531.100647	146.660000
531.194275	146.460000
531.287964	146.160000
531.381592	145.720000
531.475220	145.920000
531.568848	145.700000
531.662537	145.720000
531.756226	146.220000
531.849854	146.280000
531.943542	146.280000
532.037170	145.780000
532.130859	146.240000
532.224487	145.720000
532.318176	145.420000
532.411804	145.760000
532.505432	146.480000
532.599060	146.020000
532.692749	146.160000
532.786377	146.980000
532.880066	146.160000
532.973694	145.620000
533.067383	145.360000
533.161011	145.380000
533.254639	144.900000
533.348267	144.920000
533.441956	145.400000
533.535583	145.380000
533.629272	145.540000
533.722900	145.240000
533.816589	145.520000
533.910156	145.720000
534.003845	145.700000
534.097534	145.900000
534.191162	146.640000
534.284851	146.740000
534.378479	146.340000
534.472107	146.560000
534.565735	146.080000
534.659424	146.140000
534.753052	146.200000
534.846741	146.060000
534.940369	146.580000
535.033997	146.680000
535.127625	146.600000
535.221313	147.080000
535.314941	147.260000
535.408630	146.360000
535.502197	146.620000
535.595886	146.060000
535.689514	145.260000
535.783203	145.620000
535.876831	146.140000
535.970459	145.860000
536.064087	145.700000
536.157776	145.620000
536.251404	145.280000
536.345093	145.140000
536.438721	145.160000
536.532349	145.620000
536.626038	145.780000
536.719666	146.060000
536.813293	145.800000
536.906921	145.820000
537.000610	145.960000
537.094238	146.060000
537.187866	145.820000
537.281494	145.920000
537.375183	145.720000
537.468811	145.580000
537.562439	145.480000
537.656067	145.320000
537.749756	145.400000
537.843384	146.020000
537.937012	146.160000
538.030640	145.860000
538.124329	146.020000
538.217896	146.080000
538.311584	145.940000
538.405212	145.640000
538.498901	146.180000
538.592468	146.840000
538.686157	146.680000
538.779785	146.100000
538.873413	145.980000
538.967102	145.480000
539.060730	144.600000
539.154358	145.100000
539.247986	145.700000
539.341675	146.000000
539.435242	146.020000
539.528931	146.200000
539.622559	145.280000
539.716187	145.660000
539.809814	145.540000
539.903503	145.800000
539.997070	145.540000
540.090759	146.180000
540.184387	145.660000
540.278015	145.980000
540.371643	146.380000
540.465332	146.840000
540.558899	146.820000
540.652588	146.740000
540.746216	146.540000
540.839844	146.580000
540.933472	146.540000
541.027100	146.280000
541.120728	146.380000
541.214417	146.540000
541.308044	146.520000
541.401672	146.200000
541.495300	146.160000
541.588928	145.860000
541.682617	145.380000
541.776184	144.860000
541.869873	145.260000
541.963440	145.540000
542.057129	145.740000
542.150757	146.320000
542.244385	146.340000
542.338013	145.820000
542.431641	145.600000
542.525269	145.700000
542.618958	145.680000
542.712524	146.040000
542.806213	146.080000
542.899780	146.180000
542.993469	145.800000
543.087036	145.400000
543.180725	144.740000
543.274292	145.220000
543.367981	145.640000
543.461548	146.060000
543.555237	146.180000
543.648926	147.080000
543.742493	147.540000
543.836182	147.400000
543.929749	147.060000
544.023437	147.000000
544.117004	146.880000
544.210693	146.540000
544.304260	146.440000
544.397949	146.440000
544.491516	146.700000
544.585205	146.200000
544.678772	145.740000
544.772461	146.080000
544.866028	146.140000
544.959717	146.340000
545.053284	146.100000
545.146973	146.420000
545.240540	146.360000
545.334229	146.980000
545.427795	146.920000
545.521423	147.540000
545.615051	147.640000
545.708679	148.040000
545.802307	147.740000
545.895935	147.720000
545.989624	148.240000
546.083191	148.160000
546.176880	147.900000
546.270447	147.340000
546.364136	147.920000
546.457703	147.180000
546.551331	146.960000
546.644958	146.940000
546.738586	147.440000
546.832214	146.660000
546.925842	146.560000
547.019409	146.940000
547.113098	146.300000
547.206665	145.880000
547.300354	145.900000
547.393921	146.320000
547.487549	146.180000
547.581177	146.380000
547.674805	146.460000
547.768433	145.660000
547.862061	145.340000
547.955627	144.780000
548.049316	145.040000
548.142883	145.180000
548.236572	145.840000
548.330139	145.840000
548.423767	146.040000
548.517456	145.760000
548.611023	146.220000
548.704651	145.920000
548.798279	145.960000
548.891907	146.540000
548.985474	146.720000
549.079163	146.740000
549.172729	146.700000
549.266357	146.100000
549.359985	145.680000
549.453613	145.040000
549.547180	144.560000
549.640869	144.980000
549.734436	145.220000
549.828064	145.620000
549.921631	145.820000
550.015320	145.380000
550.108887	145.600000
550.202515	145.820000
550.296143	145.040000
550.389771	145.240000
550.483337	145.600000
550.576965	145.420000
550.670593	145.540000
550.764221	145.880000
550.857849	145.860000
550.951477	145.360000
551.045105	145.080000
551.138672	145.300000
551.232300	144.860000
551.325928	144.860000
551.419556	145.580000
551.513123	145.700000
551.606750	145.240000
551.700378	145.580000
551.794006	145.360000
551.887573	145.200000
551.981201	145.440000
552.074768	145.580000
552.168457	145.440000
552.262024	146.700000
552.355652	146.640000
552.449219	146.920000
552.542847	147.000000
552.636475	146.960000
552.730103	145.380000
552.823669	145.300000
552.917297	144.760000
553.010864	144.680000
553.104553	144.880000
553.198181	145.120000
553.291748	145.380000
553.385376	145.560000
553.478943	145.440000
553.572571	145.380000
553.666199	145.680000
553.759827	145.240000
553.853394	144.760000
553.947021	145.040000
554.040588	144.980000
554.134216	145.200000
554.227783	145.860000
554.321411	146.580000
554.415039	145.820000
554.508667	145.720000
554.602234	145.600000
554.695862	144.960000
554.789429	144.940000
554.883057	145.400000
554.976624	145.700000
555.070251	145.220000
555.163818	145.280000
555.257507	144.780000
555.351074	145.200000
555.444702	146.140000
555.538330	146.340000
555.631897	146.820000
555.725525	147.120000
555.819092	146.680000
555.912720	145.420000
556.006287	146.160000
556.099915	145.800000
556.193481	145.600000
556.287109	145.800000
556.380676	145.840000
556.474304	145.560000
556.567871	145.720000
556.661499	145.400000
556.755066	145.300000
556.848694	145.600000
556.942261	145.360000
557.035889	145.560000
557.129517	145.940000
557.223145	146.200000
557.316711	146.100000
557.410339	146.200000
557.503906	145.920000
557.597473	146.200000
557.691040	146.120000
557.784668	146.160000
557.878296	146.160000
557.971863	146.360000
558.065491	146.240000
558.159058	145.880000
558.252686	146.680000
558.346252	147.280000
558.439880	146.720000
558.533447	146.200000
558.627075	145.920000
558.720642	145.000000
558.814270	144.560000
558.907837	144.700000
559.001465	144.500000
559.095032	145.240000
559.188660	145.700000
559.282227	145.060000
559.375854	145.960000
559.469360	145.940000
559.562988	146.180000
559.656555	146.040000
559.750183	146.880000
559.843750	146.380000
559.937378	146.820000
560.030945	146.260000
560.124573	0.000000
560.218140	0.000000
560.311707	0.000000
560.405334	0.000000
560.498901	0.000000
560.592529	0.000000
560.686096	0.000000
560.779724	0.000000
560.873291	0.000000
560.966858	0.000000
561.060425	0.000000
561.154053	0.000000
561.247620	0.000000
561.341248	0.000000
561.434814	0.000000
561.528381	0.000000
561.621948	0.000000
561.715576	0.000000
561.809143	0.000000
561.902771	0.000000
561.996277	0.000000
562.089905	0.000000
562.183472	0.000000
562.277100	0.000000
