Model Number: SPM-002-B   
Serial Number: 70087108
Firmware Version: 004.15.4
Exposure Time: 100000.000000us
Data Taken on: 11-12-2020 19:29:04.149
Wavelength	Amplitude
221.570786	0.000000
221.663406	0.000000
221.756027	0.000000
221.848648	0.000000
221.941269	0.000000
222.033905	0.000000
222.126526	0.000000
222.219162	0.000000
222.311798	0.000000
222.404419	0.000000
222.497055	0.000000
222.589676	0.000000
222.682312	0.000000
222.774933	0.000000
222.867569	0.000000
222.960205	0.000000
223.052841	0.000000
223.145462	0.000000
223.238098	0.000000
223.330734	0.000000
223.423386	0.000000
223.516022	0.000000
223.608658	0.000000
223.701309	0.000000
223.793945	0.000000
223.886581	0.000000
223.979218	0.000000
224.071869	0.000000
224.164505	0.000000
224.257156	0.000000
224.349792	0.000000
224.442444	0.000000
224.535095	0.000000
224.627747	0.000000
224.720398	0.000000
224.813034	0.000000
224.905685	0.000000
224.998337	145.400000
225.090988	145.440000
225.183640	145.200000
225.276291	144.880000
225.368942	145.520000
225.461594	146.040000
225.554245	146.380000
225.646912	146.380000
225.739578	146.660000
225.832230	146.820000
225.924896	146.060000
226.017548	146.000000
226.110199	146.520000
226.202866	145.940000
226.295532	145.380000
226.388184	145.300000
226.480850	144.980000
226.573517	144.200000
226.666168	144.600000
226.758835	145.240000
226.851501	146.020000
226.944183	146.280000
227.036850	146.120000
227.129517	146.380000
227.222183	146.120000
227.314850	145.800000
227.407516	146.020000
227.500198	147.240000
227.592865	146.660000
227.685532	146.440000
227.778214	146.300000
227.870880	146.160000
227.963562	145.860000
228.056229	146.420000
228.148926	146.360000
228.241592	147.100000
228.334274	146.820000
228.426956	146.600000
228.519638	146.740000
228.612305	146.440000
228.704987	146.300000
228.797668	146.240000
228.890350	146.180000
228.983032	145.220000
229.075714	146.100000
229.168396	145.440000
229.261108	145.320000
229.353790	145.540000
229.446472	146.180000
229.539169	146.000000
229.631851	145.800000
229.724533	146.220000
229.817230	146.160000
229.909912	146.780000
230.002609	146.340000
230.095306	146.620000
230.187988	146.680000
230.280685	146.600000
230.373383	145.360000
230.466095	145.300000
230.558792	145.900000
230.651474	145.940000
230.744171	145.640000
230.836868	145.920000
230.929581	146.300000
231.022278	145.860000
231.114975	146.000000
231.207672	146.160000
231.300369	146.480000
231.393082	146.700000
231.485779	146.660000
231.578506	146.240000
231.671204	146.040000
231.763916	146.160000
231.856613	145.640000
231.949326	145.840000
232.042023	145.780000
232.134735	146.000000
232.227448	145.700000
232.320160	145.920000
232.412872	145.520000
232.505585	146.140000
232.598297	146.720000
232.691010	146.520000
232.783722	146.340000
232.876450	147.100000
232.969162	146.560000
233.061874	145.860000
233.154587	145.880000
233.247314	146.440000
233.340027	145.800000
233.432739	146.080000
233.525467	146.200000
233.618179	146.400000
233.710907	145.860000
233.803635	146.120000
233.896347	146.040000
233.989090	146.480000
234.081818	146.400000
234.174545	146.520000
234.267258	146.020000
234.359985	146.020000
234.452713	145.720000
234.545441	145.700000
234.638168	145.740000
234.730896	146.380000
234.823639	146.280000
234.916367	146.640000
235.009094	146.620000
235.101822	146.620000
235.194580	146.640000
235.287308	146.560000
235.380051	145.800000
235.472778	146.140000
235.565521	146.280000
235.658249	145.480000
235.750992	145.680000
235.843719	145.980000
235.936462	146.020000
236.029205	145.620000
236.121948	145.920000
236.214691	146.280000
236.307449	146.900000
236.400192	146.360000
236.492935	146.500000
236.585678	146.840000
236.678421	146.740000
236.771164	146.400000
236.863907	147.300000
236.956665	147.380000
237.049408	148.580000
237.142151	148.140000
237.234909	148.480000
237.327652	148.080000
237.420410	147.780000
237.513153	147.060000
237.605927	146.820000
237.698669	146.540000
237.791428	146.180000
237.884186	146.680000
237.976944	145.880000
238.069702	146.580000
238.162445	145.860000
238.255203	146.000000
238.347961	146.380000
238.440720	146.500000
238.533478	146.040000
238.626266	146.240000
238.719025	146.640000
238.811783	146.000000
238.904541	145.800000
238.997314	145.920000
239.090073	145.640000
239.182831	145.680000
239.275604	146.420000
239.368362	146.420000
239.461136	146.360000
239.553909	146.320000
239.646667	145.780000
239.739441	145.180000
239.832214	145.700000
239.925003	145.880000
240.017761	146.820000
240.110535	147.500000
240.203308	147.180000
240.296082	147.080000
240.388855	146.900000
240.481628	146.840000
240.574417	146.740000
240.667191	146.980000
240.759964	146.600000
240.852737	146.460000
240.945526	145.780000
241.038315	145.420000
241.131088	145.580000
241.223877	145.840000
241.316650	145.680000
241.409439	146.220000
241.502228	145.760000
241.595001	146.020000
241.687790	146.080000
241.780579	146.200000
241.873367	146.020000
241.966141	146.520000
242.058929	145.860000
242.151718	145.760000
242.244507	146.180000
242.337311	145.520000
242.430099	146.080000
242.522903	146.580000
242.615692	146.260000
242.708481	146.160000
242.801270	147.080000
242.894073	146.720000
242.986862	147.040000
243.079651	147.720000
243.172455	147.540000
243.265244	147.380000
243.358063	146.940000
243.450867	146.640000
243.543655	146.260000
243.636459	146.340000
243.729263	146.580000
243.822067	147.100000
243.914856	147.420000
244.007660	147.360000
244.100464	147.100000
244.193268	146.560000
244.286072	146.260000
244.378876	145.560000
244.471680	145.620000
244.564499	145.900000
244.657318	146.720000
244.750122	146.820000
244.842926	146.500000
244.935745	146.780000
245.028549	146.480000
245.121368	145.980000
245.214172	145.800000
245.306992	146.340000
245.399796	145.880000
245.492615	146.240000
245.585434	146.100000
245.678253	146.240000
245.771072	146.180000
245.863892	146.600000
245.956711	146.540000
246.049530	146.300000
246.142349	146.000000
246.235168	145.920000
246.327988	146.160000
246.420807	146.200000
246.513626	146.060000
246.606445	145.980000
246.699280	145.940000
246.792099	145.680000
246.884918	145.280000
246.977753	145.180000
247.070587	145.620000
247.163422	145.880000
247.256241	145.720000
247.349075	146.240000
247.441895	146.560000
247.534729	146.380000
247.627563	146.160000
247.720383	146.580000
247.813217	146.420000
247.906052	146.320000
247.998886	146.300000
248.091736	146.260000
248.184570	145.900000
248.277405	145.940000
248.370239	146.660000
248.463074	147.760000
248.555908	147.880000
248.648743	147.800000
248.741592	147.840000
248.834427	147.320000
248.927261	146.020000
249.020111	146.440000
249.112946	147.120000
249.205795	146.720000
249.298630	146.800000
249.391495	147.160000
249.484344	146.880000
249.577179	146.700000
249.670029	147.020000
249.762878	147.320000
249.855728	147.180000
249.948563	147.040000
250.041412	146.380000
250.134262	146.500000
250.227112	146.480000
250.319962	146.620000
250.412827	146.760000
250.505692	146.680000
250.598541	146.720000
250.691391	146.320000
250.784241	146.140000
250.877106	146.000000
250.969955	145.760000
251.062805	146.160000
251.155670	146.880000
251.248520	146.740000
251.341385	146.900000
251.434235	147.020000
251.527100	146.400000
251.619965	145.600000
251.712814	146.700000
251.805695	146.580000
251.898560	147.080000
251.991425	147.480000
252.084290	147.560000
252.177155	146.440000
252.270020	146.420000
252.362885	146.180000
252.455750	145.980000
252.548615	146.080000
252.641479	146.120000
252.734360	146.020000
252.827240	146.060000
252.920105	146.120000
253.012970	145.640000
253.105850	145.740000
253.198715	145.620000
253.291595	145.500000
253.384460	144.920000
253.477341	145.260000
253.570221	145.340000
253.663086	145.180000
253.755966	145.600000
253.848846	145.920000
253.941727	146.140000
254.034592	145.860000
254.127472	145.440000
254.220367	145.440000
254.313248	145.640000
254.406128	145.120000
254.499008	145.700000
254.591904	146.880000
254.684784	147.340000
254.777664	147.160000
254.870544	147.220000
254.963440	146.780000
255.056335	146.520000
255.149216	145.740000
255.242111	146.360000
255.334991	147.000000
255.427887	147.180000
255.520767	147.200000
255.613663	147.700000
255.706558	146.720000
255.799438	146.220000
255.892334	146.040000
255.985229	146.100000
256.078125	145.740000
256.171021	146.100000
256.263916	146.480000
256.356812	146.700000
256.449707	146.700000
256.542603	146.540000
256.635498	147.040000
256.728394	146.780000
256.821289	146.880000
256.914215	146.980000
257.007080	147.240000
257.100006	147.200000
257.192932	147.500000
257.285828	147.220000
257.378723	146.860000
257.471619	146.980000
257.564545	146.140000
257.657440	146.400000
257.750336	147.160000
257.843262	147.060000
257.936157	147.700000
258.029053	148.280000
258.121979	148.140000
258.214874	147.480000
258.307800	147.520000
258.400696	146.540000
258.493622	146.500000
258.586517	145.600000
258.679443	145.860000
258.772339	145.360000
258.865265	145.300000
258.958160	144.960000
259.051086	145.660000
259.144012	145.500000
259.236938	146.580000
259.329834	146.860000
259.422791	146.840000
259.515717	146.540000
259.608612	146.300000
259.701538	146.200000
259.794464	145.940000
259.887390	145.800000
259.980316	145.680000
260.073212	145.740000
260.166138	144.860000
260.259064	145.380000
260.351990	146.120000
260.444916	146.140000
260.537842	146.840000
260.630768	147.340000
260.723694	146.940000
260.816620	146.560000
260.909546	147.060000
261.002472	146.080000
261.095398	145.740000
261.188354	145.860000
261.281281	145.560000
261.374207	145.260000
261.467133	146.240000
261.560089	146.760000
261.653015	146.380000
261.745972	147.140000
261.838867	147.600000
261.931824	147.400000
262.024780	146.800000
262.117706	147.300000
262.210663	147.080000
262.303589	146.600000
262.396515	146.660000
262.489471	147.660000
262.582397	147.200000
262.675354	146.580000
262.768280	146.480000
262.861237	146.180000
262.954163	145.740000
263.047119	146.120000
263.140045	146.260000
263.233002	146.500000
263.325958	146.360000
263.418884	145.720000
263.511841	145.540000
263.604797	145.720000
263.697723	145.660000
263.790680	145.580000
263.883636	146.520000
263.976593	146.340000
264.069550	146.500000
264.162476	146.160000
264.255463	146.300000
264.348419	145.920000
264.441376	146.380000
264.534332	145.920000
264.627289	146.160000
264.720245	146.720000
264.813202	146.140000
264.906158	146.140000
264.999115	146.500000
265.092072	146.720000
265.185028	146.760000
265.277985	147.320000
265.370941	146.920000
265.463898	146.680000
265.556854	146.320000
265.649811	145.560000
265.742798	145.140000
265.835754	145.380000
265.928711	146.000000
266.021667	146.060000
266.114655	146.200000
266.207611	146.900000
266.300568	146.160000
266.393585	145.680000
266.486511	146.000000
266.579498	145.380000
266.672485	145.100000
266.765442	145.260000
266.858429	145.960000
266.951385	145.360000
267.044342	145.860000
267.137329	145.700000
267.230316	146.220000
267.323273	145.420000
267.416260	146.260000
267.509216	146.280000
267.602203	146.540000
267.695160	147.100000
267.788147	147.280000
267.881134	146.380000
267.974091	146.340000
268.067078	145.780000
268.160065	144.780000
268.253052	144.240000
268.346008	144.820000
268.438995	144.740000
268.531982	145.040000
268.624969	145.300000
268.717987	145.940000
268.810944	145.720000
268.903961	145.880000
268.996948	145.620000
269.089905	146.220000
269.182892	146.240000
269.275879	146.760000
269.368866	146.440000
269.461853	146.940000
269.554871	146.640000
269.647858	146.520000
269.740845	146.420000
269.833832	146.940000
269.926819	146.380000
270.019806	146.460000
270.112793	146.340000
270.205811	146.460000
270.298798	146.020000
270.391785	146.960000
270.484772	146.320000
270.577789	146.440000
270.670776	145.740000
270.763763	145.920000
270.856750	145.560000
270.949768	145.820000
271.042786	145.920000
271.135773	146.300000
271.228790	146.680000
271.321808	146.360000
271.414795	145.960000
271.507782	145.780000
271.600800	145.660000
271.693817	145.520000
271.786804	146.140000
271.879822	146.660000
271.972809	146.660000
272.065826	146.840000
272.158844	146.480000
272.251831	146.880000
272.344849	146.940000
272.437866	146.520000
272.530853	146.800000
272.623871	147.180000
272.716888	146.000000
272.809906	146.040000
272.902893	146.500000
272.995911	145.620000
273.088928	145.540000
273.181946	145.760000
273.274963	145.600000
273.367981	145.500000
273.460999	146.020000
273.554047	146.440000
273.647003	147.040000
273.740051	146.860000
273.833069	147.280000
273.926086	147.420000
274.019135	146.980000
274.112152	146.500000
274.205170	146.760000
274.298187	146.540000
274.391205	145.900000
274.484222	145.800000
274.577240	146.000000
274.670258	145.960000
274.763306	145.660000
274.856323	146.320000
274.949341	146.360000
275.042358	146.520000
275.135406	146.600000
275.228424	146.740000
275.321442	146.580000
275.414490	146.280000
275.507507	146.540000
275.600525	146.780000
275.693573	146.540000
275.786591	146.100000
275.879669	146.600000
275.972656	145.900000
276.065735	145.440000
276.158752	145.980000
276.251801	146.800000
276.344818	146.540000
276.437866	146.700000
276.530884	146.660000
276.623932	146.500000
276.716980	146.320000
276.809998	146.400000
276.903046	146.600000
276.996094	147.420000
277.089111	147.880000
277.182159	148.440000
277.275208	148.220000
277.368256	147.860000
277.461304	147.520000
277.554321	146.580000
277.647369	146.000000
277.740417	146.000000
277.833466	146.140000
277.926514	145.640000
278.019562	146.260000
278.112610	145.800000
278.205688	146.240000
278.298706	146.220000
278.391785	146.380000
278.484833	145.900000
278.577881	145.880000
278.670929	145.900000
278.763977	146.060000
278.857025	146.300000
278.950073	146.280000
279.043121	146.120000
279.136169	145.900000
279.229248	145.700000
279.322296	145.660000
279.415344	145.820000
279.508392	146.420000
279.601440	146.340000
279.694519	146.020000
279.787567	145.700000
279.880615	145.800000
279.973694	145.120000
280.066742	145.000000
280.159790	145.260000
280.252869	145.160000
280.345917	144.980000
280.438995	145.140000
280.532074	145.260000
280.625122	145.700000
280.718201	146.600000
280.811279	146.840000
280.904327	146.920000
280.997406	147.260000
281.090454	146.960000
281.183533	146.180000
281.276581	145.960000
281.369659	145.560000
281.462738	145.480000
281.555786	145.720000
281.648865	146.040000
281.741943	146.100000
281.835022	147.140000
281.928070	146.800000
282.021149	146.500000
282.114227	146.080000
282.207306	146.160000
282.300385	146.060000
282.393433	146.180000
282.486511	146.160000
282.579590	146.860000
282.672668	147.160000
282.765747	146.460000
282.858856	146.180000
282.951904	146.480000
283.045013	146.420000
283.138062	146.460000
283.231171	147.060000
283.324249	147.660000
283.417328	147.720000
283.510406	147.280000
283.603485	146.860000
283.696564	146.540000
283.789642	146.480000
283.882751	145.980000
283.975830	146.700000
284.068909	146.580000
284.161987	147.340000
284.255066	146.800000
284.348175	147.120000
284.441254	146.580000
284.534332	147.020000
284.627441	146.160000
284.720520	146.440000
284.813599	146.440000
284.906708	146.460000
284.999786	145.800000
285.092896	145.700000
285.185974	146.400000
285.279053	145.840000
285.372192	145.640000
285.465240	146.740000
285.558380	146.660000
285.651459	145.920000
285.744568	146.780000
285.837677	146.560000
285.930756	146.180000
286.023865	146.820000
286.116943	146.780000
286.210052	146.700000
286.303162	146.960000
286.396240	146.780000
286.489349	146.200000
286.582458	146.520000
286.675568	146.240000
286.768646	146.440000
286.861755	146.700000
286.954865	147.540000
287.047974	146.900000
287.141083	146.700000
287.234161	146.220000
287.327271	145.820000
287.420380	145.920000
287.513519	146.000000
287.606598	146.260000
287.699738	146.540000
287.792816	146.520000
287.885956	146.340000
287.979034	146.500000
288.072174	146.400000
288.165283	146.200000
288.258392	146.560000
288.351501	145.860000
288.444611	146.100000
288.537720	146.460000
288.630859	146.640000
288.723969	146.580000
288.817078	147.080000
288.910187	147.080000
289.003296	146.440000
289.096436	146.160000
289.189545	145.880000
289.282654	145.540000
289.375763	145.680000
289.468903	146.100000
289.562012	146.460000
289.655121	146.500000
289.748260	146.480000
289.841400	146.600000
289.934509	146.540000
290.027649	146.720000
290.120728	146.600000
290.213898	146.720000
290.306976	146.400000
290.400146	146.480000
290.493256	145.960000
290.586395	146.040000
290.679535	146.320000
290.772644	146.080000
290.865784	145.200000
290.958893	145.380000
291.052032	145.060000
291.145172	144.960000
291.238281	145.060000
291.331421	145.560000
291.424561	145.740000
291.517670	145.600000
291.610809	145.860000
291.703949	145.680000
291.797089	145.780000
291.890228	145.700000
291.983337	145.900000
292.076477	145.480000
292.169617	145.560000
292.262756	145.560000
292.355927	145.320000
292.449036	145.400000
292.542206	145.500000
292.635315	145.800000
292.728485	145.800000
292.821625	145.680000
292.914764	146.640000
293.007904	146.360000
293.101044	146.280000
293.194183	146.040000
293.287323	146.160000
293.380463	145.440000
293.473602	145.220000
293.566742	145.560000
293.659882	146.240000
293.753021	146.560000
293.846191	146.500000
293.939331	146.300000
294.032471	145.860000
294.125610	145.580000
294.218781	145.760000
294.311920	146.240000
294.405060	146.960000
294.498230	146.940000
294.591370	146.940000
294.684540	146.620000
294.777679	145.920000
294.870850	146.220000
294.963959	146.180000
295.057159	146.020000
295.150299	145.820000
295.243469	146.080000
295.336609	145.180000
295.429779	145.260000
295.522919	145.660000
295.616089	145.900000
295.709229	146.460000
295.802399	146.960000
295.895569	146.500000
295.988708	146.520000
296.081879	146.800000
296.175018	146.040000
296.268188	145.840000
296.361359	146.600000
296.454529	146.300000
296.547668	145.840000
296.640839	146.340000
296.734009	146.180000
296.827179	146.160000
296.920319	146.460000
297.013519	146.460000
297.106659	146.160000
297.199860	146.400000
297.292999	146.200000
297.386200	145.980000
297.479309	146.140000
297.572510	146.160000
297.665680	146.000000
297.758850	146.140000
297.852020	145.980000
297.945190	145.600000
298.038361	145.100000
298.131531	145.960000
298.224701	145.620000
298.317871	145.580000
298.411072	145.400000
298.504242	145.840000
298.597412	145.320000
298.690582	145.600000
298.783752	145.380000
298.876923	145.980000
298.970093	146.040000
299.063293	146.080000
299.156464	146.560000
299.249634	146.980000
299.342834	147.080000
299.436005	147.420000
299.529205	147.320000
299.622345	146.980000
299.715576	146.500000
299.808716	146.140000
299.901917	145.840000
299.995117	146.220000
300.088287	146.280000
300.181488	146.320000
300.274658	146.300000
300.367828	146.260000
300.461029	145.940000
300.554199	145.960000
300.647400	146.160000
300.740601	146.860000
300.833771	146.800000
300.926971	147.000000
301.020142	146.840000
301.113342	147.000000
301.206512	146.560000
301.299713	146.700000
301.392914	146.740000
301.486084	146.860000
301.579285	146.380000
301.672516	146.980000
301.765686	146.620000
301.858887	146.020000
301.952057	145.940000
302.045288	146.200000
302.138458	145.620000
302.231659	145.520000
302.324860	145.680000
302.418060	145.520000
302.511261	145.660000
302.604462	145.820000
302.697662	145.900000
302.790863	146.120000
302.884064	145.500000
302.977264	145.320000
303.070465	145.720000
303.163666	146.380000
303.256866	146.420000
303.350067	147.120000
303.443268	146.880000
303.536469	146.780000
303.629669	146.380000
303.722870	146.400000
303.816071	145.800000
303.909271	146.180000
304.002472	145.100000
304.095673	144.800000
304.188934	144.180000
304.282104	145.340000
304.375336	145.140000
304.468506	145.540000
304.561768	145.260000
304.654968	145.820000
304.748169	145.140000
304.841370	145.200000
304.934601	145.420000
305.027802	145.760000
305.121002	145.540000
305.214233	145.760000
305.307434	145.940000
305.400665	146.540000
305.493866	146.380000
305.587097	146.560000
305.680298	146.140000
305.773499	146.380000
305.866730	146.260000
305.959930	146.840000
306.053162	147.160000
306.146393	147.140000
306.239594	146.440000
306.332825	146.160000
306.426025	146.240000
306.519287	145.600000
306.612488	145.880000
306.705719	146.000000
306.798920	145.980000
306.892181	145.460000
306.985352	145.440000
307.078613	144.720000
307.171844	145.180000
307.265045	144.740000
307.358276	144.300000
307.451508	144.640000
307.544739	145.400000
307.637970	145.220000
307.731201	145.080000
307.824402	146.100000
307.917633	146.340000
308.010864	146.760000
308.104095	147.180000
308.197327	147.740000
308.290558	147.640000
308.383789	147.080000
308.477020	146.300000
308.570251	145.840000
308.663483	145.500000
308.756714	145.040000
308.849976	145.420000
308.943176	146.240000
309.036438	145.720000
309.129639	145.560000
309.222900	145.860000
309.316101	145.560000
309.409393	144.820000
309.502625	145.080000
309.595856	145.460000
309.689087	145.240000
309.782318	145.160000
309.875580	145.260000
309.968811	145.440000
310.062042	145.200000
310.155273	145.320000
310.248535	145.920000
310.341766	145.760000
310.434998	145.620000
310.528259	145.640000
310.621490	146.120000
310.714722	145.220000
310.807983	145.400000
310.901215	145.320000
310.994476	145.280000
311.087708	144.700000
311.181000	145.320000
311.274200	145.160000
311.367462	145.380000
311.460693	145.360000
311.553986	145.980000
311.647186	145.920000
311.740479	146.640000
311.833710	146.360000
311.926971	146.480000
312.020203	145.780000
312.113464	145.840000
312.206726	144.900000
312.299957	145.280000
312.393219	145.800000
312.486481	145.980000
312.579712	145.840000
312.672974	145.980000
312.766235	145.860000
312.859497	145.500000
312.952759	145.380000
313.045990	145.840000
313.139252	145.500000
313.232513	145.600000
313.325775	145.780000
313.419037	145.560000
313.512299	144.880000
313.605530	145.960000
313.698822	146.200000
313.792053	145.820000
313.885345	145.680000
313.978577	146.360000
314.071869	145.660000
314.165131	145.500000
314.258392	146.160000
314.351654	146.360000
314.444916	145.240000
314.538177	145.900000
314.631439	145.920000
314.724701	145.400000
314.817993	145.560000
314.911255	145.960000
315.004517	145.080000
315.097778	145.340000
315.191040	145.740000
315.284302	146.060000
315.377594	146.120000
315.470856	146.460000
315.564117	145.700000
315.657379	144.880000
315.750671	144.260000
315.843933	144.860000
315.937195	144.860000
316.030518	144.880000
316.123749	145.160000
316.217041	146.180000
316.310303	146.060000
316.403595	146.080000
316.496857	146.540000
316.590149	146.800000
316.683411	146.080000
316.776703	145.680000
316.869965	145.820000
316.963257	145.540000
317.056519	144.880000
317.149811	144.900000
317.243073	144.960000
317.336365	145.100000
317.429626	145.480000
317.522919	146.060000
317.616180	146.240000
317.709473	146.060000
317.802765	145.800000
317.896027	145.460000
317.989319	145.700000
318.082611	145.560000
318.175873	145.840000
318.269165	145.740000
318.362488	145.800000
318.455750	145.500000
318.549042	145.820000
318.642303	145.940000
318.735626	145.980000
318.828888	146.140000
318.922211	145.920000
319.015472	146.220000
319.108765	145.760000
319.202057	145.460000
319.295349	145.600000
319.388641	145.740000
319.481934	145.540000
319.575226	145.700000
319.668518	146.180000
319.761810	145.800000
319.855103	145.980000
319.948395	145.760000
320.041687	145.740000
320.134979	145.560000
320.228271	145.720000
320.321564	145.440000
320.414856	145.680000
320.508148	145.280000
320.601440	145.320000
320.694763	145.220000
320.788025	145.920000
320.881348	145.340000
320.974640	145.680000
321.067963	145.260000
321.161224	145.140000
321.254547	144.560000
321.347839	145.680000
321.441162	145.500000
321.534454	145.800000
321.627747	145.680000
321.721069	146.200000
321.814362	145.800000
321.907654	145.740000
322.000946	145.760000
322.094269	146.740000
322.187561	146.160000
322.280884	146.160000
322.374176	146.400000
322.467468	146.760000
322.560791	146.300000
322.654083	146.720000
322.747406	146.520000
322.840698	146.780000
322.934021	146.980000
323.027344	147.040000
323.120636	146.700000
323.213959	146.680000
323.307251	146.120000
323.400574	145.560000
323.493866	144.920000
323.587219	145.080000
323.680511	145.420000
323.773834	146.060000
323.867157	146.260000
323.960449	146.680000
324.053772	146.660000
324.147095	146.380000
324.240387	146.700000
324.333710	146.740000
324.427032	146.760000
324.520355	146.780000
324.613647	146.540000
324.706970	146.040000
324.800293	145.900000
324.893616	146.420000
324.986938	146.460000
325.080231	146.360000
325.173553	146.580000
325.266876	147.000000
325.360199	146.600000
325.453522	146.480000
325.546875	146.260000
325.640167	146.220000
325.733521	146.120000
325.826813	146.320000
325.920166	145.980000
326.013489	145.940000
326.106812	145.180000
326.200134	145.060000
326.293457	144.500000
326.386780	144.900000
326.480103	145.020000
326.573425	145.160000
326.666748	144.860000
326.760071	145.320000
326.853424	145.300000
326.946747	145.420000
327.040070	146.360000
327.133392	146.120000
327.226715	145.620000
327.320068	145.180000
327.413391	145.980000
327.506714	144.840000
327.600037	145.320000
327.693390	145.580000
327.786713	145.840000
327.880066	145.080000
327.973358	145.900000
328.066742	146.320000
328.160034	146.540000
328.253418	146.860000
328.346710	146.720000
328.440063	146.520000
328.533417	146.160000
328.626740	146.180000
328.720093	145.640000
328.813416	145.640000
328.906769	145.320000
329.000092	145.440000
329.093445	145.480000
329.186768	145.480000
329.280121	145.900000
329.373444	146.680000
329.466797	146.580000
329.560120	146.340000
329.653473	146.600000
329.746796	146.160000
329.840149	145.640000
329.933502	145.480000
330.026825	145.420000
330.120178	145.300000
330.213562	145.620000
330.306854	145.520000
330.400238	145.340000
330.493561	145.460000
330.586945	146.060000
330.680237	146.120000
330.773621	146.240000
330.866974	146.420000
330.960327	146.460000
331.053680	146.080000
331.147003	146.140000
331.240356	146.380000
331.333710	146.640000
331.427063	146.340000
331.520416	146.120000
331.613770	145.660000
331.707123	145.580000
331.800476	145.400000
331.893829	146.420000
331.987152	146.980000
332.080505	147.020000
332.173859	147.220000
332.267212	146.800000
332.360565	146.220000
332.453918	145.340000
332.547333	145.560000
332.640656	145.380000
332.734039	145.560000
332.827362	145.060000
332.920746	145.680000
333.014069	145.660000
333.107452	145.880000
333.200806	146.340000
333.294159	146.800000
333.387543	146.140000
333.480896	145.660000
333.574249	145.380000
333.667603	144.680000
333.760956	144.760000
333.854340	145.140000
333.947693	145.780000
334.041046	145.980000
334.134430	146.640000
334.227783	145.980000
334.321136	145.920000
334.414520	145.560000
334.507874	145.480000
334.601227	145.320000
334.694611	145.560000
334.787964	145.780000
334.881348	146.200000
334.974701	146.160000
335.068085	145.920000
335.161438	146.220000
335.254822	145.940000
335.348175	145.740000
335.441559	145.360000
335.534943	145.840000
335.628296	145.640000
335.721680	145.760000
335.815033	146.020000
335.908417	146.320000
336.001770	146.320000
336.095154	146.340000
336.188538	146.080000
336.281891	145.320000
336.375275	144.820000
336.468658	144.300000
336.562012	144.220000
336.655396	144.860000
336.748779	145.520000
336.842133	145.820000
336.935516	146.420000
337.028900	146.400000
337.122284	146.260000
337.215637	146.320000
337.309021	146.220000
337.402435	145.500000
337.495789	145.380000
337.589203	145.380000
337.682526	145.080000
337.775940	145.860000
337.869324	146.140000
337.962708	146.000000
338.056091	146.240000
338.149475	146.040000
338.242859	145.440000
338.336243	145.000000
338.429626	145.300000
338.523010	145.120000
338.616394	145.380000
338.709778	145.700000
338.803162	146.440000
338.896545	146.540000
338.989929	145.780000
339.083313	145.580000
339.176697	145.020000
339.270081	144.500000
339.363464	144.620000
339.456848	145.740000
339.550232	145.420000
339.643616	145.860000
339.737030	146.200000
339.830383	145.860000
339.923828	145.360000
340.017181	145.680000
340.110596	145.800000
340.203949	145.820000
340.297363	145.720000
340.390778	145.440000
340.484161	145.280000
340.577545	145.020000
340.670959	145.040000
340.764343	145.160000
340.857727	145.500000
340.951111	145.520000
341.044525	145.580000
341.137909	145.120000
341.231293	145.040000
341.324707	144.560000
341.418091	145.220000
341.511505	145.320000
341.604889	145.760000
341.698303	146.100000
341.791687	146.540000
341.885071	145.940000
341.978485	145.660000
342.071899	146.020000
342.165283	146.040000
342.258698	146.060000
342.352081	146.480000
342.445496	147.040000
342.538879	146.400000
342.632324	146.200000
342.725708	146.140000
342.819122	145.700000
342.912506	145.380000
343.005920	145.780000
343.099335	146.560000
343.192719	146.460000
343.286133	146.640000
343.379547	147.100000
343.472931	146.860000
343.566345	146.000000
343.659760	146.420000
343.753143	146.260000
343.846558	145.400000
343.939972	145.480000
344.033386	146.060000
344.126770	145.800000
344.220184	145.940000
344.313599	146.400000
344.407043	146.280000
344.500427	145.540000
344.593872	145.860000
344.687225	145.620000
344.780670	145.580000
344.874054	145.300000
344.967499	146.060000
345.060913	146.180000
345.154327	146.240000
345.247742	146.000000
345.341156	146.200000
345.434570	145.780000
345.527985	145.300000
345.621399	145.400000
345.714813	145.420000
345.808228	145.400000
345.901642	145.080000
345.995056	144.920000
346.088470	145.100000
346.181885	145.340000
346.275299	145.220000
346.368713	145.480000
346.462128	145.320000
346.555573	144.900000
346.648987	144.920000
346.742401	144.980000
346.835815	145.420000
346.929260	145.420000
347.022644	146.000000
347.116119	146.080000
347.209503	146.360000
347.302948	146.920000
347.396362	147.500000
347.489807	147.380000
347.583221	147.780000
347.676636	147.620000
347.770050	146.280000
347.863495	145.760000
347.956909	145.560000
348.050323	144.780000
348.143768	144.960000
348.237183	144.820000
348.330597	145.560000
348.424042	146.080000
348.517456	146.520000
348.610901	146.640000
348.704315	146.760000
348.797760	146.160000
348.891174	145.240000
348.984619	144.780000
349.078033	145.100000
349.171448	146.040000
349.264923	146.040000
349.358337	146.340000
349.451782	146.620000
349.545197	145.780000
349.638641	144.860000
349.732086	144.360000
349.825500	144.640000
349.918945	144.360000
350.012390	144.700000
350.105804	145.300000
350.199249	145.820000
350.292664	146.220000
350.386108	146.280000
350.479553	146.800000
350.572968	146.820000
350.666412	146.780000
350.759857	146.480000
350.853302	147.020000
350.946716	146.260000
351.040161	146.220000
351.133606	146.080000
351.227081	145.860000
351.320465	146.260000
351.413940	146.600000
351.507355	146.540000
351.600830	147.020000
351.694244	146.520000
351.787720	146.040000
351.881104	145.720000
351.974579	145.580000
352.067993	146.100000
352.161469	146.580000
352.254883	146.060000
352.348358	146.280000
352.441803	146.320000
352.535248	145.660000
352.628693	146.220000
352.722137	146.340000
352.815582	146.700000
352.909027	146.460000
353.002472	146.400000
353.095917	146.040000
353.189362	146.220000
353.282806	145.980000
353.376251	145.900000
353.469696	145.440000
353.563141	145.740000
353.656586	145.660000
353.750061	145.040000
353.843475	145.340000
353.936981	146.000000
354.030396	145.400000
354.123871	145.300000
354.217285	146.220000
354.310760	146.480000
354.404175	146.520000
354.497681	146.560000
354.591095	146.540000
354.684570	145.460000
354.777985	145.040000
354.871490	144.720000
354.964935	145.060000
355.058380	145.120000
355.151855	145.520000
355.245300	145.860000
355.338745	146.180000
355.432220	146.100000
355.525665	145.660000
355.619110	146.000000
355.712585	145.660000
355.806030	145.340000
355.899475	144.700000
355.992950	145.500000
356.086426	145.720000
356.179871	145.980000
356.273346	145.960000
356.366791	146.420000
356.460266	146.420000
356.553711	145.960000
356.647186	145.840000
356.740631	145.660000
356.834106	145.780000
356.927551	145.520000
357.021027	145.680000
357.114471	145.640000
357.207947	146.000000
357.301422	146.340000
357.394867	146.560000
357.488342	146.640000
357.581818	147.040000
357.675262	147.160000
357.768738	146.540000
357.862213	145.760000
357.955658	145.520000
358.049133	145.140000
358.142609	144.960000
358.236053	145.220000
358.329529	145.580000
358.423035	146.000000
358.516449	145.720000
358.609955	146.360000
358.703400	146.920000
358.796906	147.040000
358.890350	146.480000
358.983826	147.040000
359.077271	146.100000
359.170776	145.700000
359.264221	145.260000
359.357727	145.760000
359.451172	145.900000
359.544647	146.220000
359.638123	145.980000
359.731598	146.500000
359.825073	146.640000
359.918549	146.600000
360.012024	146.620000
360.105499	146.160000
360.198975	146.340000
360.292450	146.080000
360.385925	145.840000
360.479401	145.420000
360.572876	145.960000
360.666351	146.120000
360.759857	146.000000
360.853302	146.060000
360.946808	145.980000
361.040253	145.900000
361.133759	145.340000
361.227203	145.400000
361.320709	144.820000
361.414154	145.520000
361.507660	145.920000
361.601105	146.540000
361.694641	147.120000
361.788086	147.160000
361.881592	147.320000
361.975067	146.820000
362.068542	146.940000
362.162018	146.660000
362.255524	146.520000
362.348999	146.040000
362.442474	146.160000
362.535950	145.580000
362.629456	145.260000
362.722931	145.520000
362.816406	145.880000
362.909882	146.400000
363.003387	146.320000
363.096863	146.740000
363.190338	146.840000
363.283875	146.720000
363.377319	146.280000
363.470825	146.600000
363.564301	145.920000
363.657806	145.920000
363.751282	145.240000
363.844788	146.220000
363.938232	145.680000
364.031769	146.500000
364.125214	146.800000
364.218750	147.820000
364.312225	146.420000
364.405731	146.900000
364.499207	146.420000
364.592712	146.140000
364.686188	145.820000
364.779694	146.140000
364.873169	145.860000
364.966675	145.800000
365.060150	145.680000
365.153656	146.020000
365.247131	146.040000
365.340637	146.520000
365.434143	147.160000
365.527618	147.160000
365.621155	146.100000
365.714600	146.120000
365.808136	145.880000
365.901611	144.680000
365.995117	144.440000
366.088593	145.180000
366.182129	145.040000
366.275604	145.120000
366.369110	145.720000
366.462585	145.840000
366.556122	146.180000
366.649567	146.480000
366.743103	146.400000
366.836609	146.040000
366.930115	146.560000
367.023590	146.360000
367.117096	146.040000
367.210602	145.860000
367.304108	146.540000
367.397614	146.760000
367.491119	146.580000
367.584595	146.700000
367.678101	147.260000
367.771606	146.580000
367.865112	145.940000
367.958649	145.560000
368.052124	145.380000
368.145660	144.980000
368.239136	145.720000
368.332672	146.140000
368.426147	146.420000
368.519684	146.360000
368.613159	146.520000
368.706696	146.000000
368.800171	146.240000
368.893707	146.200000
368.987183	146.340000
369.080719	146.500000
369.174225	146.220000
369.267731	146.160000
369.361237	146.220000
369.454742	146.320000
369.548248	146.420000
369.641754	146.380000
369.735260	145.840000
369.828766	145.060000
369.922272	145.400000
370.015808	145.140000
370.109314	145.000000
370.202820	144.880000
370.296356	146.160000
370.389832	145.620000
370.483368	145.240000
370.576874	145.540000
370.670410	146.100000
370.763885	145.200000
370.857422	145.480000
370.950928	145.700000
371.044464	146.400000
371.137939	146.160000
371.231476	146.540000
371.324982	146.920000
371.418518	146.720000
371.512024	146.680000
371.605560	146.480000
371.699066	146.520000
371.792572	145.780000
371.886108	146.280000
371.979614	145.840000
372.073120	146.380000
372.166656	145.940000
372.260162	146.420000
372.353668	145.960000
372.447205	145.900000
372.540710	145.660000
372.634277	145.860000
372.727753	145.460000
372.821320	145.680000
372.914795	145.760000
373.008362	145.320000
373.101837	145.480000
373.195404	145.380000
373.288879	145.280000
373.382446	145.480000
373.475922	145.620000
373.569489	146.100000
373.662964	146.880000
373.756531	146.680000
373.850037	146.860000
373.943573	147.080000
374.037109	146.240000
374.130615	146.040000
374.224152	146.360000
374.317657	146.080000
374.411194	146.700000
374.504730	146.760000
374.598236	146.420000
374.691772	146.220000
374.785309	146.100000
374.878815	144.820000
374.972351	145.280000
375.065887	145.400000
375.159454	146.120000
375.252930	146.000000
375.346497	146.600000
375.440002	146.960000
375.533569	146.900000
375.627045	146.400000
375.720612	146.520000
375.814117	146.680000
375.907684	146.080000
376.001160	145.760000
376.094727	145.140000
376.188232	145.820000
376.281799	146.120000
376.375336	146.060000
376.468872	147.000000
376.562408	147.240000
376.655914	146.380000
376.749451	146.180000
376.842987	146.620000
376.936523	145.880000
377.030060	146.220000
377.123596	146.500000
377.217133	145.940000
377.310669	145.660000
377.404205	145.940000
377.497772	146.140000
377.591278	146.080000
377.684845	146.980000
377.778351	147.160000
377.871918	147.080000
377.965424	146.480000
378.058990	146.320000
378.152496	145.800000
378.246063	145.840000
378.339569	146.160000
378.433136	146.460000
378.526642	146.560000
378.620209	146.460000
378.713745	146.020000
378.807312	146.120000
378.900848	145.920000
378.994385	146.160000
379.087921	145.620000
379.181458	145.840000
379.274994	145.020000
379.368530	144.920000
379.462097	145.240000
379.555634	145.840000
379.649170	145.340000
379.742706	145.460000
379.836273	145.900000
379.929810	145.440000
380.023376	145.300000
380.116882	145.300000
380.210449	145.540000
380.303986	145.080000
380.397552	144.920000
380.491058	145.220000
380.584656	145.500000
380.678162	145.620000
380.771729	145.760000
380.865265	146.520000
380.958832	146.740000
381.052368	146.920000
381.145935	147.240000
381.239471	147.660000
381.333008	147.180000
381.426575	146.600000
381.520111	146.920000
381.613647	146.860000
381.707214	146.460000
381.800751	145.920000
381.894318	146.540000
381.987854	145.900000
382.081421	146.000000
382.174988	146.100000
382.268524	146.220000
382.362091	146.140000
382.455627	147.460000
382.549194	146.640000
382.642731	146.320000
382.736298	146.220000
382.829834	145.920000
382.923401	145.320000
383.016937	145.740000
383.110504	146.100000
383.204041	146.500000
383.297607	146.680000
383.391174	146.100000
383.484741	146.780000
383.578278	146.420000
383.671844	146.060000
383.765411	145.480000
383.858948	145.860000
383.952515	145.280000
384.046051	146.100000
384.139618	146.380000
384.233185	146.720000
384.326721	146.460000
384.420288	146.940000
384.513855	146.220000
384.607422	146.280000
384.700989	146.660000
384.794525	146.540000
384.888123	146.460000
384.981659	147.040000
385.075226	146.680000
385.168762	146.040000
385.262360	146.040000
385.355896	145.100000
385.449463	144.600000
385.542999	145.000000
385.636597	145.780000
385.730164	146.320000
385.823730	146.360000
385.917267	146.120000
386.010834	146.160000
386.104401	145.940000
386.197968	145.880000
386.291534	146.320000
386.385101	146.560000
386.478668	146.520000
386.572235	146.400000
386.665802	145.960000
386.759338	145.640000
386.852905	145.480000
386.946472	144.880000
387.040070	144.960000
387.133606	145.080000
387.227203	145.160000
387.320740	145.560000
387.414337	146.040000
387.507874	145.680000
387.601471	145.860000
387.695007	145.720000
387.788605	145.420000
387.882141	145.380000
387.975739	145.720000
388.069275	145.360000
388.162872	145.580000
388.256439	145.580000
388.350037	145.420000
388.443604	145.380000
388.537170	145.400000
388.630737	145.820000
388.724304	146.120000
388.817871	146.280000
388.911438	146.040000
389.005005	146.340000
389.098602	146.620000
389.192169	146.080000
389.285736	146.480000
389.379333	146.560000
389.472870	146.160000
389.566467	145.660000
389.660034	145.900000
389.753632	145.040000
389.847168	145.560000
389.940765	145.820000
390.034332	145.860000
390.127930	145.320000
390.221466	145.700000
390.315063	145.100000
390.408630	144.300000
390.502228	143.460000
390.595795	143.940000
390.689362	144.180000
390.782959	144.460000
390.876526	145.240000
390.970093	145.980000
391.063690	146.480000
391.157257	146.260000
391.250824	146.400000
391.344421	146.280000
391.437988	146.260000
391.531555	146.080000
391.625153	146.160000
391.718750	146.200000
391.812317	145.980000
391.905914	145.940000
391.999481	145.840000
392.093079	145.780000
392.186615	145.960000
392.280243	146.300000
392.373779	146.140000
392.467407	146.680000
392.560944	146.700000
392.654572	146.260000
392.748108	146.180000
392.841736	146.240000
392.935303	145.520000
393.028900	145.600000
393.122467	145.720000
393.216064	145.460000
393.309631	145.200000
393.403229	145.200000
393.496796	144.880000
393.590393	144.200000
393.683990	144.500000
393.777557	145.240000
393.871155	145.400000
393.964722	146.000000
394.058350	146.320000
394.151917	146.600000
394.245514	146.200000
394.339081	146.480000
394.432678	146.680000
394.526245	146.860000
394.619873	146.140000
394.713409	146.240000
394.807037	145.780000
394.900604	145.500000
394.994202	145.700000
395.087769	146.200000
395.181396	145.600000
395.274994	146.800000
395.368561	146.360000
395.462158	146.600000
395.555756	146.440000
395.649353	147.100000
395.742920	146.260000
395.836517	146.960000
395.930115	146.060000
396.023712	146.200000
396.117279	146.380000
396.210876	146.060000
396.304474	145.740000
396.398071	146.420000
396.491669	146.720000
396.585266	146.640000
396.678833	146.740000
396.772461	146.920000
396.866028	146.800000
396.959656	146.600000
397.053223	146.960000
397.146851	147.020000
397.240417	147.580000
397.334015	148.660000
397.427582	149.600000
397.521210	150.900000
397.614807	153.140000
397.708405	155.340000
397.802002	157.680000
397.895599	161.620000
397.989197	165.720000
398.082794	171.180000
398.176392	178.560000
398.269989	187.700000
398.363586	198.720000
398.457184	212.140000
398.550781	227.360000
398.644379	242.580000
398.737976	259.560000
398.831573	277.320000
398.925201	295.620000
399.018768	315.580000
399.112396	337.880000
399.205963	362.760000
399.299591	390.640000
399.393158	419.960000
399.486786	451.820000
399.580353	483.820000
399.673981	511.500000
399.767578	536.060000
399.861206	555.540000
399.954773	566.860000
400.048401	568.900000
400.141998	565.080000
400.235596	554.900000
400.329193	541.900000
400.422791	526.540000
400.516418	511.020000
400.610016	496.120000
400.703613	478.940000
400.797211	456.560000
400.890808	431.800000
400.984436	405.700000
401.078033	377.200000
401.171631	349.880000
401.265259	324.680000
401.358826	301.800000
401.452484	280.000000
401.546051	260.960000
401.639679	241.340000
401.733246	225.020000
401.826904	209.180000
401.920471	195.400000
402.014099	183.600000
402.107697	175.000000
402.201324	167.620000
402.294891	162.540000
402.388550	158.680000
402.482147	155.760000
402.575745	153.240000
402.669373	151.060000
402.762970	149.260000
402.856567	148.420000
402.950195	147.480000
403.043793	146.840000
403.137390	147.540000
403.231018	146.640000
403.324615	146.960000
403.418243	146.660000
403.511841	146.940000
403.605469	146.500000
403.699066	147.400000
403.792694	147.340000
403.886292	147.440000
403.979919	147.260000
404.073517	146.920000
404.167145	146.980000
404.260712	146.880000
404.354370	146.760000
404.447937	147.200000
404.541595	147.580000
404.635162	147.560000
404.728821	147.800000
404.822418	147.360000
404.916046	146.780000
405.009644	146.680000
405.103271	146.920000
405.196899	146.700000
405.290497	147.200000
405.384125	147.520000
405.477722	146.700000
405.571350	145.880000
405.664948	145.980000
405.758575	145.520000
405.852203	144.920000
405.945801	145.620000
406.039429	145.820000
406.133057	145.400000
406.226654	145.480000
406.320312	145.720000
406.413879	145.800000
406.507538	146.100000
406.601135	145.940000
406.694763	146.340000
406.788361	146.180000
406.882019	145.580000
406.975586	145.820000
407.069244	146.460000
407.162872	146.640000
407.256470	146.620000
407.350098	146.900000
407.443726	146.380000
407.537323	145.860000
407.630951	146.040000
407.724579	145.780000
407.818207	146.400000
407.911804	146.500000
408.005432	146.560000
408.099060	146.520000
408.192688	147.140000
408.286285	146.760000
408.379913	146.600000
408.473572	146.800000
408.567169	145.900000
408.660828	145.740000
408.754395	145.360000
408.848053	145.240000
408.941650	145.200000
409.035309	145.320000
409.128906	145.200000
409.222565	145.180000
409.316132	145.460000
409.409790	145.220000
409.503387	145.460000
409.597046	145.700000
409.690674	145.860000
409.784302	145.920000
409.877930	145.940000
409.971558	145.940000
410.065186	145.560000
410.158783	145.500000
410.252411	145.380000
410.346039	145.500000
410.439667	145.600000
410.533295	145.960000
410.626923	146.520000
410.720551	146.540000
410.814209	146.860000
410.907806	146.860000
411.001465	146.380000
411.095062	146.280000
411.188721	146.460000
411.282318	145.880000
411.375977	145.560000
411.469574	145.780000
411.563232	145.320000
411.656830	144.900000
411.750488	144.940000
411.844086	145.000000
411.937744	145.120000
412.031372	145.040000
412.125000	144.940000
412.218628	144.820000
412.312256	145.480000
412.405884	146.060000
412.499512	146.140000
412.593170	146.500000
412.686798	147.140000
412.780426	146.740000
412.874054	146.520000
412.967682	146.600000
413.061310	146.960000
413.154968	146.720000
413.248566	146.960000
413.342224	146.420000
413.435852	146.540000
413.529510	146.160000
413.623108	145.800000
413.716766	145.700000
413.810364	146.260000
413.904022	145.820000
413.997650	145.580000
414.091309	146.320000
414.184906	145.980000
414.278564	145.480000
414.372192	145.880000
414.465851	146.160000
414.559479	145.680000
414.653107	146.560000
414.746735	146.660000
414.840393	146.620000
414.934021	147.100000
415.027649	146.600000
415.121277	146.160000
415.214935	146.460000
415.308563	146.440000
415.402191	145.800000
415.495850	146.140000
415.589478	145.980000
415.683136	145.640000
415.776733	146.180000
415.870422	146.660000
415.964020	146.520000
416.057678	146.600000
416.151306	146.520000
416.244965	145.960000
416.338562	145.680000
416.432251	146.400000
416.525848	146.920000
416.619507	147.520000
416.713165	147.880000
416.806793	147.640000
416.900421	147.340000
416.994080	146.380000
417.087708	146.020000
417.181366	145.500000
417.274994	145.640000
417.368622	145.840000
417.462280	146.760000
417.555908	146.780000
417.649567	146.800000
417.743195	146.840000
417.836853	146.760000
417.930481	146.740000
418.024170	146.780000
418.117767	147.380000
418.211426	147.980000
418.305054	148.240000
418.398712	147.200000
418.492340	147.220000
418.585999	147.260000
418.679626	146.800000
418.773285	146.480000
418.866913	147.300000
418.960571	147.560000
419.054230	147.380000
419.147858	147.260000
419.241516	147.280000
419.335144	146.660000
419.428802	146.240000
419.522461	145.940000
419.616089	145.520000
419.709747	145.700000
419.803375	146.120000
419.897034	146.140000
419.990662	146.160000
420.084320	146.980000
420.177979	147.020000
420.271606	147.040000
420.365295	147.520000
420.458893	147.620000
420.552582	147.560000
420.646210	147.620000
420.739868	147.440000
420.833496	147.020000
420.927155	146.880000
421.020782	146.520000
421.114471	146.000000
421.208069	145.980000
421.301758	145.940000
421.395386	146.140000
421.489044	146.000000
421.582703	146.180000
421.676361	146.520000
421.769989	146.140000
421.863647	146.400000
421.957306	146.720000
422.050934	146.740000
422.144592	146.700000
422.238251	146.700000
422.331909	146.320000
422.425537	146.100000
422.519196	146.260000
422.612854	145.720000
422.706543	145.840000
422.800140	146.060000
422.893829	145.600000
422.987457	145.220000
423.081146	145.600000
423.174744	145.880000
423.268433	145.400000
423.362061	145.460000
423.455750	145.180000
423.549347	144.940000
423.643036	144.460000
423.736664	145.080000
423.830353	145.280000
423.924011	146.160000
424.017639	146.020000
424.111298	146.060000
424.204956	145.860000
424.298615	145.760000
424.392273	145.300000
424.485931	145.380000
424.579559	145.580000
424.673218	145.560000
424.766876	146.100000
424.860535	145.980000
424.954193	145.740000
425.047882	145.980000
425.141510	145.900000
425.235199	145.780000
425.328796	145.660000
425.422485	145.660000
425.516113	145.220000
425.609802	144.900000
425.703430	144.640000
425.797119	144.680000
425.890747	144.860000
425.984436	145.080000
426.078064	145.400000
426.171753	145.580000
426.265411	145.080000
426.359070	145.540000
426.452728	145.620000
426.546356	145.220000
426.640015	145.120000
426.733673	145.540000
426.827332	144.760000
426.920990	145.520000
427.014648	145.560000
427.108307	145.820000
427.201965	146.000000
427.295624	146.600000
427.389282	145.620000
427.482941	145.840000
427.576630	145.420000
427.670258	144.800000
427.763947	144.580000
427.857574	144.720000
427.951263	144.840000
428.044922	144.900000
428.138611	145.400000
428.232239	145.760000
428.325928	146.280000
428.419556	146.700000
428.513245	146.420000
428.606903	146.680000
428.700562	146.360000
428.794220	145.360000
428.887878	144.260000
428.981537	144.560000
429.075195	144.420000
429.168854	144.740000
429.262512	145.320000
429.356201	145.620000
429.449860	145.560000
429.543518	145.540000
429.637177	145.420000
429.730835	145.280000
429.824493	145.780000
429.918182	145.860000
430.011810	145.440000
430.105530	144.700000
430.199158	144.720000
430.292847	144.440000
430.386475	144.220000
430.480164	144.260000
430.573792	144.360000
430.667511	144.440000
430.761139	144.100000
430.854828	144.500000
430.948456	144.900000
431.042145	145.620000
431.135834	145.440000
431.229492	145.900000
431.323151	146.180000
431.416809	145.860000
431.510468	145.660000
431.604156	145.400000
431.697815	145.780000
431.791473	144.960000
431.885132	144.940000
431.978821	145.340000
432.072479	145.960000
432.166138	145.900000
432.259827	146.140000
432.353485	146.520000
432.447174	146.260000
432.540802	145.980000
432.634491	146.300000
432.728149	146.780000
432.821838	147.060000
432.915466	146.780000
433.009186	146.960000
433.102814	145.840000
433.196503	145.420000
433.290131	145.280000
433.383850	145.640000
433.477509	145.600000
433.571167	146.720000
433.664856	146.980000
433.758514	147.140000
433.852173	146.920000
433.945862	146.660000
434.039520	146.300000
434.133179	145.800000
434.226868	145.280000
434.320526	144.680000
434.414185	145.420000
434.507874	144.900000
434.601562	145.620000
434.695221	145.660000
434.788910	146.380000
434.882538	146.500000
434.976257	146.160000
435.069885	146.200000
435.163574	146.540000
435.257233	145.880000
435.350922	145.240000
435.444580	145.340000
435.538269	144.440000
435.631897	144.860000
435.725616	145.820000
435.819275	146.580000
435.912964	147.300000
436.006622	147.980000
436.100311	147.540000
436.193970	146.360000
436.287628	145.800000
436.381317	145.600000
436.474976	145.120000
436.568665	144.780000
436.662323	145.260000
436.756012	145.140000
436.849670	144.940000
436.943390	144.960000
437.037018	145.040000
437.130737	145.360000
437.224365	145.140000
437.318085	145.280000
437.411713	145.720000
437.505432	145.960000
437.599060	146.560000
437.692780	147.240000
437.786407	147.040000
437.880127	146.860000
437.973755	146.520000
438.067474	145.400000
438.161133	145.000000
438.254822	145.340000
438.348480	145.320000
438.442169	146.120000
438.535828	146.840000
438.629517	146.700000
438.723175	146.360000
438.816864	146.680000
438.910553	145.760000
439.004211	145.460000
439.097900	145.120000
439.191559	145.160000
439.285248	144.360000
439.378906	144.980000
439.472626	144.940000
439.566284	145.140000
439.659973	145.580000
439.753632	145.720000
439.847321	145.860000
439.940979	145.960000
440.034698	146.020000
440.128326	145.360000
440.222046	145.580000
440.315674	144.720000
440.409393	144.720000
440.503082	144.520000
440.596741	144.740000
440.690430	145.280000
440.784088	145.260000
440.877777	144.720000
440.971466	144.880000
441.065125	144.980000
441.158813	144.200000
441.252502	144.700000
441.346161	145.280000
441.439850	145.660000
441.533539	145.160000
441.627197	145.580000
441.720886	145.560000
441.814606	145.880000
441.908234	146.140000
442.001953	146.500000
442.095612	146.380000
442.189301	146.440000
442.282959	146.140000
442.376678	145.220000
442.470306	146.000000
442.564026	146.060000
442.657684	146.420000
442.751404	146.520000
442.845032	147.460000
442.938751	146.880000
443.032440	146.840000
443.126099	146.140000
443.219788	146.440000
443.313477	146.180000
443.407166	146.180000
443.500824	146.340000
443.594513	146.640000
443.688202	146.600000
443.781891	146.080000
443.875549	145.880000
443.969238	145.920000
444.062927	145.780000
444.156647	145.480000
444.250275	146.260000
444.343994	146.360000
444.437653	146.340000
444.531372	146.220000
444.625031	145.840000
444.718719	145.040000
444.812378	144.960000
444.906097	144.720000
444.999756	144.540000
445.093445	144.720000
445.187103	144.940000
445.280823	145.680000
445.374512	145.320000
445.468201	145.520000
445.561859	145.540000
445.655548	145.760000
445.749237	145.000000
445.842926	145.460000
445.936615	145.800000
446.030304	145.640000
446.123962	145.920000
446.217651	145.960000
446.311340	146.160000
446.405029	145.800000
446.498749	145.920000
446.592407	145.280000
446.686096	145.580000
446.779755	145.400000
446.873474	145.620000
446.967133	145.740000
447.060852	145.640000
447.154510	145.460000
447.248230	145.660000
447.341858	145.460000
447.435577	145.000000
447.529236	144.900000
447.622955	144.480000
447.716644	144.440000
447.810333	144.660000
447.904022	145.260000
447.997711	145.380000
448.091400	145.800000
448.185059	145.500000
448.278748	145.680000
448.372437	145.120000
448.466125	145.280000
448.559814	144.960000
448.653503	145.300000
448.747192	145.320000
448.840912	146.020000
448.934570	146.220000
449.028290	146.640000
449.121948	146.060000
449.215637	145.800000
449.309296	145.040000
449.403015	144.780000
449.496674	144.880000
449.590393	145.060000
449.684052	144.740000
449.777771	146.020000
449.871429	145.760000
449.965149	145.500000
450.058838	145.900000
450.152527	146.460000
450.246216	145.760000
450.339905	145.980000
450.433594	145.720000
450.527283	146.080000
450.620972	145.800000
450.714661	145.720000
450.808350	145.840000
450.902039	146.400000
450.995728	145.600000
451.089417	145.360000
451.183105	145.400000
451.276794	145.940000
451.370514	145.360000
451.464172	145.120000
451.557892	145.020000
451.651550	145.020000
451.745270	144.500000
451.838928	144.340000
451.932648	144.620000
452.026306	145.240000
452.120026	144.880000
452.213684	145.220000
452.307404	145.420000
452.401062	145.780000
452.494781	145.500000
452.588470	145.800000
452.682159	145.100000
452.775848	145.340000
452.869537	144.840000
452.963226	144.700000
453.056915	144.580000
453.150604	144.740000
453.244293	144.860000
453.337982	145.540000
453.431671	145.880000
453.525360	146.420000
453.619049	146.440000
453.712769	146.380000
453.806427	146.120000
453.900146	145.740000
453.993805	145.140000
454.087555	145.840000
454.181213	145.760000
454.274933	145.400000
454.368591	145.560000
454.462311	145.440000
454.555969	144.940000
454.649689	145.560000
454.743347	145.520000
454.837067	146.200000
454.930756	146.780000
455.024445	146.920000
455.118134	146.340000
455.211853	146.760000
455.305542	145.720000
455.399231	145.780000
455.492920	145.540000
455.586609	145.680000
455.680298	145.700000
455.773987	145.980000
455.867676	145.700000
455.961365	145.980000
456.055084	145.920000
456.148773	145.560000
456.242493	145.560000
456.336151	145.500000
456.429871	145.760000
456.523529	145.920000
456.617249	145.760000
456.710907	146.440000
456.804626	146.560000
456.898315	145.760000
456.992035	145.780000
457.085693	145.960000
457.179413	145.180000
457.273102	145.840000
457.366791	146.320000
457.460480	146.280000
457.554199	146.800000
457.647888	146.900000
457.741577	146.180000
457.835266	146.140000
457.928955	146.120000
458.022644	146.220000
458.116364	146.600000
458.210052	146.740000
458.303741	147.060000
458.397461	146.700000
458.491119	146.000000
458.584839	145.920000
458.678528	145.820000
458.772247	145.360000
458.865906	145.800000
458.959625	146.740000
459.053284	146.760000
459.147003	146.680000
459.240692	147.080000
459.334412	147.100000
459.428070	146.820000
459.521790	146.400000
459.615479	146.220000
459.709198	146.680000
459.802887	145.920000
459.896576	145.400000
459.990265	145.700000
460.083954	146.260000
460.177673	145.560000
460.271362	146.020000
460.365051	146.120000
460.458740	145.740000
460.552429	144.960000
460.646149	144.840000
460.739838	144.500000
460.833527	144.420000
460.927246	144.600000
461.020905	144.780000
461.114655	144.720000
461.208313	145.240000
461.302032	145.220000
461.395691	145.360000
461.489441	145.500000
461.583099	145.720000
461.676819	145.420000
461.770477	145.760000
461.864197	145.620000
461.957916	145.600000
462.051605	145.120000
462.145294	145.860000
462.238983	145.320000
462.332703	145.820000
462.426392	146.660000
462.520081	146.560000
462.613770	145.820000
462.707489	146.380000
462.801178	146.060000
462.894867	145.200000
462.988556	145.740000
463.082275	145.940000
463.175964	145.360000
463.269684	145.480000
463.363342	145.580000
463.457092	144.860000
463.550751	145.300000
463.644470	145.820000
463.738129	145.800000
463.831879	145.800000
463.925537	146.820000
464.019257	146.580000
464.112946	146.360000
464.206665	146.240000
464.300323	146.240000
464.394043	145.960000
464.487762	145.780000
464.581451	146.280000
464.675140	146.200000
464.768829	146.300000
464.862549	146.120000
464.956238	146.360000
465.049927	145.960000
465.143646	146.060000
465.237335	145.900000
465.331024	146.300000
465.424713	146.180000
465.518433	146.340000
465.612152	146.140000
465.705811	146.120000
465.799561	145.860000
465.893219	145.600000
465.986938	145.580000
466.080597	145.480000
466.174347	145.900000
466.268005	146.000000
466.361725	146.140000
466.455414	146.140000
466.549133	145.880000
466.642792	145.780000
466.736542	145.060000
466.830231	145.200000
466.923920	145.320000
467.017609	145.720000
467.111328	145.120000
467.205017	145.700000
467.298706	145.640000
467.392426	145.580000
467.486115	145.700000
467.579803	145.660000
467.673523	145.720000
467.767212	146.100000
467.860901	145.900000
467.954651	145.980000
468.048309	146.400000
468.142029	146.140000
468.235718	145.760000
468.329437	145.600000
468.423096	145.460000
468.516846	145.460000
468.610504	145.700000
468.704224	145.560000
468.797913	145.480000
468.891632	145.600000
468.985291	145.520000
469.079010	145.240000
469.172729	144.860000
469.266418	145.480000
469.360107	145.200000
469.453827	145.040000
469.547516	145.180000
469.641205	145.840000
469.734924	145.760000
469.828613	146.160000
469.922302	146.300000
470.016022	146.380000
470.109711	145.800000
470.203430	145.120000
470.297150	144.480000
470.390808	144.900000
470.484558	144.920000
470.578217	145.420000
470.671936	145.920000
470.765625	146.760000
470.859344	146.360000
470.953003	146.600000
471.046753	146.240000
471.140411	145.800000
471.234131	145.600000
471.327820	146.220000
471.421539	146.300000
471.515228	146.340000
471.608948	146.700000
471.702637	146.400000
471.796326	145.860000
471.890045	145.720000
471.983734	145.780000
472.077423	145.300000
472.171143	145.340000
472.264832	145.320000
472.358521	144.940000
472.452240	144.520000
472.545929	145.420000
472.639648	145.720000
472.733337	145.800000
472.827057	145.980000
472.920746	146.380000
473.014465	146.600000
473.108124	146.620000
473.201874	146.720000
473.295532	146.920000
473.389252	147.180000
473.482941	146.880000
473.576660	146.260000
473.670319	146.240000
473.764069	146.380000
473.857727	146.580000
473.951477	146.840000
474.045166	147.680000
474.138855	147.520000
474.232574	147.320000
474.326263	146.920000
474.419952	146.460000
474.513672	146.340000
474.607361	146.040000
474.701050	146.060000
474.794769	146.260000
474.888458	146.440000
474.982178	146.540000
475.075867	146.960000
475.169586	146.940000
475.263275	147.040000
475.356995	147.160000
475.450653	146.560000
475.544403	146.240000
475.638062	146.880000
475.731812	146.420000
475.825470	145.880000
475.919189	146.500000
476.012878	146.780000
476.106598	145.960000
476.200256	146.300000
476.294006	146.360000
476.387695	146.120000
476.481384	146.160000
476.575104	146.320000
476.668793	146.300000
476.762512	146.120000
476.856201	146.620000
476.949890	146.420000
477.043610	145.960000
477.137299	145.620000
477.230988	145.860000
477.324707	145.120000
477.418396	145.560000
477.512146	145.860000
477.605804	146.120000
477.699524	146.240000
477.793213	146.240000
477.886932	145.780000
477.980591	145.560000
478.074341	145.360000
478.167999	144.920000
478.261749	144.920000
478.355408	145.020000
478.449127	145.600000
478.542816	146.420000
478.636536	147.260000
478.730225	147.640000
478.823944	147.920000
478.917633	147.860000
479.011322	148.000000
479.105042	147.800000
479.198730	147.840000
479.292450	147.500000
479.386139	147.680000
479.479828	147.140000
479.573547	147.100000
479.667267	146.780000
479.760925	146.740000
479.854675	146.760000
479.948334	146.760000
480.042084	146.100000
480.135742	146.380000
480.229462	146.220000
480.323151	145.980000
480.416870	145.580000
480.510529	145.940000
480.604279	145.320000
480.697937	146.160000
480.791656	145.860000
480.885345	145.840000
480.979065	145.780000
481.072754	146.520000
481.166473	146.340000
481.260132	146.440000
481.353882	146.760000
481.447540	146.840000
481.541260	146.640000
481.635010	145.900000
481.728668	145.580000
481.822388	145.680000
481.916077	145.780000
482.009796	145.720000
482.103485	146.360000
482.197205	146.640000
482.290863	146.440000
482.384613	146.180000
482.478271	145.820000
482.571991	145.580000
482.665680	145.500000
482.759399	146.040000
482.853058	146.620000
482.946808	146.740000
483.040466	146.680000
483.134216	146.660000
483.227875	145.920000
483.321594	146.080000
483.415283	146.040000
483.509003	145.960000
483.602661	145.820000
483.696411	146.600000
483.790070	146.120000
483.883789	146.140000
483.977478	146.460000
484.071198	146.780000
484.164917	145.920000
484.258606	145.260000
484.352325	145.640000
484.445984	145.580000
484.539734	145.400000
484.633392	145.240000
484.727142	146.160000
484.820801	145.820000
484.914520	145.600000
485.008209	145.820000
485.101929	146.420000
485.195587	146.040000
485.289337	145.940000
485.382996	145.820000
485.476715	146.000000
485.570404	146.180000
485.664124	146.320000
485.757782	147.080000
485.851532	146.860000
485.945190	146.480000
486.038910	146.220000
486.132599	146.300000
486.226318	145.340000
486.319977	145.600000
486.413727	146.000000
486.507446	145.640000
486.601105	145.380000
486.694855	145.480000
486.788513	145.160000
486.882233	145.180000
486.975922	145.500000
487.069641	145.180000
487.163300	145.260000
487.257050	146.560000
487.350708	145.960000
487.444427	145.780000
487.538116	146.020000
487.631836	145.560000
487.725494	144.920000
487.819214	145.040000
487.912903	144.800000
488.006622	145.160000
488.100281	145.920000
488.194031	145.760000
488.287689	146.480000
488.381409	147.220000
488.475098	147.180000
488.568817	146.920000
488.662476	146.640000
488.756226	145.680000
488.849945	144.800000
488.943604	144.600000
489.037354	144.900000
489.131012	145.100000
489.224731	145.480000
489.318390	145.960000
489.412140	146.180000
489.505798	145.820000
489.599518	145.480000
489.693207	145.600000
489.786926	145.160000
489.880585	144.840000
489.974335	145.360000
490.067993	146.440000
490.161713	146.620000
490.255371	147.800000
490.349121	148.120000
490.442780	147.720000
490.536499	146.800000
490.630188	146.760000
490.723907	145.860000
490.817566	145.440000
490.911285	145.220000
491.004974	145.400000
491.098694	144.700000
491.192413	145.340000
491.286102	145.480000
491.379822	146.200000
491.473480	146.360000
491.567200	146.820000
491.660889	146.180000
491.754608	146.200000
491.848267	145.640000
491.941986	145.400000
492.035675	145.520000
492.129395	145.500000
492.223053	145.260000
492.316772	145.720000
492.410461	145.780000
492.504181	145.800000
492.597839	146.100000
492.691559	146.420000
492.785248	146.120000
492.878967	146.140000
492.972626	145.520000
493.066345	145.560000
493.160034	145.200000
493.253754	145.220000
493.347412	144.960000
493.441132	145.340000
493.534882	145.580000
493.628540	146.140000
493.722260	146.260000
493.815918	146.740000
493.909668	147.280000
494.003326	147.520000
494.097046	147.280000
494.190704	147.040000
494.284454	146.860000
494.378113	146.760000
494.471832	146.460000
494.565491	146.240000
494.659210	146.440000
494.752899	146.400000
494.846619	145.860000
494.940277	145.840000
495.033997	146.140000
495.127686	145.700000
495.221405	145.540000
495.315063	145.760000
495.408783	145.740000
495.502441	145.440000
495.596191	146.060000
495.689850	145.760000
495.783569	146.040000
495.877228	146.100000
495.970947	146.200000
496.064697	145.740000
496.158356	146.820000
496.252075	146.580000
496.345734	146.300000
496.439453	147.200000
496.533142	147.380000
496.626862	147.460000
496.720520	147.500000
496.814240	147.600000
496.907898	147.020000
497.001617	146.960000
497.095306	145.940000
497.189026	145.860000
497.282684	145.900000
497.376404	146.180000
497.470062	146.200000
497.563782	146.640000
497.657471	146.760000
497.751190	146.600000
497.844849	146.400000
497.938568	146.800000
498.032227	146.780000
498.125946	146.720000
498.219635	146.480000
498.313354	146.400000
498.407074	145.900000
498.500732	146.040000
498.594452	146.460000
498.688110	146.460000
498.781830	146.160000
498.875519	146.160000
498.969238	145.740000
499.062897	145.320000
499.156616	145.860000
499.250275	146.060000
499.343994	145.880000
499.437653	146.220000
499.531372	146.440000
499.625061	146.880000
499.718781	146.900000
499.812439	147.460000
499.906158	147.320000
499.999817	147.060000
500.093536	146.440000
500.187195	146.400000
500.280914	146.140000
500.374573	146.440000
500.468323	146.140000
500.561981	146.460000
500.655701	146.200000
500.749420	146.060000
500.843079	145.860000
500.936798	146.140000
501.030457	146.360000
501.124176	146.680000
501.217834	146.780000
501.311554	146.640000
501.405212	146.540000
501.498962	145.740000
501.592621	145.720000
501.686340	145.920000
501.779999	146.120000
501.873718	146.540000
501.967377	146.720000
502.061096	147.040000
502.154755	146.320000
502.248474	146.200000
502.342133	146.260000
502.435852	146.080000
502.529510	146.140000
502.623230	147.360000
502.716888	147.080000
502.810608	147.020000
502.904266	147.460000
502.997986	146.780000
503.091705	145.900000
503.185364	146.180000
503.279083	145.960000
503.372772	145.680000
503.466492	145.640000
503.560150	145.820000
503.653870	146.040000
503.747528	145.880000
503.841248	146.100000
503.934906	146.680000
504.028625	146.300000
504.122284	146.400000
504.216003	147.120000
504.309662	146.540000
504.403381	146.600000
504.497040	146.740000
504.590759	146.560000
504.684418	146.420000
504.778137	147.180000
504.871796	147.340000
504.965515	147.240000
505.059174	147.220000
505.152893	146.500000
505.246521	145.960000
505.340240	145.460000
505.433899	145.920000
505.527618	145.760000
505.621338	146.280000
505.714996	146.300000
505.808716	146.400000
505.902374	146.420000
505.996094	146.780000
506.089752	146.360000
506.183472	146.600000
506.277130	146.640000
506.370850	146.680000
506.464508	146.040000
506.558228	146.160000
506.651886	145.560000
506.745605	145.780000
506.839264	145.860000
506.932983	146.240000
507.026611	146.020000
507.120331	146.820000
507.213989	146.000000
507.307709	145.580000
507.401367	145.640000
507.495087	146.660000
507.588745	145.780000
507.682465	146.840000
507.776123	147.160000
507.869843	147.020000
507.963531	146.520000
508.057190	147.240000
508.150909	146.400000
508.244568	146.400000
508.338287	146.040000
508.431946	145.880000
508.525665	145.720000
508.619324	145.440000
508.713013	145.360000
508.806671	146.060000
508.900391	146.540000
508.994049	146.600000
509.087769	146.720000
509.181427	146.900000
509.275146	146.480000
509.368774	145.800000
509.462494	145.760000
509.556152	145.800000
509.649872	145.940000
509.743530	146.240000
509.837250	146.340000
509.930878	146.360000
510.024597	146.520000
510.118256	146.400000
510.211975	146.120000
510.305695	146.060000
510.399353	146.260000
510.493042	146.580000
510.586700	146.720000
510.680420	147.380000
510.774078	147.380000
510.867798	147.400000
510.961426	147.060000
511.055145	147.000000
511.148804	146.520000
511.242523	146.960000
511.336151	147.100000
511.429871	147.280000
511.523529	146.820000
511.617249	146.440000
511.710876	145.900000
511.804596	145.200000
511.898254	145.280000
511.991974	145.740000
512.085632	145.860000
512.179321	146.260000
512.272949	146.780000
512.366699	146.900000
512.460327	146.520000
512.554077	147.260000
512.647766	146.940000
512.741394	146.900000
512.835144	147.360000
512.928772	147.460000
513.022461	147.220000
513.116150	147.200000
513.209839	147.520000
513.303467	146.740000
513.397217	146.320000
513.490845	145.900000
513.584595	145.660000
513.678223	144.760000
513.771912	144.080000
513.865601	144.820000
513.959290	144.740000
514.052917	145.040000
514.146667	146.000000
514.240295	146.780000
514.333984	146.740000
514.427673	146.760000
514.521362	147.440000
514.614990	146.600000
514.708740	146.900000
514.802368	146.660000
514.896057	146.780000
514.989746	146.900000
515.083435	146.980000
515.177124	146.580000
515.270752	146.600000
515.364502	146.860000
515.458130	146.440000
515.551819	146.520000
515.645508	146.740000
515.739197	146.660000
515.832825	146.780000
515.926575	146.600000
516.020203	147.100000
516.113892	147.540000
516.207520	147.460000
516.301270	147.340000
516.394897	147.480000
516.488586	147.520000
516.582275	147.340000
516.675964	146.840000
516.769592	146.380000
516.863281	146.920000
516.956970	146.940000
517.050659	146.740000
517.144287	147.040000
517.238037	147.400000
517.331665	146.560000
517.425354	146.040000
517.519043	145.900000
517.612732	146.300000
517.706421	146.160000
517.800049	146.140000
517.893738	146.120000
517.987427	146.280000
518.081116	146.020000
518.174744	145.640000
518.268433	146.100000
518.362122	146.720000
518.455811	146.600000
518.549438	147.080000
518.643127	148.200000
518.736816	147.660000
518.830505	147.020000
518.924133	146.940000
519.017822	146.820000
519.111511	146.120000
519.205200	146.700000
519.298828	146.820000
519.392517	146.660000
519.486206	146.700000
519.579895	146.820000
519.673523	146.380000
519.767212	146.100000
519.860901	146.660000
519.954590	146.260000
520.048279	145.920000
520.141907	145.920000
520.235596	147.180000
520.329224	147.340000
520.422974	147.680000
520.516602	147.660000
520.610291	147.440000
520.703918	146.800000
520.797607	146.320000
520.891296	146.180000
520.984985	146.540000
521.078613	147.000000
521.172302	146.600000
521.265930	147.180000
521.359680	147.640000
521.453308	147.300000
521.546997	147.300000
521.640625	147.740000
521.734314	147.280000
521.827942	147.140000
521.921692	147.660000
522.015320	147.460000
522.109009	147.020000
522.202698	146.620000
522.296326	146.260000
522.390015	146.200000
522.483704	146.380000
522.577393	146.500000
522.671021	146.380000
522.764709	146.080000
522.858337	146.340000
522.952026	146.200000
523.045654	146.700000
523.139404	147.700000
523.233032	148.160000
523.326721	147.540000
523.420349	147.700000
523.514038	146.980000
523.607666	146.800000
523.701355	146.520000
523.795044	146.540000
523.888733	146.900000
523.982361	147.220000
524.076050	146.880000
524.169678	147.100000
524.263367	146.980000
524.356995	146.260000
524.450684	146.220000
524.544373	145.880000
524.638062	145.780000
524.731750	146.340000
524.825378	146.480000
524.919067	145.940000
525.012695	146.020000
525.106384	145.920000
525.200012	145.660000
525.293701	145.560000
525.387329	146.400000
525.481018	146.640000
525.574646	146.860000
525.668396	146.800000
525.762024	147.380000
525.855713	147.400000
525.949341	146.880000
526.043030	146.960000
526.136658	146.520000
526.230347	146.040000
526.323975	145.300000
526.417664	145.520000
526.511292	145.480000
526.604980	145.960000
526.698608	145.880000
526.792297	146.420000
526.885925	146.620000
526.979614	146.640000
527.073303	146.480000
527.166931	146.460000
527.260620	146.660000
527.354309	147.080000
527.447998	146.840000
527.541626	146.600000
527.635315	146.880000
527.728943	146.900000
527.822632	146.820000
527.916260	146.900000
528.009949	147.420000
528.103577	147.020000
528.197266	146.120000
528.290894	145.880000
528.384583	146.000000
528.478210	145.800000
528.571899	146.040000
528.665527	146.900000
528.759216	147.120000
528.852844	147.260000
528.946533	147.340000
529.040161	147.300000
529.133850	146.780000
529.227478	146.700000
529.321167	146.740000
529.414856	147.100000
529.508484	147.480000
529.602173	147.500000
529.695801	147.460000
529.789490	147.340000
529.883057	146.880000
529.976746	146.880000
530.070374	146.920000
530.164062	146.660000
530.257690	146.780000
530.351379	146.960000
530.445007	146.620000
530.538696	146.380000
530.632324	146.560000
530.726013	146.500000
530.819641	146.060000
530.913330	146.160000
531.006958	146.100000
531.100647	146.100000
531.194275	145.800000
531.287964	146.040000
531.381592	145.720000
531.475220	146.020000
531.568848	146.060000
531.662537	145.780000
531.756226	146.220000
531.849854	146.400000
531.943542	146.240000
532.037170	145.600000
532.130859	146.220000
532.224487	145.780000
532.318176	145.540000
532.411804	146.140000
532.505432	146.900000
532.599060	146.320000
532.692749	146.320000
532.786377	146.560000
532.880066	145.940000
532.973694	145.360000
533.067383	145.700000
533.161011	145.640000
533.254639	145.580000
533.348267	145.380000
533.441956	145.440000
533.535583	145.200000
533.629272	145.280000
533.722900	144.880000
533.816589	145.380000
533.910156	145.940000
534.003845	145.760000
534.097534	146.000000
534.191162	146.840000
534.284851	146.820000
534.378479	146.260000
534.472107	146.300000
534.565735	145.840000
534.659424	145.840000
534.753052	145.920000
534.846741	145.920000
534.940369	146.600000
535.033997	146.900000
535.127625	146.800000
535.221313	147.100000
535.314941	147.000000
535.408630	146.080000
535.502197	146.400000
535.595886	146.000000
535.689514	145.420000
535.783203	145.920000
535.876831	146.480000
535.970459	146.300000
536.064087	146.240000
536.157776	146.820000
536.251404	147.040000
536.345093	147.000000
536.438721	146.720000
536.532349	147.020000
536.626038	146.640000
536.719666	146.560000
536.813293	146.400000
536.906921	146.680000
537.000610	146.700000
537.094238	146.680000
537.187866	146.700000
537.281494	146.620000
537.375183	146.480000
537.468811	146.260000
537.562439	146.100000
537.656067	145.740000
537.749756	146.020000
537.843384	146.340000
537.937012	146.520000
538.030640	146.280000
538.124329	146.260000
538.217896	146.460000
538.311584	146.660000
538.405212	146.440000
538.498901	146.700000
538.592468	147.360000
538.686157	146.860000
538.779785	145.960000
538.873413	145.920000
538.967102	145.960000
539.060730	145.320000
539.154358	145.900000
539.247986	146.140000
539.341675	146.340000
539.435242	146.240000
539.528931	146.460000
539.622559	145.900000
539.716187	146.700000
539.809814	146.520000
539.903503	146.700000
539.997070	146.780000
540.090759	147.080000
540.184387	146.280000
540.278015	147.000000
540.371643	147.200000
540.465332	146.720000
540.558899	146.500000
540.652588	146.820000
540.746216	146.360000
540.839844	146.600000
540.933472	146.920000
541.027100	146.840000
541.120728	146.720000
541.214417	147.100000
541.308044	147.140000
541.401672	146.780000
541.495300	146.980000
541.588928	146.860000
541.682617	146.360000
541.776184	145.740000
541.869873	146.320000
541.963440	146.640000
542.057129	147.000000
542.150757	147.080000
542.244385	146.940000
542.338013	146.560000
542.431641	146.140000
542.525269	146.060000
542.618958	146.360000
542.712524	146.860000
542.806213	146.800000
542.899780	147.080000
542.993469	146.620000
543.087036	146.160000
543.180725	145.460000
543.274292	146.000000
543.367981	146.080000
543.461548	146.620000
543.555237	146.940000
543.648926	148.100000
543.742493	148.320000
543.836182	148.300000
543.929749	148.180000
544.023437	148.120000
544.117004	147.260000
544.210693	147.160000
544.304260	146.960000
544.397949	146.820000
544.491516	147.180000
544.585205	147.540000
544.678772	146.740000
544.772461	147.180000
544.866028	147.000000
544.959717	146.780000
545.053284	146.580000
545.146973	147.180000
545.240540	147.300000
545.334229	147.940000
545.427795	147.980000
545.521423	147.940000
545.615051	148.200000
545.708679	148.340000
545.802307	148.040000
545.895935	148.140000
545.989624	149.060000
546.083191	148.740000
546.176880	148.600000
546.270447	148.400000
546.364136	148.380000
546.457703	147.860000
546.551331	147.720000
546.644958	147.580000
546.738586	147.980000
546.832214	147.940000
546.925842	147.460000
547.019409	147.580000
547.113098	146.920000
547.206665	146.480000
547.300354	146.140000
547.393921	146.400000
547.487549	146.680000
547.581177	146.840000
547.674805	146.780000
547.768433	146.420000
547.862061	146.300000
547.955627	145.240000
548.049316	145.680000
548.142883	145.720000
548.236572	146.220000
548.330139	146.500000
548.423767	146.880000
548.517456	146.560000
548.611023	146.920000
548.704651	146.560000
548.798279	146.140000
548.891907	146.640000
548.985474	146.680000
549.079163	146.620000
549.172729	146.680000
549.266357	146.420000
549.359985	146.360000
549.453613	145.820000
549.547180	145.620000
549.640869	146.020000
549.734436	146.200000
549.828064	146.360000
549.921631	146.420000
550.015320	146.120000
550.108887	146.260000
550.202515	146.260000
550.296143	145.660000
550.389771	145.780000
550.483337	145.980000
550.576965	145.400000
550.670593	145.960000
550.764221	146.080000
550.857849	146.360000
550.951477	146.100000
551.045105	145.940000
551.138672	145.640000
551.232300	145.320000
551.325928	145.300000
551.419556	145.680000
551.513123	145.980000
551.606750	145.760000
551.700378	145.940000
551.794006	146.000000
551.887573	145.600000
551.981201	146.000000
552.074768	145.880000
552.168457	145.760000
552.262024	146.440000
552.355652	146.340000
552.449219	146.620000
552.542847	146.880000
552.636475	146.980000
552.730103	145.900000
552.823669	146.100000
552.917297	145.580000
553.010864	145.420000
553.104553	145.780000
553.198181	145.740000
553.291748	146.060000
553.385376	146.180000
553.478943	146.320000
553.572571	146.260000
553.666199	146.620000
553.759827	146.620000
553.853394	146.040000
553.947021	145.980000
554.040588	145.900000
554.134216	146.200000
554.227783	146.580000
554.321411	147.300000
554.415039	146.920000
554.508667	146.880000
554.602234	147.000000
554.695862	146.180000
554.789429	146.000000
554.883057	146.360000
554.976624	146.380000
555.070251	145.980000
555.163818	146.000000
555.257507	145.740000
555.351074	145.720000
555.444702	146.720000
555.538330	146.460000
555.631897	147.000000
555.725525	147.400000
555.819092	147.360000
555.912720	146.280000
556.006287	146.880000
556.099915	146.560000
556.193481	146.300000
556.287109	146.560000
556.380676	146.260000
556.474304	146.040000
556.567871	146.080000
556.661499	145.940000
556.755066	145.940000
556.848694	146.420000
556.942261	146.160000
557.035889	146.540000
557.129517	146.680000
557.223145	146.880000
557.316711	146.960000
557.410339	147.220000
557.503906	146.700000
557.597473	146.700000
557.691040	146.640000
557.784668	146.480000
557.878296	146.240000
557.971863	146.740000
558.065491	146.700000
558.159058	146.120000
558.252686	146.680000
558.346252	147.560000
558.439880	147.060000
558.533447	146.980000
558.627075	146.980000
558.720642	146.540000
558.814270	146.000000
558.907837	146.060000
559.001465	145.840000
559.095032	146.620000
559.188660	146.740000
559.282227	146.200000
559.375854	147.020000
559.469360	146.900000
559.562988	146.900000
559.656555	146.780000
559.750183	147.140000
559.843750	146.580000
559.937378	146.980000
560.030945	146.720000
560.124573	0.000000
560.218140	0.000000
560.311707	0.000000
560.405334	0.000000
560.498901	0.000000
560.592529	0.000000
560.686096	0.000000
560.779724	0.000000
560.873291	0.000000
560.966858	0.000000
561.060425	0.000000
561.154053	0.000000
561.247620	0.000000
561.341248	0.000000
561.434814	0.000000
561.528381	0.000000
561.621948	0.000000
561.715576	0.000000
561.809143	0.000000
561.902771	0.000000
561.996277	0.000000
562.089905	0.000000
562.183472	0.000000
562.277100	0.000000
