Model Number: SPM-002-B   
Serial Number: 70087108
Firmware Version: 004.15.4
Exposure Time: 100000.000000us
Data Taken on: 11-12-2020 19:29:51.342
Wavelength	Amplitude
221.570786	0.000000
221.663406	0.000000
221.756027	0.000000
221.848648	0.000000
221.941269	0.000000
222.033905	0.000000
222.126526	0.000000
222.219162	0.000000
222.311798	0.000000
222.404419	0.000000
222.497055	0.000000
222.589676	0.000000
222.682312	0.000000
222.774933	0.000000
222.867569	0.000000
222.960205	0.000000
223.052841	0.000000
223.145462	0.000000
223.238098	0.000000
223.330734	0.000000
223.423386	0.000000
223.516022	0.000000
223.608658	0.000000
223.701309	0.000000
223.793945	0.000000
223.886581	0.000000
223.979218	0.000000
224.071869	0.000000
224.164505	0.000000
224.257156	0.000000
224.349792	0.000000
224.442444	0.000000
224.535095	0.000000
224.627747	0.000000
224.720398	0.000000
224.813034	0.000000
224.905685	0.000000
224.998337	145.360000
225.090988	145.460000
225.183640	145.640000
225.276291	145.440000
225.368942	145.800000
225.461594	146.320000
225.554245	146.360000
225.646912	146.360000
225.739578	147.120000
225.832230	147.340000
225.924896	146.500000
226.017548	147.120000
226.110199	147.260000
226.202866	146.160000
226.295532	145.800000
226.388184	145.700000
226.480850	144.860000
226.573517	144.380000
226.666168	145.060000
226.758835	145.560000
226.851501	146.400000
226.944183	146.520000
227.036850	146.380000
227.129517	146.260000
227.222183	145.860000
227.314850	145.280000
227.407516	145.860000
227.500198	146.800000
227.592865	146.440000
227.685532	146.120000
227.778214	146.120000
227.870880	146.100000
227.963562	146.040000
228.056229	146.560000
228.148926	146.780000
228.241592	147.680000
228.334274	147.300000
228.426956	146.960000
228.519638	146.840000
228.612305	146.600000
228.704987	146.000000
228.797668	146.040000
228.890350	145.820000
228.983032	145.240000
229.075714	145.940000
229.168396	145.780000
229.261108	145.580000
229.353790	145.640000
229.446472	146.040000
229.539169	145.500000
229.631851	145.220000
229.724533	145.380000
229.817230	145.800000
229.909912	146.740000
230.002609	146.800000
230.095306	147.060000
230.187988	147.020000
230.280685	146.540000
230.373383	145.140000
230.466095	145.240000
230.558792	145.500000
230.651474	145.680000
230.744171	145.760000
230.836868	146.300000
230.929581	146.500000
231.022278	146.520000
231.114975	146.460000
231.207672	146.220000
231.300369	146.500000
231.393082	146.680000
231.485779	146.040000
231.578506	145.960000
231.671204	146.220000
231.763916	145.960000
231.856613	145.500000
231.949326	145.980000
232.042023	146.000000
232.134735	145.740000
232.227448	145.320000
232.320160	145.520000
232.412872	145.500000
232.505585	146.240000
232.598297	146.780000
232.691010	146.900000
232.783722	146.940000
232.876450	147.200000
232.969162	146.580000
233.061874	146.040000
233.154587	145.840000
233.247314	145.780000
233.340027	145.280000
233.432739	145.400000
233.525467	145.180000
233.618179	145.740000
233.710907	145.260000
233.803635	145.740000
233.896347	145.360000
233.989090	146.160000
234.081818	145.660000
234.174545	146.380000
234.267258	145.900000
234.359985	146.240000
234.452713	146.020000
234.545441	146.120000
234.638168	145.540000
234.730896	146.240000
234.823639	145.880000
234.916367	146.320000
235.009094	146.720000
235.101822	146.980000
235.194580	146.620000
235.287308	146.520000
235.380051	145.660000
235.472778	145.880000
235.565521	146.120000
235.658249	145.620000
235.750992	145.820000
235.843719	145.840000
235.936462	145.540000
236.029205	145.060000
236.121948	145.000000
236.214691	145.420000
236.307449	146.180000
236.400192	145.980000
236.492935	145.840000
236.585678	146.260000
236.678421	146.400000
236.771164	145.980000
236.863907	146.440000
236.956665	146.820000
237.049408	148.420000
237.142151	147.900000
237.234909	148.360000
237.327652	148.320000
237.420410	148.200000
237.513153	147.080000
237.605927	146.940000
237.698669	146.540000
237.791428	146.140000
237.884186	146.720000
237.976944	145.860000
238.069702	146.440000
238.162445	146.000000
238.255203	145.860000
238.347961	145.940000
238.440720	146.120000
238.533478	145.780000
238.626266	145.760000
238.719025	146.220000
238.811783	145.620000
238.904541	145.420000
238.997314	145.180000
239.090073	144.880000
239.182831	144.720000
239.275604	145.500000
239.368362	145.700000
239.461136	145.860000
239.553909	145.920000
239.646667	145.620000
239.739441	145.200000
239.832214	145.420000
239.925003	145.660000
240.017761	146.660000
240.110535	147.340000
240.203308	146.500000
240.296082	146.420000
240.388855	146.400000
240.481628	146.180000
240.574417	146.220000
240.667191	146.620000
240.759964	146.400000
240.852737	146.060000
240.945526	145.520000
241.038315	145.100000
241.131088	145.340000
241.223877	145.800000
241.316650	145.520000
241.409439	145.700000
241.502228	145.360000
241.595001	145.880000
241.687790	145.500000
241.780579	145.600000
241.873367	145.900000
241.966141	146.340000
242.058929	145.740000
242.151718	146.020000
242.244507	146.740000
242.337311	145.980000
242.430099	146.420000
242.522903	146.700000
242.615692	146.480000
242.708481	146.340000
242.801270	147.100000
242.894073	146.680000
242.986862	146.540000
243.079651	147.040000
243.172455	146.840000
243.265244	146.760000
243.358063	146.460000
243.450867	146.640000
243.543655	146.260000
243.636459	146.320000
243.729263	146.640000
243.822067	146.760000
243.914856	146.860000
244.007660	147.040000
244.100464	147.140000
244.193268	146.800000
244.286072	146.800000
244.378876	146.100000
244.471680	145.620000
244.564499	145.860000
244.657318	146.320000
244.750122	146.820000
244.842926	146.820000
244.935745	147.460000
245.028549	146.820000
245.121368	146.480000
245.214172	146.180000
245.306992	146.620000
245.399796	146.200000
245.492615	146.360000
245.585434	146.120000
245.678253	146.060000
245.771072	145.860000
245.863892	146.080000
245.956711	146.460000
246.049530	146.260000
246.142349	146.000000
246.235168	146.140000
246.327988	146.640000
246.420807	146.240000
246.513626	146.280000
246.606445	146.160000
246.699280	146.120000
246.792099	145.580000
246.884918	145.380000
246.977753	145.240000
247.070587	145.460000
247.163422	145.400000
247.256241	145.360000
247.349075	145.780000
247.441895	146.020000
247.534729	145.980000
247.627563	145.900000
247.720383	146.720000
247.813217	146.540000
247.906052	146.440000
247.998886	146.500000
248.091736	146.780000
248.184570	145.960000
248.277405	146.180000
248.370239	147.120000
248.463074	148.040000
248.555908	148.240000
248.648743	148.180000
248.741592	148.120000
248.834427	147.360000
248.927261	146.240000
249.020111	146.240000
249.112946	147.200000
249.205795	146.840000
249.298630	147.240000
249.391495	147.540000
249.484344	147.220000
249.577179	146.580000
249.670029	147.100000
249.762878	147.380000
249.855728	147.380000
249.948563	147.460000
250.041412	147.080000
250.134262	147.180000
250.227112	146.940000
250.319962	147.080000
250.412827	147.120000
250.505692	146.860000
250.598541	146.620000
250.691391	146.140000
250.784241	145.860000
250.877106	145.820000
250.969955	145.960000
251.062805	146.260000
251.155670	146.920000
251.248520	146.720000
251.341385	147.040000
251.434235	147.220000
251.527100	146.860000
251.619965	146.240000
251.712814	147.120000
251.805695	146.940000
251.898560	146.820000
251.991425	147.120000
252.084290	147.340000
252.177155	146.680000
252.270020	146.160000
252.362885	146.400000
252.455750	146.060000
252.548615	146.140000
252.641479	146.120000
252.734360	146.440000
252.827240	146.120000
252.920105	146.060000
253.012970	145.800000
253.105850	145.740000
253.198715	145.580000
253.291595	145.800000
253.384460	145.580000
253.477341	145.720000
253.570221	145.900000
253.663086	145.720000
253.755966	146.060000
253.848846	146.240000
253.941727	146.400000
254.034592	146.380000
254.127472	146.160000
254.220367	146.240000
254.313248	146.500000
254.406128	146.100000
254.499008	146.680000
254.591904	147.640000
254.684784	148.060000
254.777664	148.040000
254.870544	148.020000
254.963440	147.340000
255.056335	147.060000
255.149216	146.380000
255.242111	146.600000
255.334991	146.840000
255.427887	146.940000
255.520767	147.120000
255.613663	147.200000
255.706558	146.520000
255.799438	146.380000
255.892334	146.200000
255.985229	145.920000
256.078125	145.520000
256.171021	145.460000
256.263916	145.700000
256.356812	145.980000
256.449707	145.960000
256.542603	145.980000
256.635498	146.700000
256.728394	146.460000
256.821289	146.300000
256.914215	146.700000
257.007080	146.960000
257.100006	146.800000
257.192932	147.380000
257.285828	147.480000
257.378723	146.920000
257.471619	146.740000
257.564545	146.460000
257.657440	146.280000
257.750336	146.700000
257.843262	146.660000
257.936157	147.820000
258.029053	148.140000
258.121979	148.080000
258.214874	147.580000
258.307800	147.460000
258.400696	146.360000
258.493622	146.500000
258.586517	145.740000
258.679443	145.940000
258.772339	145.920000
258.865265	145.680000
258.958160	145.040000
259.051086	145.880000
259.144012	145.760000
259.236938	146.820000
259.329834	147.460000
259.422791	147.820000
259.515717	147.320000
259.608612	147.360000
259.701538	146.800000
259.794464	146.480000
259.887390	146.260000
259.980316	146.440000
260.073212	146.180000
260.166138	145.060000
260.259064	145.440000
260.351990	145.960000
260.444916	145.900000
260.537842	146.200000
260.630768	147.420000
260.723694	147.400000
260.816620	147.040000
260.909546	146.980000
261.002472	146.680000
261.095398	145.880000
261.188354	145.440000
261.281281	145.120000
261.374207	145.300000
261.467133	146.200000
261.560089	146.440000
261.653015	146.440000
261.745972	147.300000
261.838867	147.420000
261.931824	147.220000
262.024780	147.060000
262.117706	147.180000
262.210663	146.980000
262.303589	146.760000
262.396515	146.440000
262.489471	147.200000
262.582397	146.920000
262.675354	146.400000
262.768280	146.320000
262.861237	146.660000
262.954163	146.300000
263.047119	146.480000
263.140045	146.440000
263.233002	146.520000
263.325958	146.040000
263.418884	145.760000
263.511841	145.840000
263.604797	145.980000
263.697723	145.940000
263.790680	145.960000
263.883636	146.440000
263.976593	146.020000
264.069550	146.060000
264.162476	146.100000
264.255463	146.040000
264.348419	145.800000
264.441376	146.220000
264.534332	145.980000
264.627289	146.060000
264.720245	146.480000
264.813202	145.960000
264.906158	146.040000
264.999115	146.360000
265.092072	146.180000
265.185028	146.480000
265.277985	146.820000
265.370941	146.920000
265.463898	146.740000
265.556854	146.600000
265.649811	145.360000
265.742798	145.560000
265.835754	145.480000
265.928711	146.060000
266.021667	146.280000
266.114655	146.940000
266.207611	147.080000
266.300568	146.500000
266.393585	146.160000
266.486511	146.320000
266.579498	145.760000
266.672485	145.460000
266.765442	145.500000
266.858429	145.680000
266.951385	145.140000
267.044342	145.280000
267.137329	145.480000
267.230316	145.880000
267.323273	145.320000
267.416260	146.420000
267.509216	146.520000
267.602203	146.180000
267.695160	146.520000
267.788147	146.760000
267.881134	145.840000
267.974091	146.060000
268.067078	146.180000
268.160065	145.980000
268.253052	145.720000
268.346008	146.180000
268.438995	145.860000
268.531982	146.080000
268.624969	145.800000
268.717987	146.340000
268.810944	145.880000
268.903961	145.900000
268.996948	145.540000
269.089905	145.740000
269.182892	145.380000
269.275879	145.820000
269.368866	145.500000
269.461853	146.020000
269.554871	146.020000
269.647858	146.120000
269.740845	146.500000
269.833832	147.060000
269.926819	146.480000
270.019806	146.420000
270.112793	146.100000
270.205811	145.660000
270.298798	145.400000
270.391785	146.040000
270.484772	145.480000
270.577789	145.620000
270.670776	145.280000
270.763763	145.420000
270.856750	145.360000
270.949768	145.880000
271.042786	146.020000
271.135773	146.280000
271.228790	146.740000
271.321808	146.260000
271.414795	145.900000
271.507782	145.660000
271.600800	145.240000
271.693817	145.220000
271.786804	145.660000
271.879822	146.100000
271.972809	146.160000
272.065826	147.140000
272.158844	146.660000
272.251831	147.160000
272.344849	147.260000
272.437866	147.180000
272.530853	146.500000
272.623871	146.800000
272.716888	145.780000
272.809906	145.740000
272.902893	145.780000
272.995911	145.480000
273.088928	145.440000
273.181946	145.560000
273.274963	145.240000
273.367981	145.300000
273.460999	145.540000
273.554047	145.780000
273.647003	146.440000
273.740051	146.900000
273.833069	147.280000
273.926086	147.300000
274.019135	146.940000
274.112152	146.500000
274.205170	145.980000
274.298187	146.100000
274.391205	145.840000
274.484222	145.800000
274.577240	145.900000
274.670258	145.940000
274.763306	145.360000
274.856323	146.100000
274.949341	146.240000
275.042358	146.440000
275.135406	146.500000
275.228424	146.860000
275.321442	146.460000
275.414490	146.180000
275.507507	146.420000
275.600525	146.980000
275.693573	146.800000
275.786591	146.460000
275.879669	146.840000
275.972656	146.460000
276.065735	145.860000
276.158752	146.280000
276.251801	147.000000
276.344818	146.880000
276.437866	146.840000
276.530884	146.840000
276.623932	145.980000
276.716980	145.960000
276.809998	146.080000
276.903046	146.000000
276.996094	147.060000
277.089111	147.600000
277.182159	147.840000
277.275208	147.420000
277.368256	147.380000
277.461304	146.360000
277.554321	145.880000
277.647369	145.840000
277.740417	146.180000
277.833466	146.120000
277.926514	146.340000
278.019562	147.160000
278.112610	146.400000
278.205688	146.480000
278.298706	146.480000
278.391785	146.220000
278.484833	145.560000
278.577881	145.840000
278.670929	145.740000
278.763977	146.060000
278.857025	146.600000
278.950073	147.060000
279.043121	146.780000
279.136169	146.800000
279.229248	146.520000
279.322296	146.220000
279.415344	145.760000
279.508392	145.660000
279.601440	145.400000
279.694519	145.360000
279.787567	145.460000
279.880615	145.700000
279.973694	145.720000
280.066742	146.020000
280.159790	146.340000
280.252869	145.900000
280.345917	145.780000
280.438995	145.820000
280.532074	145.700000
280.625122	145.640000
280.718201	146.560000
280.811279	146.800000
280.904327	147.060000
280.997406	147.300000
281.090454	147.580000
281.183533	146.920000
281.276581	146.660000
281.369659	146.240000
281.462738	146.060000
281.555786	145.920000
281.648865	146.080000
281.741943	145.940000
281.835022	146.700000
281.928070	146.660000
282.021149	146.040000
282.114227	145.940000
282.207306	146.180000
282.300385	146.200000
282.393433	146.280000
282.486511	146.640000
282.579590	147.220000
282.672668	147.300000
282.765747	146.660000
282.858856	146.600000
282.951904	146.540000
283.045013	146.520000
283.138062	146.720000
283.231171	147.140000
283.324249	147.280000
283.417328	147.680000
283.510406	146.780000
283.603485	146.480000
283.696564	146.380000
283.789642	146.580000
283.882751	146.140000
283.975830	146.900000
284.068909	146.700000
284.161987	147.460000
284.255066	146.860000
284.348175	147.120000
284.441254	146.780000
284.534332	147.000000
284.627441	146.060000
284.720520	145.980000
284.813599	145.760000
284.906708	145.880000
284.999786	145.480000
285.092896	145.020000
285.185974	146.100000
285.279053	145.880000
285.372192	145.960000
285.465240	146.660000
285.558380	147.140000
285.651459	146.380000
285.744568	147.300000
285.837677	146.840000
285.930756	146.740000
286.023865	146.680000
286.116943	146.420000
286.210052	146.280000
286.303162	146.260000
286.396240	146.220000
286.489349	146.260000
286.582458	146.480000
286.675568	146.020000
286.768646	146.380000
286.861755	146.580000
286.954865	147.320000
287.047974	146.940000
287.141083	147.060000
287.234161	146.500000
287.327271	146.240000
287.420380	146.420000
287.513519	146.480000
287.606598	146.440000
287.699738	147.160000
287.792816	147.060000
287.885956	146.380000
287.979034	146.580000
288.072174	146.600000
288.165283	146.280000
288.258392	146.460000
288.351501	146.140000
288.444611	146.040000
288.537720	146.140000
288.630859	146.060000
288.723969	145.900000
288.817078	146.300000
288.910187	146.520000
289.003296	145.900000
289.096436	145.540000
289.189545	145.340000
289.282654	145.120000
289.375763	145.460000
289.468903	146.060000
289.562012	146.760000
289.655121	147.360000
289.748260	147.400000
289.841400	147.420000
289.934509	147.540000
290.027649	147.500000
290.120728	147.040000
290.213898	147.200000
290.306976	146.740000
290.400146	146.840000
290.493256	146.400000
290.586395	146.560000
290.679535	146.660000
290.772644	146.440000
290.865784	145.620000
290.958893	145.480000
291.052032	145.340000
291.145172	144.980000
291.238281	145.000000
291.331421	145.120000
291.424561	145.680000
291.517670	145.400000
291.610809	146.000000
291.703949	145.940000
291.797089	146.180000
291.890228	145.800000
291.983337	145.880000
292.076477	145.280000
292.169617	145.860000
292.262756	145.780000
292.355927	145.580000
292.449036	145.480000
292.542206	145.720000
292.635315	145.680000
292.728485	145.900000
292.821625	145.760000
292.914764	147.000000
293.007904	147.000000
293.101044	146.820000
293.194183	146.700000
293.287323	147.080000
293.380463	146.140000
293.473602	145.800000
293.566742	146.060000
293.659882	146.480000
293.753021	146.680000
293.846191	146.700000
293.939331	146.100000
294.032471	145.860000
294.125610	145.320000
294.218781	145.760000
294.311920	146.060000
294.405060	146.800000
294.498230	146.740000
294.591370	146.920000
294.684540	145.940000
294.777679	145.440000
294.870850	146.000000
294.963959	145.980000
295.057159	145.760000
295.150299	146.220000
295.243469	146.460000
295.336609	145.400000
295.429779	145.400000
295.522919	145.860000
295.616089	146.080000
295.709229	146.480000
295.802399	146.920000
295.895569	146.600000
295.988708	146.460000
296.081879	146.300000
296.175018	145.840000
296.268188	145.860000
296.361359	146.540000
296.454529	146.400000
296.547668	146.100000
296.640839	146.160000
296.734009	145.840000
296.827179	146.080000
296.920319	146.420000
297.013519	146.560000
297.106659	146.720000
297.199860	147.000000
297.292999	146.480000
297.386200	146.120000
297.479309	145.900000
297.572510	145.740000
297.665680	145.280000
297.758850	145.420000
297.852020	145.240000
297.945190	145.240000
298.038361	144.980000
298.131531	146.140000
298.224701	145.660000
298.317871	145.560000
298.411072	145.060000
298.504242	145.220000
298.597412	144.580000
298.690582	145.280000
298.783752	145.460000
298.876923	146.520000
298.970093	146.480000
299.063293	146.660000
299.156464	146.620000
299.249634	146.780000
299.342834	146.600000
299.436005	147.120000
299.529205	147.040000
299.622345	146.940000
299.715576	146.100000
299.808716	145.780000
299.901917	145.460000
299.995117	145.780000
300.088287	145.640000
300.181488	145.800000
300.274658	146.020000
300.367828	145.980000
300.461029	145.740000
300.554199	145.980000
300.647400	146.260000
300.740601	146.660000
300.833771	146.620000
300.926971	146.960000
301.020142	146.340000
301.113342	146.520000
301.206512	146.200000
301.299713	146.000000
301.392914	145.780000
301.486084	146.220000
301.579285	146.180000
301.672516	146.600000
301.765686	146.800000
301.858887	146.480000
301.952057	146.460000
302.045288	146.700000
302.138458	146.160000
302.231659	145.900000
302.324860	145.840000
302.418060	145.480000
302.511261	145.200000
302.604462	145.720000
302.697662	145.760000
302.790863	145.820000
302.884064	145.820000
302.977264	145.860000
303.070465	145.720000
303.163666	146.360000
303.256866	146.740000
303.350067	147.020000
303.443268	147.120000
303.536469	147.020000
303.629669	146.640000
303.722870	146.640000
303.816071	146.200000
303.909271	146.440000
304.002472	145.720000
304.095673	145.460000
304.188934	144.840000
304.282104	146.040000
304.375336	145.640000
304.468506	145.720000
304.561768	145.580000
304.654968	146.180000
304.748169	145.520000
304.841370	145.660000
304.934601	146.280000
305.027802	146.040000
305.121002	145.680000
305.214233	145.780000
305.307434	145.660000
305.400665	145.960000
305.493866	146.080000
305.587097	146.560000
305.680298	146.080000
305.773499	146.880000
305.866730	146.440000
305.959930	147.220000
306.053162	147.280000
306.146393	146.840000
306.239594	145.780000
306.332825	145.600000
306.426025	145.680000
306.519287	145.080000
306.612488	145.720000
306.705719	145.960000
306.798920	146.280000
306.892181	145.600000
306.985352	145.420000
307.078613	144.800000
307.171844	145.360000
307.265045	144.720000
307.358276	144.620000
307.451508	145.040000
307.544739	145.820000
307.637970	145.220000
307.731201	145.620000
307.824402	146.340000
307.917633	146.320000
308.010864	146.560000
308.104095	147.260000
308.197327	147.380000
308.290558	147.340000
308.383789	147.040000
308.477020	146.680000
308.570251	145.620000
308.663483	145.420000
308.756714	145.040000
308.849976	145.400000
308.943176	145.980000
309.036438	146.320000
309.129639	146.260000
309.222900	146.420000
309.316101	146.300000
309.409393	145.740000
309.502625	145.620000
309.595856	145.860000
309.689087	146.000000
309.782318	146.020000
309.875580	146.200000
309.968811	146.580000
310.062042	146.280000
310.155273	145.780000
310.248535	146.220000
310.341766	145.920000
310.434998	145.640000
310.528259	145.420000
310.621490	146.060000
310.714722	145.080000
310.807983	145.100000
310.901215	145.200000
310.994476	145.760000
311.087708	145.180000
311.181000	145.880000
311.274200	145.460000
311.367462	145.800000
311.460693	145.380000
311.553986	146.100000
311.647186	146.060000
311.740479	147.140000
311.833710	146.680000
311.926971	146.740000
312.020203	146.260000
312.113464	146.060000
312.206726	145.320000
312.299957	145.660000
312.393219	146.140000
312.486481	146.100000
312.579712	145.940000
312.672974	146.220000
312.766235	145.980000
312.859497	145.980000
312.952759	145.960000
313.045990	146.680000
313.139252	146.100000
313.232513	146.100000
313.325775	145.940000
313.419037	145.760000
313.512299	145.140000
313.605530	145.820000
313.698822	146.100000
313.792053	146.100000
313.885345	145.960000
313.978577	146.180000
314.071869	145.700000
314.165131	145.680000
314.258392	146.160000
314.351654	146.420000
314.444916	145.720000
314.538177	146.540000
314.631439	146.680000
314.724701	146.180000
314.817993	146.060000
314.911255	146.640000
315.004517	145.560000
315.097778	145.380000
315.191040	145.740000
315.284302	146.060000
315.377594	145.740000
315.470856	146.160000
315.564117	145.800000
315.657379	145.140000
315.750671	144.720000
315.843933	145.380000
315.937195	145.120000
316.030518	144.920000
316.123749	144.860000
316.217041	145.840000
316.310303	145.540000
316.403595	145.820000
316.496857	146.280000
316.590149	146.860000
316.683411	145.940000
316.776703	145.640000
316.869965	145.480000
316.963257	145.400000
317.056519	144.860000
317.149811	144.840000
317.243073	145.040000
317.336365	145.320000
317.429626	145.760000
317.522919	146.180000
317.616180	146.320000
317.709473	145.960000
317.802765	145.860000
317.896027	145.620000
317.989319	145.800000
318.082611	145.860000
318.175873	146.160000
318.269165	146.160000
318.362488	146.020000
318.455750	145.580000
318.549042	145.820000
318.642303	146.240000
318.735626	146.180000
318.828888	146.100000
318.922211	145.640000
319.015472	146.100000
319.108765	145.460000
319.202057	144.920000
319.295349	144.980000
319.388641	145.580000
319.481934	145.260000
319.575226	145.160000
319.668518	145.560000
319.761810	145.520000
319.855103	145.460000
319.948395	145.240000
320.041687	145.600000
320.134979	145.780000
320.228271	145.680000
320.321564	145.220000
320.414856	145.260000
320.508148	144.900000
320.601440	145.000000
320.694763	145.060000
320.788025	146.300000
320.881348	146.160000
320.974640	146.200000
321.067963	145.560000
321.161224	145.680000
321.254547	144.660000
321.347839	145.120000
321.441162	145.040000
321.534454	145.540000
321.627747	145.260000
321.721069	146.240000
321.814362	146.280000
321.907654	146.320000
322.000946	145.980000
322.094269	146.660000
322.187561	145.960000
322.280884	145.960000
322.374176	146.400000
322.467468	147.140000
322.560791	146.900000
322.654083	147.100000
322.747406	147.160000
322.840698	147.100000
322.934021	147.000000
323.027344	147.180000
323.120636	147.040000
323.213959	146.940000
323.307251	146.460000
323.400574	146.340000
323.493866	145.720000
323.587219	146.060000
323.680511	146.240000
323.773834	146.580000
323.867157	146.300000
323.960449	146.640000
324.053772	146.340000
324.147095	146.060000
324.240387	146.500000
324.333710	146.740000
324.427032	146.820000
324.520355	146.560000
324.613647	146.280000
324.706970	145.880000
324.800293	145.900000
324.893616	146.020000
324.986938	146.460000
325.080231	146.420000
325.173553	146.800000
325.266876	147.160000
325.360199	147.120000
325.453522	146.480000
325.546875	146.140000
325.640167	146.080000
325.733521	146.180000
325.826813	146.380000
325.920166	146.480000
326.013489	146.900000
326.106812	146.140000
326.200134	145.380000
326.293457	144.620000
326.386780	144.840000
326.480103	144.660000
326.573425	144.920000
326.666748	144.860000
326.760071	145.520000
326.853424	145.660000
326.946747	145.620000
327.040070	146.400000
327.133392	146.500000
327.226715	145.920000
327.320068	145.640000
327.413391	146.200000
327.506714	145.320000
327.600037	145.160000
327.693390	145.520000
327.786713	145.480000
327.880066	145.280000
327.973358	145.760000
328.066742	146.260000
328.160034	146.140000
328.253418	146.660000
328.346710	146.220000
328.440063	145.720000
328.533417	145.460000
328.626740	145.780000
328.720093	145.240000
328.813416	145.400000
328.906769	145.720000
329.000092	145.860000
329.093445	145.760000
329.186768	145.820000
329.280121	145.920000
329.373444	146.020000
329.466797	145.940000
329.560120	145.620000
329.653473	145.720000
329.746796	145.460000
329.840149	145.220000
329.933502	145.340000
330.026825	145.340000
330.120178	144.980000
330.213562	145.140000
330.306854	145.340000
330.400238	145.160000
330.493561	144.940000
330.586945	145.820000
330.680237	145.840000
330.773621	145.880000
330.866974	146.160000
330.960327	146.600000
331.053680	146.060000
331.147003	146.560000
331.240356	146.580000
331.333710	146.260000
331.427063	145.940000
331.520416	146.100000
331.613770	145.880000
331.707123	145.960000
331.800476	146.180000
331.893829	147.100000
331.987152	147.060000
332.080505	146.980000
332.173859	146.780000
332.267212	146.340000
332.360565	145.440000
332.453918	145.160000
332.547333	144.800000
332.640656	144.880000
332.734039	145.180000
332.827362	145.180000
332.920746	145.860000
333.014069	146.020000
333.107452	146.300000
333.200806	146.300000
333.294159	146.540000
333.387543	145.920000
333.480896	145.460000
333.574249	145.040000
333.667603	144.980000
333.760956	145.380000
333.854340	145.440000
333.947693	146.000000
334.041046	146.020000
334.134430	146.460000
334.227783	145.980000
334.321136	145.820000
334.414520	145.400000
334.507874	145.540000
334.601227	145.180000
334.694611	145.160000
334.787964	145.580000
334.881348	145.920000
334.974701	146.100000
335.068085	146.120000
335.161438	146.460000
335.254822	146.300000
335.348175	146.280000
335.441559	145.560000
335.534943	146.140000
335.628296	145.620000
335.721680	145.440000
335.815033	145.700000
335.908417	146.300000
336.001770	145.880000
336.095154	146.140000
336.188538	145.780000
336.281891	145.320000
336.375275	144.740000
336.468658	144.500000
336.562012	144.520000
336.655396	145.240000
336.748779	145.820000
336.842133	146.360000
336.935516	146.840000
337.028900	146.500000
337.122284	146.220000
337.215637	146.280000
337.309021	146.000000
337.402435	145.180000
337.495789	145.540000
337.589203	145.500000
337.682526	145.180000
337.775940	145.560000
337.869324	146.200000
337.962708	145.920000
338.056091	146.260000
338.149475	145.940000
338.242859	145.740000
338.336243	145.460000
338.429626	145.620000
338.523010	145.640000
338.616394	145.680000
338.709778	145.940000
338.803162	146.180000
338.896545	146.440000
338.989929	145.880000
339.083313	146.180000
339.176697	145.900000
339.270081	145.440000
339.363464	145.660000
339.456848	146.200000
339.550232	145.580000
339.643616	145.380000
339.737030	145.600000
339.830383	145.220000
339.923828	145.320000
340.017181	145.900000
340.110596	146.120000
340.203949	146.160000
340.297363	145.940000
340.390778	145.740000
340.484161	145.560000
340.577545	145.420000
340.670959	145.780000
340.764343	145.680000
340.857727	145.900000
340.951111	145.440000
341.044525	145.920000
341.137909	145.180000
341.231293	145.160000
341.324707	144.620000
341.418091	145.700000
341.511505	145.440000
341.604889	146.000000
341.698303	146.260000
341.791687	146.540000
341.885071	145.880000
341.978485	145.660000
342.071899	145.620000
342.165283	145.920000
342.258698	145.900000
342.352081	146.320000
342.445496	147.000000
342.538879	147.040000
342.632324	146.440000
342.725708	146.540000
342.819122	146.020000
342.912506	145.600000
343.005920	145.500000
343.099335	146.660000
343.192719	146.420000
343.286133	146.660000
343.379547	146.620000
343.472931	146.580000
343.566345	145.700000
343.659760	145.960000
343.753143	145.520000
343.846558	145.360000
343.939972	145.100000
344.033386	145.640000
344.126770	145.700000
344.220184	146.160000
344.313599	146.640000
344.407043	146.960000
344.500427	146.400000
344.593872	146.720000
344.687225	146.280000
344.780670	145.820000
344.874054	145.700000
344.967499	146.220000
345.060913	145.780000
345.154327	146.140000
345.247742	145.800000
345.341156	145.420000
345.434570	144.820000
345.527985	144.800000
345.621399	144.740000
345.714813	145.140000
345.808228	145.540000
345.901642	145.540000
345.995056	145.300000
346.088470	145.480000
346.181885	145.660000
346.275299	145.320000
346.368713	145.200000
346.462128	145.080000
346.555573	144.980000
346.648987	144.740000
346.742401	144.960000
346.835815	145.600000
346.929260	145.340000
347.022644	145.520000
347.116119	145.660000
347.209503	145.940000
347.302948	146.340000
347.396362	147.000000
347.489807	146.880000
347.583221	147.400000
347.676636	147.080000
347.770050	145.920000
347.863495	145.580000
347.956909	145.560000
348.050323	145.060000
348.143768	144.980000
348.237183	145.140000
348.330597	145.580000
348.424042	145.840000
348.517456	146.460000
348.610901	146.500000
348.704315	146.520000
348.797760	145.900000
348.891174	145.440000
348.984619	144.500000
349.078033	145.060000
349.171448	145.880000
349.264923	146.020000
349.358337	146.020000
349.451782	146.660000
349.545197	145.640000
349.638641	144.660000
349.732086	144.080000
349.825500	144.680000
349.918945	143.940000
350.012390	144.880000
350.105804	145.640000
350.199249	146.220000
350.292664	146.260000
350.386108	146.620000
350.479553	146.800000
350.572968	146.380000
350.666412	146.700000
350.759857	146.120000
350.853302	146.620000
350.946716	146.140000
351.040161	146.280000
351.133606	146.240000
351.227081	146.440000
351.320465	146.800000
351.413940	146.800000
351.507355	146.960000
351.600830	146.760000
351.694244	146.620000
351.787720	146.080000
351.881104	145.860000
351.974579	146.020000
352.067993	146.880000
352.161469	147.100000
352.254883	146.680000
352.348358	146.920000
352.441803	146.720000
352.535248	145.880000
352.628693	146.300000
352.722137	146.260000
352.815582	146.480000
352.909027	146.240000
353.002472	146.100000
353.095917	145.620000
353.189362	145.880000
353.282806	145.500000
353.376251	145.380000
353.469696	145.340000
353.563141	145.840000
353.656586	145.500000
353.750061	145.220000
353.843475	145.480000
353.936981	146.120000
354.030396	145.560000
354.123871	145.840000
354.217285	146.860000
354.310760	147.120000
354.404175	146.720000
354.497681	146.480000
354.591095	146.620000
354.684570	145.760000
354.777985	145.300000
354.871490	145.160000
354.964935	145.580000
355.058380	145.380000
355.151855	145.560000
355.245300	145.880000
355.338745	146.100000
355.432220	146.240000
355.525665	145.980000
355.619110	146.480000
355.712585	146.320000
355.806030	146.220000
355.899475	145.400000
355.992950	145.820000
356.086426	145.860000
356.179871	145.660000
356.273346	145.780000
356.366791	146.480000
356.460266	146.700000
356.553711	146.280000
356.647186	146.420000
356.740631	146.160000
356.834106	145.720000
356.927551	145.560000
357.021027	145.680000
357.114471	146.140000
357.207947	146.440000
357.301422	146.880000
357.394867	146.820000
357.488342	147.180000
357.581818	146.880000
357.675262	147.140000
357.768738	146.760000
357.862213	146.280000
357.955658	145.800000
358.049133	145.360000
358.142609	145.340000
358.236053	145.280000
358.329529	145.500000
358.423035	145.760000
358.516449	145.760000
358.609955	145.940000
358.703400	146.580000
358.796906	147.020000
358.890350	146.640000
358.983826	147.000000
359.077271	146.320000
359.170776	145.940000
359.264221	145.220000
359.357727	145.360000
359.451172	145.780000
359.544647	146.000000
359.638123	145.760000
359.731598	146.280000
359.825073	146.720000
359.918549	146.620000
360.012024	146.660000
360.105499	146.180000
360.198975	146.220000
360.292450	145.700000
360.385925	145.360000
360.479401	145.180000
360.572876	146.000000
360.666351	145.880000
360.759857	145.760000
360.853302	145.960000
360.946808	145.720000
361.040253	145.500000
361.133759	145.360000
361.227203	145.720000
361.320709	145.340000
361.414154	145.920000
361.507660	146.180000
361.601105	146.740000
361.694641	147.240000
361.788086	147.140000
361.881592	147.340000
361.975067	147.080000
362.068542	147.000000
362.162018	146.820000
362.255524	146.600000
362.348999	146.240000
362.442474	146.400000
362.535950	145.940000
362.629456	145.360000
362.722931	145.580000
362.816406	145.960000
362.909882	146.360000
363.003387	146.100000
363.096863	146.760000
363.190338	146.800000
363.283875	146.500000
363.377319	145.840000
363.470825	146.480000
363.564301	145.820000
363.657806	145.920000
363.751282	145.580000
363.844788	146.780000
363.938232	146.280000
364.031769	146.720000
364.125214	147.040000
364.218750	147.440000
364.312225	145.980000
364.405731	146.040000
364.499207	145.820000
364.592712	145.400000
364.686188	145.360000
364.779694	145.880000
364.873169	146.100000
364.966675	146.080000
365.060150	146.240000
365.153656	146.400000
365.247131	146.620000
365.340637	146.720000
365.434143	146.960000
365.527618	147.180000
365.621155	146.420000
365.714600	146.080000
365.808136	146.080000
365.901611	145.320000
365.995117	144.940000
366.088593	145.040000
366.182129	145.020000
366.275604	145.080000
366.369110	145.400000
366.462585	145.300000
366.556122	145.840000
366.649567	145.920000
366.743103	145.780000
366.836609	145.580000
366.930115	146.020000
367.023590	146.220000
367.117096	146.200000
367.210602	146.140000
367.304108	146.780000
367.397614	147.160000
367.491119	147.100000
367.584595	147.280000
367.678101	147.520000
367.771606	146.920000
367.865112	146.140000
367.958649	145.760000
368.052124	145.500000
368.145660	145.360000
368.239136	146.100000
368.332672	146.480000
368.426147	146.500000
368.519684	146.240000
368.613159	146.340000
368.706696	145.560000
368.800171	145.240000
368.893707	144.980000
368.987183	144.980000
369.080719	145.100000
369.174225	145.280000
369.267731	145.560000
369.361237	145.720000
369.454742	146.160000
369.548248	146.400000
369.641754	146.220000
369.735260	146.000000
369.828766	145.400000
369.922272	145.820000
370.015808	145.100000
370.109314	144.900000
370.202820	144.900000
370.296356	146.300000
370.389832	145.540000
370.483368	145.400000
370.576874	145.580000
370.670410	145.820000
370.763885	144.580000
370.857422	144.720000
370.950928	144.960000
371.044464	145.940000
371.137939	146.000000
371.231476	146.820000
371.324982	147.360000
371.418518	147.640000
371.512024	146.880000
371.605560	146.220000
371.699066	146.080000
371.792572	145.520000
371.886108	145.800000
371.979614	145.780000
372.073120	146.880000
372.166656	146.660000
372.260162	147.140000
372.353668	146.780000
372.447205	146.640000
372.540710	146.260000
372.634277	146.180000
372.727753	146.020000
372.821320	145.700000
372.914795	145.520000
373.008362	145.220000
373.101837	145.360000
373.195404	145.020000
373.288879	145.120000
373.382446	146.120000
373.475922	146.080000
373.569489	146.720000
373.662964	147.480000
373.756531	147.700000
373.850037	147.400000
373.943573	147.700000
374.037109	146.660000
374.130615	146.260000
374.224152	146.380000
374.317657	145.960000
374.411194	146.720000
374.504730	146.720000
374.598236	146.380000
374.691772	145.940000
374.785309	145.880000
374.878815	144.680000
374.972351	145.380000
375.065887	145.580000
375.159454	146.340000
375.252930	146.260000
375.346497	146.580000
375.440002	146.860000
375.533569	146.720000
375.627045	145.960000
375.720612	146.120000
375.814117	146.340000
375.907684	145.820000
376.001160	145.600000
376.094727	145.120000
376.188232	145.560000
376.281799	145.640000
376.375336	145.600000
376.468872	146.280000
376.562408	146.640000
376.655914	146.220000
376.749451	146.040000
376.842987	146.180000
376.936523	145.600000
377.030060	145.680000
377.123596	145.800000
377.217133	145.140000
377.310669	145.020000
377.404205	145.260000
377.497772	146.140000
377.591278	146.140000
377.684845	146.800000
377.778351	146.940000
377.871918	147.040000
377.965424	145.960000
378.058990	145.840000
378.152496	145.800000
378.246063	145.840000
378.339569	146.080000
378.433136	146.260000
378.526642	146.620000
378.620209	146.500000
378.713745	146.100000
378.807312	146.420000
378.900848	146.580000
378.994385	146.600000
379.087921	146.000000
379.181458	146.340000
379.274994	145.280000
379.368530	145.080000
379.462097	144.980000
379.555634	145.540000
379.649170	145.020000
379.742706	145.140000
379.836273	145.240000
379.929810	145.040000
380.023376	144.800000
380.116882	144.900000
380.210449	145.020000
380.303986	144.860000
380.397552	144.620000
380.491058	145.040000
380.584656	145.000000
380.678162	145.120000
380.771729	145.360000
380.865265	146.100000
380.958832	145.700000
381.052368	146.000000
381.145935	146.420000
381.239471	146.980000
381.333008	146.660000
381.426575	146.900000
381.520111	147.300000
381.613647	147.200000
381.707214	146.680000
381.800751	146.000000
381.894318	145.720000
381.987854	144.880000
382.081421	144.800000
382.174988	144.740000
382.268524	145.000000
382.362091	145.480000
382.455627	146.500000
382.549194	146.000000
382.642731	145.720000
382.736298	145.640000
382.829834	145.180000
382.923401	145.340000
383.016937	145.960000
383.110504	146.300000
383.204041	146.420000
383.297607	147.140000
383.391174	146.380000
383.484741	146.680000
383.578278	146.280000
383.671844	146.060000
383.765411	145.020000
383.858948	145.520000
383.952515	145.220000
384.046051	145.780000
384.139618	146.360000
384.233185	147.100000
384.326721	146.640000
384.420288	146.700000
384.513855	146.620000
384.607422	146.820000
384.700989	146.700000
384.794525	146.440000
384.888123	146.400000
384.981659	146.620000
385.075226	146.060000
385.168762	145.620000
385.262360	146.060000
385.355896	145.480000
385.449463	145.080000
385.542999	145.220000
385.636597	146.100000
385.730164	146.020000
385.823730	145.840000
385.917267	145.660000
386.010834	145.860000
386.104401	145.560000
386.197968	145.960000
386.291534	146.620000
386.385101	146.780000
386.478668	146.900000
386.572235	146.920000
386.665802	146.220000
386.759338	145.660000
386.852905	145.520000
386.946472	145.220000
387.040070	145.040000
387.133606	145.440000
387.227203	145.580000
387.320740	145.800000
387.414337	145.540000
387.507874	145.400000
387.601471	145.020000
387.695007	144.880000
387.788605	144.600000
387.882141	144.960000
387.975739	145.020000
388.069275	144.880000
388.162872	145.180000
388.256439	145.280000
388.350037	144.920000
388.443604	144.800000
388.537170	144.940000
388.630737	145.400000
388.724304	145.580000
388.817871	145.780000
388.911438	145.960000
389.005005	146.160000
389.098602	146.100000
389.192169	145.680000
389.285736	146.200000
389.379333	146.240000
389.472870	145.660000
389.566467	145.320000
389.660034	145.400000
389.753632	144.720000
389.847168	145.040000
389.940765	145.420000
390.034332	145.600000
390.127930	145.720000
390.221466	145.800000
390.315063	145.180000
390.408630	144.920000
390.502228	144.360000
390.595795	144.620000
390.689362	144.820000
390.782959	145.480000
390.876526	145.940000
390.970093	145.880000
391.063690	146.280000
391.157257	146.240000
391.250824	146.220000
391.344421	146.040000
391.437988	146.460000
391.531555	146.200000
391.625153	146.340000
391.718750	146.240000
391.812317	145.960000
391.905914	146.020000
391.999481	145.960000
392.093079	145.980000
392.186615	146.340000
392.280243	146.820000
392.373779	146.680000
392.467407	147.180000
392.560944	146.980000
392.654572	146.220000
392.748108	146.000000
392.841736	146.100000
392.935303	145.520000
393.028900	145.520000
393.122467	145.740000
393.216064	145.360000
393.309631	145.080000
393.403229	145.000000
393.496796	144.800000
393.590393	144.280000
393.683990	144.920000
393.777557	145.480000
393.871155	145.480000
393.964722	145.640000
394.058350	146.160000
394.151917	146.020000
394.245514	145.740000
394.339081	146.200000
394.432678	146.540000
394.526245	146.480000
394.619873	145.980000
394.713409	145.980000
394.807037	145.460000
394.900604	145.360000
394.994202	145.400000
395.087769	146.060000
395.181396	145.700000
395.274994	146.780000
395.368561	146.200000
395.462158	146.340000
395.555756	145.980000
395.649353	146.460000
395.742920	145.620000
395.836517	146.280000
395.930115	145.680000
396.023712	145.880000
396.117279	146.020000
396.210876	145.600000
396.304474	145.600000
396.398071	146.020000
396.491669	146.360000
396.585266	145.860000
396.678833	146.240000
396.772461	146.300000
396.866028	146.100000
396.959656	146.160000
397.053223	146.560000
397.146851	146.400000
397.240417	146.540000
397.334015	147.360000
397.427582	147.160000
397.521210	147.520000
397.614807	148.420000
397.708405	149.060000
397.802002	149.700000
397.895599	151.480000
397.989197	152.640000
398.082794	154.220000
398.176392	156.380000
398.269989	158.540000
398.363586	161.040000
398.457184	164.840000
398.550781	168.480000
398.644379	171.320000
398.737976	174.240000
398.831573	176.960000
398.925201	179.060000
399.018768	181.400000
399.112396	184.740000
399.205963	188.500000
399.299591	192.720000
399.393158	197.240000
399.486786	202.680000
399.580353	207.300000
399.673981	212.340000
399.767578	216.940000
399.861206	222.100000
399.954773	226.140000
400.048401	229.120000
400.141998	230.580000
400.235596	231.620000
400.329193	229.960000
400.422791	227.300000
400.516418	224.120000
400.610016	220.800000
400.703613	216.500000
400.797211	212.200000
400.890808	207.820000
400.984436	204.060000
401.078033	199.360000
401.171631	194.760000
401.265259	190.400000
401.358826	186.240000
401.452484	181.560000
401.546051	177.920000
401.639679	173.660000
401.733246	170.140000
401.826904	165.980000
401.920471	162.320000
402.014099	159.200000
402.107697	156.740000
402.201324	154.560000
402.294891	153.440000
402.388550	152.380000
402.482147	151.440000
402.575745	150.300000
402.669373	149.000000
402.762970	147.920000
402.856567	147.440000
402.950195	147.140000
403.043793	147.140000
403.137390	147.940000
403.231018	147.360000
403.324615	147.960000
403.418243	147.200000
403.511841	147.340000
403.605469	146.680000
403.699066	147.340000
403.792694	146.980000
403.886292	147.220000
403.979919	146.940000
404.073517	146.640000
404.167145	146.660000
404.260712	146.460000
404.354370	146.320000
404.447937	146.420000
404.541595	146.960000
404.635162	147.140000
404.728821	147.480000
404.822418	147.180000
404.916046	147.040000
405.009644	146.860000
405.103271	146.940000
405.196899	146.500000
405.290497	147.060000
405.384125	147.440000
405.477722	146.900000
405.571350	146.120000
405.664948	146.480000
405.758575	146.300000
405.852203	145.720000
405.945801	146.060000
406.039429	146.260000
406.133057	146.060000
406.226654	145.860000
406.320312	145.940000
406.413879	146.220000
406.507538	146.380000
406.601135	145.860000
406.694763	146.380000
406.788361	146.420000
406.882019	145.760000
406.975586	146.080000
407.069244	146.700000
407.162872	146.460000
407.256470	146.220000
407.350098	146.680000
407.443726	145.980000
407.537323	145.440000
407.630951	145.780000
407.724579	145.500000
407.818207	145.620000
407.911804	145.640000
408.005432	145.840000
408.099060	145.520000
408.192688	146.160000
408.286285	146.100000
408.379913	146.080000
408.473572	146.160000
408.567169	145.660000
408.660828	145.660000
408.754395	145.280000
408.848053	145.000000
408.941650	145.220000
409.035309	145.040000
409.128906	144.880000
409.222565	145.000000
409.316132	145.560000
409.409790	145.160000
409.503387	145.740000
409.597046	145.940000
409.690674	146.240000
409.784302	146.240000
409.877930	146.480000
409.971558	146.600000
410.065186	146.220000
410.158783	145.880000
410.252411	146.000000
410.346039	146.240000
410.439667	145.940000
410.533295	146.280000
410.626923	146.500000
410.720551	145.960000
410.814209	146.180000
410.907806	146.460000
411.001465	146.020000
411.095062	146.060000
411.188721	146.580000
411.282318	145.940000
411.375977	145.440000
411.469574	145.820000
411.563232	145.760000
411.656830	145.380000
411.750488	145.420000
411.844086	145.380000
411.937744	145.480000
412.031372	145.320000
412.125000	145.520000
412.218628	145.400000
412.312256	146.360000
412.405884	146.740000
412.499512	146.740000
412.593170	146.840000
412.686798	147.460000
412.780426	146.800000
412.874054	146.760000
412.967682	147.080000
413.061310	147.560000
413.154968	147.400000
413.248566	147.380000
413.342224	146.980000
413.435852	146.800000
413.529510	146.100000
413.623108	145.540000
413.716766	145.800000
413.810364	146.300000
413.904022	146.120000
413.997650	146.240000
414.091309	147.240000
414.184906	146.900000
414.278564	146.200000
414.372192	146.380000
414.465851	146.460000
414.559479	145.620000
414.653107	146.520000
414.746735	146.400000
414.840393	146.280000
414.934021	146.480000
415.027649	146.260000
415.121277	145.540000
415.214935	146.260000
415.308563	146.460000
415.402191	145.720000
415.495850	145.840000
415.589478	145.680000
415.683136	145.240000
415.776733	145.280000
415.870422	146.000000
415.964020	145.620000
416.057678	145.980000
416.151306	145.800000
416.244965	145.720000
416.338562	145.800000
416.432251	146.940000
416.525848	147.460000
416.619507	148.020000
416.713165	148.280000
416.806793	148.000000
416.900421	147.720000
416.994080	146.780000
417.087708	146.540000
417.181366	146.100000
417.274994	146.180000
417.368622	146.040000
417.462280	146.740000
417.555908	146.740000
417.649567	146.620000
417.743195	146.640000
417.836853	146.600000
417.930481	146.700000
418.024170	146.980000
418.117767	147.780000
418.211426	148.060000
418.305054	148.220000
418.398712	147.480000
418.492340	146.860000
418.585999	146.900000
418.679626	146.780000
418.773285	146.700000
418.866913	147.100000
418.960571	148.000000
419.054230	147.760000
419.147858	147.580000
419.241516	147.720000
419.335144	147.540000
419.428802	147.100000
419.522461	146.680000
419.616089	146.400000
419.709747	146.620000
419.803375	146.700000
419.897034	146.280000
419.990662	146.340000
420.084320	147.020000
420.177979	146.900000
420.271606	146.740000
420.365295	147.080000
420.458893	147.460000
420.552582	147.380000
420.646210	147.220000
420.739868	147.100000
420.833496	146.920000
420.927155	146.520000
421.020782	146.140000
421.114471	145.660000
421.208069	145.820000
421.301758	146.000000
421.395386	146.000000
421.489044	146.040000
421.582703	146.380000
421.676361	146.920000
421.769989	146.480000
421.863647	146.900000
421.957306	147.160000
422.050934	147.200000
422.144592	146.900000
422.238251	146.820000
422.331909	146.460000
422.425537	145.940000
422.519196	146.060000
422.612854	145.640000
422.706543	145.580000
422.800140	145.920000
422.893829	145.820000
422.987457	145.260000
423.081146	145.720000
423.174744	146.340000
423.268433	145.760000
423.362061	145.840000
423.455750	145.780000
423.549347	145.780000
423.643036	145.340000
423.736664	146.060000
423.830353	146.140000
423.924011	147.120000
424.017639	146.520000
424.111298	146.420000
424.204956	146.040000
424.298615	146.040000
424.392273	145.500000
424.485931	145.800000
424.579559	146.120000
424.673218	146.220000
424.766876	146.480000
424.860535	146.040000
424.954193	145.900000
425.047882	146.240000
425.141510	146.240000
425.235199	146.160000
425.328796	146.260000
425.422485	146.440000
425.516113	145.740000
425.609802	145.600000
425.703430	145.340000
425.797119	145.120000
425.890747	145.080000
425.984436	145.460000
426.078064	145.680000
426.171753	145.880000
426.265411	146.200000
426.359070	146.240000
426.452728	146.080000
426.546356	145.760000
426.640015	145.600000
426.733673	145.480000
426.827332	145.160000
426.920990	145.660000
427.014648	145.280000
427.108307	145.560000
427.201965	146.180000
427.295624	146.560000
427.389282	146.040000
427.482941	146.480000
427.576630	146.300000
427.670258	145.600000
427.763947	145.280000
427.857574	145.280000
427.951263	145.200000
428.044922	145.240000
428.138611	145.300000
428.232239	146.000000
428.325928	146.500000
428.419556	147.000000
428.513245	146.660000
428.606903	146.860000
428.700562	146.240000
428.794220	145.620000
428.887878	144.740000
428.981537	145.080000
429.075195	145.000000
429.168854	145.520000
429.262512	145.660000
429.356201	146.300000
429.449860	146.200000
429.543518	146.440000
429.637177	146.360000
429.730835	146.240000
429.824493	146.000000
429.918182	146.040000
430.011810	145.640000
430.105530	144.800000
430.199158	145.020000
430.292847	144.820000
430.386475	145.020000
430.480164	144.620000
430.573792	144.920000
430.667511	144.840000
430.761139	145.160000
430.854828	145.380000
430.948456	145.960000
431.042145	146.540000
431.135834	146.460000
431.229492	146.420000
431.323151	146.300000
431.416809	146.160000
431.510468	146.060000
431.604156	145.840000
431.697815	145.880000
431.791473	145.500000
431.885132	145.060000
431.978821	145.200000
432.072479	145.880000
432.166138	146.140000
432.259827	145.840000
432.353485	146.640000
432.447174	146.580000
432.540802	146.200000
432.634491	146.220000
432.728149	146.840000
432.821838	147.160000
432.915466	146.520000
433.009186	146.500000
433.102814	146.080000
433.196503	145.800000
433.290131	145.140000
433.383850	145.860000
433.477509	145.900000
433.571167	146.380000
433.664856	146.520000
433.758514	147.100000
433.852173	146.620000
433.945862	146.580000
434.039520	146.320000
434.133179	146.160000
434.226868	145.500000
434.320526	145.100000
434.414185	145.780000
434.507874	145.480000
434.601562	145.620000
434.695221	145.660000
434.788910	146.000000
434.882538	145.760000
434.976257	145.400000
435.069885	145.140000
435.163574	145.520000
435.257233	145.340000
435.350922	145.220000
435.444580	145.160000
435.538269	145.320000
435.631897	145.560000
435.725616	146.260000
435.819275	146.400000
435.912964	147.200000
436.006622	147.500000
436.100311	147.300000
436.193970	146.260000
436.287628	146.100000
436.381317	146.000000
436.474976	145.500000
436.568665	145.160000
436.662323	145.800000
436.756012	145.700000
436.849670	145.240000
436.943390	145.040000
437.037018	145.220000
437.130737	145.240000
437.224365	145.060000
437.318085	145.520000
437.411713	146.000000
437.505432	146.480000
437.599060	147.080000
437.692780	147.800000
437.786407	147.600000
437.880127	147.560000
437.973755	147.300000
438.067474	146.720000
438.161133	146.620000
438.254822	147.220000
438.348480	146.940000
438.442169	147.120000
438.535828	147.580000
438.629517	146.960000
438.723175	145.940000
438.816864	146.840000
438.910553	146.220000
439.004211	145.560000
439.097900	145.420000
439.191559	145.780000
439.285248	144.960000
439.378906	145.460000
439.472626	145.520000
439.566284	145.520000
439.659973	145.840000
439.753632	145.660000
439.847321	145.840000
439.940979	146.000000
440.034698	146.120000
440.128326	145.420000
440.222046	145.540000
440.315674	144.780000
440.409393	144.980000
440.503082	144.860000
440.596741	145.620000
440.690430	145.680000
440.784088	145.780000
440.877777	144.920000
440.971466	145.000000
441.065125	144.460000
441.158813	144.520000
441.252502	144.600000
441.346161	145.360000
441.439850	145.900000
441.533539	145.780000
441.627197	146.280000
441.720886	146.300000
441.814606	146.280000
441.908234	146.240000
442.001953	146.480000
442.095612	146.320000
442.189301	146.700000
442.282959	146.920000
442.376678	146.260000
442.470306	146.820000
442.564026	146.460000
442.657684	146.600000
442.751404	146.640000
442.845032	147.520000
442.938751	146.460000
443.032440	146.780000
443.126099	146.260000
443.219788	146.400000
443.313477	146.000000
443.407166	146.840000
443.500824	146.540000
443.594513	146.500000
443.688202	146.380000
443.781891	146.060000
443.875549	145.640000
443.969238	145.560000
444.062927	145.720000
444.156647	145.240000
444.250275	145.520000
444.343994	145.860000
444.437653	146.220000
444.531372	146.260000
444.625031	146.120000
444.718719	146.220000
444.812378	145.860000
444.906097	145.720000
444.999756	145.180000
445.093445	145.280000
445.187103	145.040000
445.280823	145.340000
445.374512	144.960000
445.468201	145.340000
445.561859	145.460000
445.655548	145.720000
445.749237	145.340000
445.842926	145.740000
445.936615	146.180000
446.030304	145.980000
446.123962	146.140000
446.217651	146.220000
446.311340	146.320000
446.405029	145.580000
446.498749	145.540000
446.592407	145.060000
446.686096	145.340000
446.779755	145.380000
446.873474	146.040000
446.967133	146.480000
447.060852	146.260000
447.154510	146.200000
447.248230	145.940000
447.341858	145.720000
447.435577	145.420000
447.529236	145.460000
447.622955	145.320000
447.716644	145.380000
447.810333	145.240000
447.904022	145.600000
447.997711	145.520000
448.091400	145.820000
448.185059	145.960000
448.278748	146.160000
448.372437	145.680000
448.466125	146.380000
448.559814	146.300000
448.653503	146.500000
448.747192	146.980000
448.840912	147.580000
448.934570	147.320000
449.028290	147.520000
449.121948	147.100000
449.215637	146.360000
449.309296	145.940000
449.403015	146.120000
449.496674	145.940000
449.590393	145.920000
449.684052	145.840000
449.777771	146.680000
449.871429	145.860000
449.965149	145.740000
450.058838	146.280000
450.152527	146.780000
450.246216	146.040000
450.339905	146.520000
450.433594	146.240000
450.527283	146.700000
450.620972	146.480000
450.714661	146.540000
450.808350	146.320000
450.902039	146.740000
450.995728	146.020000
451.089417	145.540000
451.183105	145.500000
451.276794	146.320000
451.370514	145.840000
451.464172	144.960000
451.557892	145.360000
451.651550	145.140000
451.745270	144.400000
451.838928	144.200000
451.932648	144.980000
452.026306	145.380000
452.120026	145.420000
452.213684	145.800000
452.307404	146.200000
452.401062	146.300000
452.494781	146.000000
452.588470	145.860000
452.682159	145.360000
452.775848	145.400000
452.869537	144.940000
452.963226	145.020000
453.056915	145.120000
453.150604	145.560000
453.244293	145.660000
453.337982	146.480000
453.431671	146.760000
453.525360	147.220000
453.619049	147.140000
453.712769	147.100000
453.806427	146.300000
453.900146	145.580000
453.993805	145.260000
454.087555	145.660000
454.181213	145.680000
454.274933	146.000000
454.368591	146.120000
454.462311	145.900000
454.555969	145.240000
454.649689	145.820000
454.743347	145.440000
454.837067	146.360000
454.930756	146.980000
455.024445	147.340000
455.118134	146.780000
455.211853	146.900000
455.305542	146.380000
455.399231	146.100000
455.492920	145.820000
455.586609	145.800000
455.680298	146.340000
455.773987	146.020000
455.867676	145.980000
455.961365	145.980000
456.055084	145.780000
456.148773	145.340000
456.242493	145.360000
456.336151	145.460000
456.429871	145.740000
456.523529	146.380000
456.617249	146.180000
456.710907	146.440000
456.804626	146.340000
456.898315	145.780000
456.992035	145.320000
457.085693	145.240000
457.179413	144.540000
457.273102	145.140000
457.366791	145.260000
457.460480	145.820000
457.554199	146.400000
457.647888	146.680000
457.741577	145.820000
457.835266	146.040000
457.928955	145.980000
458.022644	146.020000
458.116364	146.680000
458.210052	146.840000
458.303741	146.940000
458.397461	146.220000
458.491119	146.000000
458.584839	145.700000
458.678528	145.380000
458.772247	145.100000
458.865906	145.300000
458.959625	146.000000
459.053284	145.580000
459.147003	145.600000
459.240692	146.340000
459.334412	146.320000
459.428070	145.600000
459.521790	145.660000
459.615479	145.880000
459.709198	146.100000
459.802887	145.900000
459.896576	145.560000
459.990265	145.780000
460.083954	145.860000
460.177673	144.960000
460.271362	145.160000
460.365051	145.680000
460.458740	145.400000
460.552429	145.100000
460.646149	144.980000
460.739838	144.740000
460.833527	144.480000
460.927246	144.620000
461.020905	145.060000
461.114655	145.280000
461.208313	145.480000
461.302032	145.040000
461.395691	145.280000
461.489441	145.260000
461.583099	145.180000
461.676819	144.860000
461.770477	145.440000
461.864197	145.100000
461.957916	144.800000
462.051605	144.400000
462.145294	145.740000
462.238983	145.240000
462.332703	145.440000
462.426392	146.140000
462.520081	146.560000
462.613770	145.580000
462.707489	146.040000
462.801178	145.940000
462.894867	145.440000
462.988556	145.540000
463.082275	145.860000
463.175964	145.400000
463.269684	145.760000
463.363342	145.740000
463.457092	145.220000
463.550751	144.980000
463.644470	145.500000
463.738129	145.080000
463.831879	145.300000
463.925537	146.360000
464.019257	146.660000
464.112946	146.760000
464.206665	146.840000
464.300323	146.780000
464.394043	146.180000
464.487762	145.920000
464.581451	146.060000
464.675140	145.900000
464.768829	146.120000
464.862549	146.320000
464.956238	146.440000
465.049927	146.220000
465.143646	146.680000
465.237335	146.200000
465.331024	146.520000
465.424713	146.620000
465.518433	146.480000
465.612152	146.180000
465.705811	146.240000
465.799561	146.000000
465.893219	145.720000
465.986938	145.500000
466.080597	145.420000
466.174347	145.620000
466.268005	145.580000
466.361725	145.500000
466.455414	146.000000
466.549133	145.880000
466.642792	145.780000
466.736542	145.360000
466.830231	145.480000
466.923920	145.360000
467.017609	145.680000
467.111328	145.340000
467.205017	145.520000
467.298706	145.480000
467.392426	145.500000
467.486115	145.700000
467.579803	145.820000
467.673523	146.000000
467.767212	145.960000
467.860901	145.860000
467.954651	145.720000
468.048309	146.020000
468.142029	145.860000
468.235718	146.020000
468.329437	145.720000
468.423096	145.820000
468.516846	145.380000
468.610504	145.120000
468.704224	144.640000
468.797913	144.540000
468.891632	144.320000
468.985291	144.740000
469.079010	145.260000
469.172729	145.220000
469.266418	146.080000
469.360107	146.320000
469.453827	145.980000
469.547516	145.740000
469.641205	146.420000
469.734924	146.080000
469.828613	146.080000
469.922302	146.680000
470.016022	146.720000
470.109711	146.300000
470.203430	146.020000
470.297150	145.380000
470.390808	145.500000
470.484558	145.300000
470.578217	145.820000
470.671936	146.380000
470.765625	147.420000
470.859344	146.560000
470.953003	146.960000
471.046753	146.540000
471.140411	145.860000
471.234131	145.740000
471.327820	146.580000
471.421539	146.640000
471.515228	146.380000
471.608948	146.800000
471.702637	146.060000
471.796326	145.600000
471.890045	145.580000
471.983734	145.940000
472.077423	145.540000
472.171143	145.920000
472.264832	145.920000
472.358521	145.400000
472.452240	145.160000
472.545929	145.980000
472.639648	145.960000
472.733337	146.440000
472.827057	146.880000
472.920746	147.260000
473.014465	147.020000
473.108124	147.180000
473.201874	147.060000
473.295532	146.700000
473.389252	146.900000
473.482941	146.840000
473.576660	146.380000
473.670319	145.940000
473.764069	146.340000
473.857727	146.040000
473.951477	146.460000
474.045166	147.180000
474.138855	147.180000
474.232574	146.980000
474.326263	147.180000
474.419952	146.720000
474.513672	146.300000
474.607361	146.060000
474.701050	146.260000
474.794769	146.300000
474.888458	146.460000
474.982178	146.700000
475.075867	147.260000
475.169586	147.300000
475.263275	146.940000
475.356995	146.740000
475.450653	146.240000
475.544403	145.680000
475.638062	146.100000
475.731812	146.060000
475.825470	146.140000
475.919189	146.460000
476.012878	146.960000
476.106598	146.260000
476.200256	146.320000
476.294006	146.260000
476.387695	146.220000
476.481384	146.000000
476.575104	145.980000
476.668793	145.940000
476.762512	145.480000
476.856201	145.900000
476.949890	145.980000
477.043610	145.500000
477.137299	145.400000
477.230988	145.940000
477.324707	145.240000
477.418396	145.560000
477.512146	146.120000
477.605804	146.280000
477.699524	146.500000
477.793213	146.640000
477.886932	146.300000
477.980591	146.200000
478.074341	145.740000
478.167999	145.060000
478.261749	145.080000
478.355408	144.840000
478.449127	145.080000
478.542816	146.520000
478.636536	147.340000
478.730225	147.640000
478.823944	148.140000
478.917633	148.200000
479.011322	147.620000
479.105042	147.320000
479.198730	147.480000
479.292450	147.220000
479.386139	147.120000
479.479828	146.960000
479.573547	147.180000
479.667267	147.080000
479.760925	147.120000
479.854675	147.340000
479.948334	147.560000
480.042084	146.660000
480.135742	146.780000
480.229462	146.460000
480.323151	146.260000
480.416870	145.320000
480.510529	145.980000
480.604279	145.460000
480.697937	146.040000
480.791656	145.600000
480.885345	145.800000
480.979065	145.500000
481.072754	146.120000
481.166473	146.040000
481.260132	146.160000
481.353882	146.300000
481.447540	146.240000
481.541260	145.880000
481.635010	145.360000
481.728668	145.460000
481.822388	145.540000
481.916077	145.620000
482.009796	145.480000
482.103485	146.000000
482.197205	146.220000
482.290863	146.320000
482.384613	146.200000
482.478271	145.780000
482.571991	145.760000
482.665680	145.280000
482.759399	145.920000
482.853058	146.260000
482.946808	146.520000
483.040466	146.240000
483.134216	146.440000
483.227875	145.580000
483.321594	145.840000
483.415283	145.940000
483.509003	145.800000
483.602661	145.580000
483.696411	146.080000
483.790070	145.780000
483.883789	145.760000
483.977478	146.180000
484.071198	146.360000
484.164917	145.600000
484.258606	145.360000
484.352325	145.400000
484.445984	145.300000
484.539734	145.520000
484.633392	145.360000
484.727142	145.620000
484.820801	145.600000
484.914520	145.580000
485.008209	145.940000
485.101929	146.740000
485.195587	146.500000
485.289337	146.360000
485.382996	146.500000
485.476715	146.140000
485.570404	146.180000
485.664124	146.260000
485.757782	146.900000
485.851532	146.460000
485.945190	146.300000
486.038910	146.400000
486.132599	146.860000
486.226318	145.780000
486.319977	145.880000
486.413727	146.760000
486.507446	146.100000
486.601105	145.140000
486.694855	145.560000
486.788513	145.440000
486.882233	144.880000
486.975922	145.060000
487.069641	145.200000
487.163300	145.140000
487.257050	146.120000
487.350708	145.680000
487.444427	145.660000
487.538116	145.780000
487.631836	145.660000
487.725494	145.140000
487.819214	145.540000
487.912903	145.320000
488.006622	145.840000
488.100281	146.020000
488.194031	145.800000
488.287689	145.720000
488.381409	146.640000
488.475098	146.360000
488.568817	146.660000
488.662476	146.600000
488.756226	146.260000
488.849945	145.220000
488.943604	145.280000
489.037354	145.180000
489.131012	145.000000
489.224731	144.900000
489.318390	145.100000
489.412140	144.920000
489.505798	145.000000
489.599518	145.080000
489.693207	145.500000
489.786926	145.460000
489.880585	145.440000
489.974335	145.380000
490.067993	146.560000
490.161713	146.480000
490.255371	147.340000
490.349121	147.440000
490.442780	147.220000
490.536499	146.040000
490.630188	146.020000
490.723907	145.240000
490.817566	145.280000
490.911285	145.320000
491.004974	145.180000
491.098694	144.940000
491.192413	145.760000
491.286102	145.580000
491.379822	146.000000
491.473480	146.340000
491.567200	146.740000
491.660889	145.600000
491.754608	145.500000
491.848267	145.080000
491.941986	144.860000
492.035675	144.720000
492.129395	145.200000
492.223053	145.260000
492.316772	145.640000
492.410461	145.660000
492.504181	145.720000
492.597839	145.420000
492.691559	145.660000
492.785248	145.500000
492.878967	145.340000
492.972626	145.240000
493.066345	145.340000
493.160034	144.980000
493.253754	144.880000
493.347412	144.760000
493.441132	144.780000
493.534882	145.540000
493.628540	146.000000
493.722260	146.120000
493.815918	146.780000
493.909668	147.100000
494.003326	147.040000
494.097046	146.480000
494.190704	146.460000
494.284454	146.220000
494.378113	146.240000
494.471832	145.880000
494.565491	146.020000
494.659210	146.120000
494.752899	145.800000
494.846619	145.200000
494.940277	145.420000
495.033997	145.680000
495.127686	145.220000
495.221405	145.480000
495.315063	145.820000
495.408783	145.680000
495.502441	145.800000
495.596191	146.260000
495.689850	145.940000
495.783569	146.060000
495.877228	146.120000
495.970947	145.600000
496.064697	145.480000
496.158356	146.460000
496.252075	146.600000
496.345734	146.360000
496.439453	147.320000
496.533142	147.140000
496.626862	147.300000
496.720520	146.880000
496.814240	147.220000
496.907898	146.420000
497.001617	146.700000
497.095306	145.500000
497.189026	145.640000
497.282684	145.620000
497.376404	146.240000
497.470062	146.100000
497.563782	146.400000
497.657471	146.560000
497.751190	146.240000
497.844849	146.100000
497.938568	146.200000
498.032227	146.160000
498.125946	145.900000
498.219635	145.620000
498.313354	145.620000
498.407074	145.640000
498.500732	145.960000
498.594452	146.080000
498.688110	146.040000
498.781830	145.380000
498.875519	144.900000
498.969238	144.420000
499.062897	144.360000
499.156616	145.080000
499.250275	145.240000
499.343994	145.200000
499.437653	145.780000
499.531372	145.960000
499.625061	146.240000
499.718781	146.460000
499.812439	147.000000
499.906158	146.880000
499.999817	146.640000
500.093536	145.880000
500.187195	146.180000
500.280914	145.700000
500.374573	145.560000
500.468323	145.420000
500.561981	145.720000
500.655701	145.220000
500.749420	145.460000
500.843079	145.640000
500.936798	146.000000
501.030457	146.320000
501.124176	146.540000
501.217834	146.460000
501.311554	146.280000
501.405212	145.740000
501.498962	144.900000
501.592621	144.940000
501.686340	145.660000
501.779999	145.900000
501.873718	146.340000
501.967377	146.820000
502.061096	146.700000
502.154755	145.880000
502.248474	145.860000
502.342133	146.180000
502.435852	146.000000
502.529510	146.500000
502.623230	147.260000
502.716888	146.620000
502.810608	146.500000
502.904266	147.200000
502.997986	146.600000
503.091705	146.020000
503.185364	146.220000
503.279083	145.840000
503.372772	145.280000
503.466492	145.140000
503.560150	145.040000
503.653870	145.360000
503.747528	145.380000
503.841248	145.220000
503.934906	145.400000
504.028625	145.340000
504.122284	145.120000
504.216003	145.760000
504.309662	145.440000
504.403381	145.880000
504.497040	146.080000
504.590759	146.040000
504.684418	145.900000
504.778137	146.760000
504.871796	146.760000
504.965515	146.520000
505.059174	146.580000
505.152893	145.860000
505.246521	144.960000
505.340240	144.840000
505.433899	145.320000
505.527618	145.360000
505.621338	145.640000
505.714996	145.960000
505.808716	145.660000
505.902374	145.820000
505.996094	146.240000
506.089752	146.220000
506.183472	146.400000
506.277130	146.480000
506.370850	146.180000
506.464508	145.680000
506.558228	145.600000
506.651886	145.140000
506.745605	145.280000
506.839264	145.380000
506.932983	145.760000
507.026611	145.840000
507.120331	146.720000
507.213989	146.220000
507.307709	145.960000
507.401367	146.220000
507.495087	147.120000
507.588745	146.720000
507.682465	147.780000
507.776123	147.820000
507.869843	147.220000
507.963531	146.640000
508.057190	146.860000
508.150909	145.780000
508.244568	145.920000
508.338287	145.760000
508.431946	145.360000
508.525665	144.960000
508.619324	145.100000
508.713013	145.240000
508.806671	145.840000
508.900391	146.900000
508.994049	147.000000
509.087769	147.240000
509.181427	146.980000
509.275146	146.420000
509.368774	145.340000
509.462494	145.540000
509.556152	145.500000
509.649872	145.960000
509.743530	146.360000
509.837250	146.500000
509.930878	146.360000
510.024597	146.180000
510.118256	145.960000
510.211975	145.720000
510.305695	145.900000
510.399353	146.000000
510.493042	146.420000
510.586700	146.520000
510.680420	147.120000
510.774078	146.940000
510.867798	147.120000
510.961426	146.640000
511.055145	146.420000
511.148804	146.120000
511.242523	146.500000
511.336151	146.220000
511.429871	146.740000
511.523529	146.640000
511.617249	146.200000
511.710876	145.760000
511.804596	145.440000
511.898254	145.200000
511.991974	145.560000
512.085632	145.640000
512.179321	145.840000
512.272949	146.520000
512.366699	146.960000
512.460327	146.660000
512.554077	147.420000
512.647766	147.420000
512.741394	147.080000
512.835144	147.220000
512.928772	147.280000
513.022461	146.940000
513.116150	146.640000
513.209839	147.020000
513.303467	146.500000
513.397217	146.080000
513.490845	145.780000
513.584595	145.760000
513.678223	145.020000
513.771912	144.420000
513.865601	144.540000
513.959290	144.420000
514.052917	144.600000
514.146667	145.440000
514.240295	146.020000
514.333984	146.540000
514.427673	146.720000
514.521362	147.040000
514.614990	146.240000
514.708740	146.180000
514.802368	146.160000
514.896057	146.160000
514.989746	146.640000
515.083435	146.820000
515.177124	147.360000
515.270752	146.920000
515.364502	147.000000
515.458130	146.560000
515.551819	146.480000
515.645508	146.080000
515.739197	146.260000
515.832825	146.160000
515.926575	145.700000
516.020203	146.220000
516.113892	146.680000
516.207520	146.460000
516.301270	146.420000
516.394897	146.580000
516.488586	146.760000
516.582275	146.600000
516.675964	146.440000
516.769592	146.460000
516.863281	147.300000
516.956970	147.300000
517.050659	146.740000
517.144287	146.880000
517.238037	146.780000
517.331665	145.920000
517.425354	145.480000
517.519043	145.540000
517.612732	145.840000
517.706421	145.820000
517.800049	145.720000
517.893738	145.540000
517.987427	145.880000
518.081116	145.900000
518.174744	145.720000
518.268433	146.120000
518.362122	146.720000
518.455811	146.620000
518.549438	147.000000
518.643127	148.100000
518.736816	147.700000
518.830505	147.000000
518.924133	146.740000
519.017822	146.780000
519.111511	146.220000
519.205200	146.880000
519.298828	147.360000
519.392517	147.200000
519.486206	147.220000
519.579895	147.160000
519.673523	146.840000
519.767212	146.660000
519.860901	147.420000
519.954590	146.840000
520.048279	146.460000
520.141907	146.460000
520.235596	147.120000
520.329224	147.080000
520.422974	147.080000
520.516602	147.160000
520.610291	146.600000
520.703918	146.360000
520.797607	145.920000
520.891296	145.880000
520.984985	146.400000
521.078613	147.180000
521.172302	146.680000
521.265930	147.720000
521.359680	148.400000
521.453308	147.940000
521.546997	147.780000
521.640625	147.740000
521.734314	146.700000
521.827942	146.360000
521.921692	146.660000
522.015320	146.660000
522.109009	146.660000
522.202698	146.720000
522.296326	146.620000
522.390015	146.740000
522.483704	146.860000
522.577393	146.940000
522.671021	146.920000
522.764709	146.320000
522.858337	146.300000
522.952026	145.980000
523.045654	146.600000
523.139404	147.140000
523.233032	147.580000
523.326721	147.280000
523.420349	147.500000
523.514038	146.880000
523.607666	146.760000
523.701355	146.180000
523.795044	146.220000
523.888733	146.340000
523.982361	146.460000
524.076050	145.840000
524.169678	146.580000
524.263367	146.120000
524.356995	145.540000
524.450684	145.480000
524.544373	145.480000
524.638062	145.400000
524.731750	146.120000
524.825378	146.380000
524.919067	146.060000
525.012695	146.160000
525.106384	146.080000
525.200012	145.880000
525.293701	145.540000
525.387329	145.900000
525.481018	145.980000
525.574646	146.220000
525.668396	146.320000
525.762024	146.880000
525.855713	147.000000
525.949341	146.720000
526.043030	146.720000
526.136658	146.340000
526.230347	146.180000
526.323975	145.800000
526.417664	145.780000
526.511292	145.800000
526.604980	146.060000
526.698608	145.940000
526.792297	146.420000
526.885925	146.760000
526.979614	146.560000
527.073303	146.320000
527.166931	146.060000
527.260620	146.060000
527.354309	146.500000
527.447998	146.740000
527.541626	146.620000
527.635315	147.020000
527.728943	147.400000
527.822632	147.340000
527.916260	147.100000
528.009949	147.500000
528.103577	147.380000
528.197266	146.560000
528.290894	146.240000
528.384583	146.100000
528.478210	146.100000
528.571899	146.300000
528.665527	146.600000
528.759216	146.680000
528.852844	146.820000
528.946533	146.740000
529.040161	146.520000
529.133850	146.140000
529.227478	146.220000
529.321167	146.580000
529.414856	146.900000
529.508484	147.400000
529.602173	147.220000
529.695801	147.000000
529.789490	146.840000
529.883057	146.300000
529.976746	146.140000
530.070374	146.740000
530.164062	146.800000
530.257690	146.940000
530.351379	147.300000
530.445007	147.240000
530.538696	146.640000
530.632324	146.980000
530.726013	146.860000
530.819641	146.760000
530.913330	146.620000
531.006958	146.720000
531.100647	146.520000
531.194275	146.260000
531.287964	146.020000
531.381592	145.660000
531.475220	145.740000
531.568848	145.740000
531.662537	145.480000
531.756226	146.060000
531.849854	146.340000
531.943542	146.480000
532.037170	145.840000
532.130859	146.540000
532.224487	146.000000
532.318176	145.480000
532.411804	146.160000
532.505432	146.880000
532.599060	146.460000
532.692749	146.340000
532.786377	146.940000
532.880066	145.860000
532.973694	145.420000
533.067383	145.460000
533.161011	145.540000
533.254639	145.440000
533.348267	145.460000
533.441956	145.780000
533.535583	145.520000
533.629272	145.860000
533.722900	145.160000
533.816589	145.540000
533.910156	145.520000
534.003845	145.700000
534.097534	145.880000
534.191162	147.000000
534.284851	146.960000
534.378479	146.940000
534.472107	146.840000
534.565735	146.340000
534.659424	146.040000
534.753052	146.160000
534.846741	145.820000
534.940369	146.360000
535.033997	146.600000
535.127625	146.520000
535.221313	147.060000
535.314941	147.160000
535.408630	146.400000
535.502197	146.920000
535.595886	146.580000
535.689514	145.960000
535.783203	146.540000
535.876831	147.080000
535.970459	146.700000
536.064087	146.620000
536.157776	146.560000
536.251404	146.460000
536.345093	146.020000
536.438721	145.880000
536.532349	146.100000
536.626038	146.020000
536.719666	145.920000
536.813293	145.960000
536.906921	146.000000
537.000610	146.300000
537.094238	146.520000
537.187866	146.080000
537.281494	145.980000
537.375183	145.900000
537.468811	145.620000
537.562439	145.260000
537.656067	145.560000
537.749756	145.740000
537.843384	146.180000
537.937012	146.300000
538.030640	146.440000
538.124329	146.820000
538.217896	147.300000
538.311584	147.120000
538.405212	146.960000
538.498901	147.000000
538.592468	147.200000
538.686157	146.560000
538.779785	145.740000
538.873413	146.060000
538.967102	146.060000
539.060730	145.360000
539.154358	145.920000
539.247986	146.680000
539.341675	146.580000
539.435242	146.400000
539.528931	146.700000
539.622559	146.200000
539.716187	146.600000
539.809814	146.400000
539.903503	146.380000
539.997070	146.240000
540.090759	146.180000
540.184387	145.520000
540.278015	145.960000
540.371643	146.260000
540.465332	146.360000
540.558899	146.480000
540.652588	146.800000
540.746216	146.560000
540.839844	146.780000
540.933472	146.920000
541.027100	147.080000
541.120728	146.820000
541.214417	147.040000
541.308044	147.300000
541.401672	146.740000
541.495300	146.660000
541.588928	146.620000
541.682617	146.240000
541.776184	145.800000
541.869873	146.180000
541.963440	146.020000
542.057129	146.260000
542.150757	146.440000
542.244385	146.480000
542.338013	146.020000
542.431641	146.000000
542.525269	145.720000
542.618958	146.040000
542.712524	146.140000
542.806213	146.300000
542.899780	146.840000
542.993469	146.860000
543.087036	146.340000
543.180725	146.000000
543.274292	146.360000
543.367981	146.420000
543.461548	146.500000
543.555237	146.820000
543.648926	147.280000
543.742493	147.860000
543.836182	147.640000
543.929749	147.680000
544.023437	147.860000
544.117004	147.720000
544.210693	147.100000
544.304260	147.060000
544.397949	146.940000
544.491516	147.100000
544.585205	147.140000
544.678772	146.700000
544.772461	147.200000
544.866028	147.080000
544.959717	147.040000
545.053284	146.640000
545.146973	147.180000
545.240540	146.920000
545.334229	147.760000
545.427795	147.500000
545.521423	147.740000
545.615051	147.760000
545.708679	148.200000
545.802307	147.680000
545.895935	148.060000
545.989624	148.960000
546.083191	148.960000
546.176880	148.340000
546.270447	147.760000
546.364136	147.860000
546.457703	146.960000
546.551331	146.940000
546.644958	147.060000
546.738586	147.820000
546.832214	147.300000
546.925842	147.200000
547.019409	147.140000
547.113098	146.640000
547.206665	146.180000
547.300354	146.240000
547.393921	146.460000
547.487549	146.660000
547.581177	146.620000
547.674805	146.760000
547.768433	146.320000
547.862061	146.460000
547.955627	145.780000
548.049316	146.320000
548.142883	146.380000
548.236572	146.600000
548.330139	146.620000
548.423767	146.600000
548.517456	146.320000
548.611023	146.860000
548.704651	146.280000
548.798279	146.120000
548.891907	146.520000
548.985474	146.520000
549.079163	145.980000
549.172729	146.020000
549.266357	145.400000
549.359985	145.400000
549.453613	144.920000
549.547180	144.780000
549.640869	145.380000
549.734436	145.520000
549.828064	145.860000
549.921631	145.980000
550.015320	145.900000
550.108887	146.200000
550.202515	146.540000
550.296143	146.020000
550.389771	146.520000
550.483337	146.780000
550.576965	146.580000
550.670593	146.720000
550.764221	146.720000
550.857849	146.280000
550.951477	145.820000
551.045105	145.340000
551.138672	145.280000
551.232300	145.280000
551.325928	145.680000
551.419556	146.120000
551.513123	146.240000
551.606750	146.060000
551.700378	146.260000
551.794006	146.080000
551.887573	145.840000
551.981201	146.140000
552.074768	146.040000
552.168457	145.440000
552.262024	146.400000
552.355652	146.180000
552.449219	146.720000
552.542847	146.940000
552.636475	146.940000
552.730103	145.980000
552.823669	146.060000
552.917297	145.240000
553.010864	145.140000
553.104553	145.640000
553.198181	145.180000
553.291748	145.440000
553.385376	145.660000
553.478943	145.340000
553.572571	145.300000
553.666199	145.780000
553.759827	145.580000
553.853394	145.200000
553.947021	145.640000
554.040588	145.680000
554.134216	145.920000
554.227783	146.660000
554.321411	147.600000
554.415039	147.240000
554.508667	147.180000
554.602234	147.240000
554.695862	146.460000
554.789429	146.160000
554.883057	146.420000
554.976624	146.440000
555.070251	145.920000
555.163818	146.020000
555.257507	145.720000
555.351074	145.760000
555.444702	146.860000
555.538330	147.080000
555.631897	147.480000
555.725525	147.360000
555.819092	147.080000
555.912720	145.580000
556.006287	146.200000
556.099915	145.740000
556.193481	145.840000
556.287109	146.280000
556.380676	146.420000
556.474304	145.900000
556.567871	146.340000
556.661499	145.800000
556.755066	145.800000
556.848694	146.020000
556.942261	146.140000
557.035889	146.200000
557.129517	146.780000
557.223145	146.740000
557.316711	146.720000
557.410339	146.920000
557.503906	146.600000
557.597473	147.020000
557.691040	147.060000
557.784668	147.140000
557.878296	146.840000
557.971863	147.040000
558.065491	146.860000
558.159058	146.400000
558.252686	146.860000
558.346252	147.200000
558.439880	146.660000
558.533447	146.200000
558.627075	145.860000
558.720642	145.060000
558.814270	144.600000
558.907837	145.040000
559.001465	144.980000
559.095032	145.880000
559.188660	146.100000
559.282227	145.800000
559.375854	146.240000
559.469360	146.100000
559.562988	146.200000
559.656555	146.240000
559.750183	146.520000
559.843750	146.540000
559.937378	146.620000
560.030945	146.140000
560.124573	0.000000
560.218140	0.000000
560.311707	0.000000
560.405334	0.000000
560.498901	0.000000
560.592529	0.000000
560.686096	0.000000
560.779724	0.000000
560.873291	0.000000
560.966858	0.000000
561.060425	0.000000
561.154053	0.000000
561.247620	0.000000
561.341248	0.000000
561.434814	0.000000
561.528381	0.000000
561.621948	0.000000
561.715576	0.000000
561.809143	0.000000
561.902771	0.000000
561.996277	0.000000
562.089905	0.000000
562.183472	0.000000
562.277100	0.000000
