Model Number: SPM-002-B   
Serial Number: 70087108
Firmware Version: 004.15.4
Exposure Time: 100000.000000us
Data Taken on: 11-12-2020 19:29:46.042
Wavelength	Amplitude
221.570786	0.000000
221.663406	0.000000
221.756027	0.000000
221.848648	0.000000
221.941269	0.000000
222.033905	0.000000
222.126526	0.000000
222.219162	0.000000
222.311798	0.000000
222.404419	0.000000
222.497055	0.000000
222.589676	0.000000
222.682312	0.000000
222.774933	0.000000
222.867569	0.000000
222.960205	0.000000
223.052841	0.000000
223.145462	0.000000
223.238098	0.000000
223.330734	0.000000
223.423386	0.000000
223.516022	0.000000
223.608658	0.000000
223.701309	0.000000
223.793945	0.000000
223.886581	0.000000
223.979218	0.000000
224.071869	0.000000
224.164505	0.000000
224.257156	0.000000
224.349792	0.000000
224.442444	0.000000
224.535095	0.000000
224.627747	0.000000
224.720398	0.000000
224.813034	0.000000
224.905685	0.000000
224.998337	145.500000
225.090988	145.200000
225.183640	145.380000
225.276291	145.140000
225.368942	145.720000
225.461594	146.480000
225.554245	146.860000
225.646912	146.860000
225.739578	147.320000
225.832230	147.440000
225.924896	146.640000
226.017548	146.880000
226.110199	147.280000
226.202866	146.620000
226.295532	146.320000
226.388184	146.400000
226.480850	146.040000
226.573517	145.640000
226.666168	146.240000
226.758835	146.480000
226.851501	146.740000
226.944183	146.640000
227.036850	146.120000
227.129517	145.860000
227.222183	145.940000
227.314850	145.640000
227.407516	145.940000
227.500198	146.560000
227.592865	146.700000
227.685532	146.280000
227.778214	146.080000
227.870880	146.360000
227.963562	147.120000
228.056229	147.240000
228.148926	147.340000
228.241592	148.260000
228.334274	147.860000
228.426956	147.120000
228.519638	146.980000
228.612305	146.540000
228.704987	146.560000
228.797668	146.620000
228.890350	146.420000
228.983032	146.040000
229.075714	147.120000
229.168396	146.500000
229.261108	146.180000
229.353790	146.260000
229.446472	146.480000
229.539169	145.900000
229.631851	145.540000
229.724533	145.800000
229.817230	145.800000
229.909912	146.580000
230.002609	146.660000
230.095306	147.060000
230.187988	146.900000
230.280685	146.880000
230.373383	145.980000
230.466095	146.000000
230.558792	146.240000
230.651474	146.180000
230.744171	146.340000
230.836868	146.060000
230.929581	146.280000
231.022278	146.300000
231.114975	146.640000
231.207672	146.500000
231.300369	147.340000
231.393082	147.400000
231.485779	147.020000
231.578506	146.680000
231.671204	146.520000
231.763916	146.000000
231.856613	145.640000
231.949326	145.940000
232.042023	146.060000
232.134735	146.140000
232.227448	146.020000
232.320160	146.380000
232.412872	146.260000
232.505585	146.700000
232.598297	147.040000
232.691010	147.260000
232.783722	146.660000
232.876450	147.240000
232.969162	146.660000
233.061874	146.140000
233.154587	145.940000
233.247314	146.360000
233.340027	145.700000
233.432739	146.300000
233.525467	146.300000
233.618179	146.380000
233.710907	146.300000
233.803635	146.840000
233.896347	146.540000
233.989090	147.500000
234.081818	147.520000
234.174545	147.400000
234.267258	146.740000
234.359985	146.940000
234.452713	146.200000
234.545441	146.120000
234.638168	146.120000
234.730896	146.680000
234.823639	146.620000
234.916367	147.040000
235.009094	147.160000
235.101822	147.140000
235.194580	146.940000
235.287308	146.640000
235.380051	146.180000
235.472778	146.400000
235.565521	146.800000
235.658249	146.400000
235.750992	146.600000
235.843719	146.440000
235.936462	146.440000
236.029205	146.000000
236.121948	145.880000
236.214691	146.140000
236.307449	147.040000
236.400192	146.820000
236.492935	146.420000
236.585678	146.840000
236.678421	146.700000
236.771164	146.360000
236.863907	146.820000
236.956665	147.420000
237.049408	148.860000
237.142151	148.400000
237.234909	148.900000
237.327652	148.660000
237.420410	148.220000
237.513153	147.120000
237.605927	147.280000
237.698669	146.620000
237.791428	145.980000
237.884186	146.520000
237.976944	146.000000
238.069702	146.580000
238.162445	146.220000
238.255203	146.720000
238.347961	146.940000
238.440720	146.880000
238.533478	146.320000
238.626266	146.200000
238.719025	146.200000
238.811783	145.760000
238.904541	145.880000
238.997314	145.820000
239.090073	145.760000
239.182831	145.920000
239.275604	146.720000
239.368362	146.580000
239.461136	146.580000
239.553909	146.360000
239.646667	146.320000
239.739441	145.920000
239.832214	146.320000
239.925003	146.680000
240.017761	147.520000
240.110535	147.780000
240.203308	147.140000
240.296082	146.880000
240.388855	146.540000
240.481628	146.400000
240.574417	146.300000
240.667191	146.680000
240.759964	146.700000
240.852737	146.680000
240.945526	146.620000
241.038315	146.440000
241.131088	146.360000
241.223877	146.180000
241.316650	146.140000
241.409439	146.200000
241.502228	145.800000
241.595001	146.120000
241.687790	146.120000
241.780579	146.120000
241.873367	146.500000
241.966141	146.920000
242.058929	146.360000
242.151718	146.560000
242.244507	146.840000
242.337311	145.860000
242.430099	146.140000
242.522903	146.420000
242.615692	146.300000
242.708481	146.280000
242.801270	146.860000
242.894073	146.800000
242.986862	146.920000
243.079651	147.340000
243.172455	146.980000
243.265244	146.800000
243.358063	146.300000
243.450867	146.580000
243.543655	146.180000
243.636459	146.420000
243.729263	146.760000
243.822067	147.280000
243.914856	147.300000
244.007660	147.480000
244.100464	147.460000
244.193268	147.160000
244.286072	146.900000
244.378876	146.120000
244.471680	145.800000
244.564499	146.080000
244.657318	146.560000
244.750122	146.600000
244.842926	146.300000
244.935745	146.760000
245.028549	146.400000
245.121368	146.140000
245.214172	145.940000
245.306992	146.560000
245.399796	146.240000
245.492615	146.580000
245.585434	146.480000
245.678253	146.580000
245.771072	146.560000
245.863892	146.800000
245.956711	146.960000
246.049530	146.960000
246.142349	146.900000
246.235168	146.900000
246.327988	147.300000
246.420807	146.760000
246.513626	146.780000
246.606445	146.500000
246.699280	146.400000
246.792099	145.640000
246.884918	145.480000
246.977753	145.160000
247.070587	145.340000
247.163422	145.420000
247.256241	145.800000
247.349075	146.360000
247.441895	146.280000
247.534729	146.380000
247.627563	146.200000
247.720383	146.720000
247.813217	146.240000
247.906052	146.280000
247.998886	146.500000
248.091736	146.520000
248.184570	145.940000
248.277405	146.280000
248.370239	147.260000
248.463074	147.860000
248.555908	148.280000
248.648743	148.160000
248.741592	148.100000
248.834427	147.360000
248.927261	146.120000
249.020111	146.280000
249.112946	147.200000
249.205795	146.720000
249.298630	146.700000
249.391495	146.960000
249.484344	146.300000
249.577179	145.680000
249.670029	146.360000
249.762878	147.060000
249.855728	147.360000
249.948563	147.500000
250.041412	146.900000
250.134262	146.540000
250.227112	145.960000
250.319962	145.800000
250.412827	145.860000
250.505692	145.840000
250.598541	145.880000
250.691391	145.720000
250.784241	145.860000
250.877106	145.860000
250.969955	145.620000
251.062805	146.160000
251.155670	146.720000
251.248520	146.560000
251.341385	147.020000
251.434235	147.200000
251.527100	146.840000
251.619965	146.340000
251.712814	146.800000
251.805695	146.420000
251.898560	146.920000
251.991425	147.020000
252.084290	147.440000
252.177155	146.800000
252.270020	146.780000
252.362885	146.680000
252.455750	146.740000
252.548615	146.240000
252.641479	146.480000
252.734360	146.400000
252.827240	146.280000
252.920105	146.300000
253.012970	146.240000
253.105850	146.020000
253.198715	145.980000
253.291595	146.000000
253.384460	145.600000
253.477341	145.640000
253.570221	146.260000
253.663086	145.960000
253.755966	146.480000
253.848846	146.500000
253.941727	146.900000
254.034592	146.640000
254.127472	146.440000
254.220367	146.380000
254.313248	146.300000
254.406128	145.980000
254.499008	146.060000
254.591904	147.040000
254.684784	147.200000
254.777664	147.380000
254.870544	147.280000
254.963440	147.200000
255.056335	147.160000
255.149216	146.940000
255.242111	147.520000
255.334991	147.720000
255.427887	147.880000
255.520767	147.680000
255.613663	147.380000
255.706558	146.680000
255.799438	146.640000
255.892334	146.300000
255.985229	146.200000
256.078125	146.460000
256.171021	146.600000
256.263916	146.920000
256.356812	147.060000
256.449707	147.100000
256.542603	146.640000
256.635498	147.380000
256.728394	147.180000
256.821289	146.760000
256.914215	147.000000
257.007080	147.360000
257.100006	147.060000
257.192932	147.280000
257.285828	147.640000
257.378723	147.600000
257.471619	147.500000
257.564545	146.840000
257.657440	146.660000
257.750336	147.280000
257.843262	146.960000
257.936157	148.040000
258.029053	148.480000
258.121979	148.580000
258.214874	147.920000
258.307800	147.840000
258.400696	146.720000
258.493622	146.660000
258.586517	146.280000
258.679443	146.640000
258.772339	146.140000
258.865265	145.980000
258.958160	145.160000
259.051086	145.940000
259.144012	145.640000
259.236938	146.660000
259.329834	147.040000
259.422791	147.440000
259.515717	146.460000
259.608612	146.560000
259.701538	146.460000
259.794464	145.880000
259.887390	145.940000
259.980316	146.080000
260.073212	145.540000
260.166138	144.580000
260.259064	145.300000
260.351990	145.780000
260.444916	145.920000
260.537842	146.420000
260.630768	147.140000
260.723694	146.720000
260.816620	146.600000
260.909546	146.520000
261.002472	146.100000
261.095398	145.600000
261.188354	145.540000
261.281281	145.280000
261.374207	145.420000
261.467133	146.480000
261.560089	147.060000
261.653015	147.360000
261.745972	147.860000
261.838867	148.140000
261.931824	147.740000
262.024780	147.320000
262.117706	147.560000
262.210663	147.600000
262.303589	147.180000
262.396515	147.260000
262.489471	148.120000
262.582397	147.540000
262.675354	146.920000
262.768280	147.240000
262.861237	147.360000
262.954163	146.940000
263.047119	146.960000
263.140045	146.760000
263.233002	146.540000
263.325958	145.960000
263.418884	145.120000
263.511841	145.260000
263.604797	145.640000
263.697723	145.480000
263.790680	145.380000
263.883636	146.180000
263.976593	146.120000
264.069550	146.060000
264.162476	146.180000
264.255463	146.440000
264.348419	146.140000
264.441376	146.320000
264.534332	145.860000
264.627289	145.840000
264.720245	146.260000
264.813202	146.060000
264.906158	146.340000
264.999115	147.340000
265.092072	147.320000
265.185028	147.500000
265.277985	147.740000
265.370941	147.320000
265.463898	146.620000
265.556854	146.340000
265.649811	145.160000
265.742798	145.180000
265.835754	145.400000
265.928711	145.840000
266.021667	146.060000
266.114655	146.500000
266.207611	146.880000
266.300568	146.240000
266.393585	145.900000
266.486511	146.200000
266.579498	145.640000
266.672485	145.440000
266.765442	145.700000
266.858429	146.040000
266.951385	145.640000
267.044342	146.080000
267.137329	145.920000
267.230316	146.320000
267.323273	146.080000
267.416260	146.660000
267.509216	146.440000
267.602203	146.520000
267.695160	146.760000
267.788147	146.900000
267.881134	146.120000
267.974091	146.700000
268.067078	146.420000
268.160065	146.100000
268.253052	145.620000
268.346008	146.000000
268.438995	145.600000
268.531982	145.860000
268.624969	145.560000
268.717987	146.260000
268.810944	146.160000
268.903961	146.460000
268.996948	145.940000
269.089905	146.500000
269.182892	146.300000
269.275879	146.580000
269.368866	145.980000
269.461853	146.720000
269.554871	146.600000
269.647858	146.500000
269.740845	146.680000
269.833832	147.240000
269.926819	146.660000
270.019806	146.480000
270.112793	146.060000
270.205811	145.900000
270.298798	145.820000
270.391785	146.440000
270.484772	146.140000
270.577789	146.340000
270.670776	145.760000
270.763763	145.820000
270.856750	145.920000
270.949768	145.980000
271.042786	146.380000
271.135773	146.780000
271.228790	146.880000
271.321808	146.380000
271.414795	146.060000
271.507782	145.800000
271.600800	145.140000
271.693817	145.080000
271.786804	145.680000
271.879822	146.180000
271.972809	146.200000
272.065826	147.220000
272.158844	146.860000
272.251831	147.000000
272.344849	146.920000
272.437866	146.600000
272.530853	146.300000
272.623871	146.820000
272.716888	145.700000
272.809906	146.000000
272.902893	145.960000
272.995911	145.620000
273.088928	145.300000
273.181946	145.720000
273.274963	145.280000
273.367981	145.480000
273.460999	145.460000
273.554047	146.100000
273.647003	146.740000
273.740051	146.800000
273.833069	147.080000
273.926086	147.420000
274.019135	146.700000
274.112152	146.320000
274.205170	146.440000
274.298187	146.720000
274.391205	146.540000
274.484222	146.760000
274.577240	146.680000
274.670258	146.580000
274.763306	146.180000
274.856323	146.400000
274.949341	146.520000
275.042358	147.140000
275.135406	147.100000
275.228424	147.120000
275.321442	147.260000
275.414490	146.840000
275.507507	146.700000
275.600525	147.200000
275.693573	146.880000
275.786591	146.620000
275.879669	146.920000
275.972656	146.300000
276.065735	146.060000
276.158752	146.860000
276.251801	147.540000
276.344818	147.500000
276.437866	147.720000
276.530884	147.220000
276.623932	146.180000
276.716980	145.800000
276.809998	145.860000
276.903046	145.820000
276.996094	146.960000
277.089111	147.780000
277.182159	148.060000
277.275208	147.680000
277.368256	147.560000
277.461304	147.040000
277.554321	146.240000
277.647369	146.220000
277.740417	146.360000
277.833466	146.360000
277.926514	146.060000
278.019562	146.880000
278.112610	146.240000
278.205688	146.400000
278.298706	146.280000
278.391785	146.360000
278.484833	145.700000
278.577881	145.740000
278.670929	146.060000
278.763977	146.360000
278.857025	146.820000
278.950073	146.960000
279.043121	146.880000
279.136169	146.620000
279.229248	146.460000
279.322296	146.160000
279.415344	145.900000
279.508392	145.880000
279.601440	145.860000
279.694519	145.760000
279.787567	145.640000
279.880615	145.800000
279.973694	145.980000
280.066742	146.080000
280.159790	146.260000
280.252869	145.820000
280.345917	146.180000
280.438995	146.260000
280.532074	145.840000
280.625122	146.020000
280.718201	147.140000
280.811279	146.660000
280.904327	146.780000
280.997406	147.180000
281.090454	147.100000
281.183533	146.340000
281.276581	146.560000
281.369659	145.940000
281.462738	145.840000
281.555786	146.100000
281.648865	146.220000
281.741943	146.220000
281.835022	147.060000
281.928070	146.880000
282.021149	146.340000
282.114227	146.340000
282.207306	146.400000
282.300385	146.400000
282.393433	146.720000
282.486511	146.980000
282.579590	147.140000
282.672668	147.340000
282.765747	146.680000
282.858856	146.460000
282.951904	146.380000
283.045013	146.520000
283.138062	146.540000
283.231171	146.980000
283.324249	147.380000
283.417328	147.580000
283.510406	147.260000
283.603485	147.180000
283.696564	146.940000
283.789642	146.660000
283.882751	146.340000
283.975830	146.820000
284.068909	146.620000
284.161987	147.340000
284.255066	147.060000
284.348175	147.300000
284.441254	146.780000
284.534332	147.040000
284.627441	146.220000
284.720520	145.800000
284.813599	145.800000
284.906708	146.060000
284.999786	145.500000
285.092896	145.640000
285.185974	146.780000
285.279053	146.180000
285.372192	146.180000
285.465240	146.920000
285.558380	146.680000
285.651459	146.160000
285.744568	146.900000
285.837677	146.460000
285.930756	146.120000
286.023865	146.220000
286.116943	146.120000
286.210052	146.180000
286.303162	146.140000
286.396240	146.220000
286.489349	146.140000
286.582458	146.340000
286.675568	146.000000
286.768646	146.280000
286.861755	146.440000
286.954865	146.980000
287.047974	146.740000
287.141083	146.480000
287.234161	146.400000
287.327271	146.060000
287.420380	146.180000
287.513519	146.040000
287.606598	146.380000
287.699738	146.680000
287.792816	146.880000
287.885956	146.540000
287.979034	146.560000
288.072174	146.540000
288.165283	146.140000
288.258392	146.140000
288.351501	145.840000
288.444611	146.140000
288.537720	146.260000
288.630859	146.200000
288.723969	146.220000
288.817078	146.520000
288.910187	146.320000
289.003296	145.540000
289.096436	145.400000
289.189545	145.000000
289.282654	144.440000
289.375763	144.800000
289.468903	145.740000
289.562012	146.000000
289.655121	146.260000
289.748260	146.840000
289.841400	147.000000
289.934509	146.500000
290.027649	146.880000
290.120728	146.980000
290.213898	146.960000
290.306976	146.420000
290.400146	147.100000
290.493256	146.340000
290.586395	146.600000
290.679535	146.820000
290.772644	146.980000
290.865784	146.020000
290.958893	146.300000
291.052032	145.920000
291.145172	145.760000
291.238281	145.220000
291.331421	145.480000
291.424561	145.980000
291.517670	145.780000
291.610809	145.940000
291.703949	146.340000
291.797089	146.700000
291.890228	145.960000
291.983337	146.240000
292.076477	145.820000
292.169617	146.060000
292.262756	145.620000
292.355927	146.060000
292.449036	145.680000
292.542206	145.760000
292.635315	145.960000
292.728485	146.560000
292.821625	146.020000
292.914764	147.300000
293.007904	147.480000
293.101044	147.200000
293.194183	146.860000
293.287323	147.360000
293.380463	146.440000
293.473602	146.160000
293.566742	146.400000
293.659882	146.800000
293.753021	146.800000
293.846191	146.600000
293.939331	146.260000
294.032471	145.840000
294.125610	145.360000
294.218781	145.880000
294.311920	146.680000
294.405060	147.300000
294.498230	147.280000
294.591370	147.380000
294.684540	146.340000
294.777679	145.500000
294.870850	145.620000
294.963959	145.900000
295.057159	146.040000
295.150299	146.600000
295.243469	146.940000
295.336609	146.320000
295.429779	146.380000
295.522919	146.460000
295.616089	146.380000
295.709229	146.780000
295.802399	147.180000
295.895569	146.780000
295.988708	146.960000
296.081879	147.000000
296.175018	146.160000
296.268188	146.340000
296.361359	146.880000
296.454529	146.720000
296.547668	146.760000
296.640839	147.500000
296.734009	147.100000
296.827179	147.140000
296.920319	147.500000
297.013519	147.160000
297.106659	147.080000
297.199860	147.100000
297.292999	146.860000
297.386200	146.400000
297.479309	146.640000
297.572510	146.320000
297.665680	146.240000
297.758850	146.300000
297.852020	146.040000
297.945190	145.780000
298.038361	145.940000
298.131531	146.940000
298.224701	146.900000
298.317871	146.620000
298.411072	146.400000
298.504242	145.960000
298.597412	144.980000
298.690582	145.160000
298.783752	145.760000
298.876923	146.240000
298.970093	146.440000
299.063293	146.860000
299.156464	147.020000
299.249634	147.120000
299.342834	147.240000
299.436005	147.500000
299.529205	147.480000
299.622345	147.180000
299.715576	146.280000
299.808716	145.920000
299.901917	145.880000
299.995117	145.900000
300.088287	146.220000
300.181488	146.400000
300.274658	146.360000
300.367828	146.480000
300.461029	146.440000
300.554199	146.440000
300.647400	146.760000
300.740601	147.380000
300.833771	146.960000
300.926971	147.140000
301.020142	146.280000
301.113342	146.360000
301.206512	146.020000
301.299713	146.520000
301.392914	146.400000
301.486084	146.880000
301.579285	146.660000
301.672516	146.920000
301.765686	146.780000
301.858887	146.940000
301.952057	146.820000
302.045288	146.900000
302.138458	146.820000
302.231659	146.280000
302.324860	146.080000
302.418060	145.840000
302.511261	145.820000
302.604462	145.900000
302.697662	145.920000
302.790863	145.820000
302.884064	145.640000
302.977264	145.920000
303.070465	145.880000
303.163666	146.860000
303.256866	147.120000
303.350067	147.500000
303.443268	146.980000
303.536469	147.420000
303.629669	146.600000
303.722870	146.620000
303.816071	146.340000
303.909271	146.380000
304.002472	145.220000
304.095673	145.160000
304.188934	144.200000
304.282104	145.320000
304.375336	145.480000
304.468506	145.860000
304.561768	145.740000
304.654968	146.540000
304.748169	145.700000
304.841370	145.500000
304.934601	145.960000
305.027802	146.120000
305.121002	145.920000
305.214233	146.200000
305.307434	146.500000
305.400665	146.740000
305.493866	146.660000
305.587097	146.800000
305.680298	146.500000
305.773499	146.860000
305.866730	146.440000
305.959930	147.100000
306.053162	147.480000
306.146393	147.060000
306.239594	146.120000
306.332825	146.080000
306.426025	146.160000
306.519287	145.540000
306.612488	146.040000
306.705719	146.400000
306.798920	146.280000
306.892181	145.560000
306.985352	145.140000
307.078613	144.620000
307.171844	144.900000
307.265045	144.620000
307.358276	144.540000
307.451508	145.320000
307.544739	146.160000
307.637970	145.900000
307.731201	146.020000
307.824402	146.700000
307.917633	146.880000
308.010864	147.200000
308.104095	147.740000
308.197327	148.120000
308.290558	147.860000
308.383789	146.920000
308.477020	146.180000
308.570251	145.500000
308.663483	144.880000
308.756714	144.960000
308.849976	145.200000
308.943176	146.020000
309.036438	146.200000
309.129639	146.120000
309.222900	145.820000
309.316101	145.900000
309.409393	145.100000
309.502625	144.720000
309.595856	145.120000
309.689087	145.320000
309.782318	145.460000
309.875580	145.400000
309.968811	145.960000
310.062042	145.660000
310.155273	145.440000
310.248535	145.900000
310.341766	146.160000
310.434998	146.020000
310.528259	146.000000
310.621490	146.600000
310.714722	145.880000
310.807983	146.100000
310.901215	145.860000
310.994476	146.400000
311.087708	145.600000
311.181000	145.920000
311.274200	145.180000
311.367462	145.700000
311.460693	145.240000
311.553986	146.180000
311.647186	146.580000
311.740479	147.380000
311.833710	146.700000
311.926971	146.500000
312.020203	145.660000
312.113464	145.400000
312.206726	144.780000
312.299957	145.360000
312.393219	146.120000
312.486481	146.480000
312.579712	146.100000
312.672974	146.220000
312.766235	146.000000
312.859497	145.780000
312.952759	145.500000
313.045990	146.500000
313.139252	146.280000
313.232513	146.780000
313.325775	147.140000
313.419037	146.760000
313.512299	145.880000
313.605530	146.480000
313.698822	145.960000
313.792053	145.600000
313.885345	145.660000
313.978577	145.900000
314.071869	145.160000
314.165131	145.540000
314.258392	145.780000
314.351654	146.160000
314.444916	145.440000
314.538177	146.540000
314.631439	146.640000
314.724701	146.460000
314.817993	146.260000
314.911255	146.700000
315.004517	146.000000
315.097778	145.760000
315.191040	146.120000
315.284302	146.600000
315.377594	146.720000
315.470856	146.440000
315.564117	145.920000
315.657379	145.220000
315.750671	144.840000
315.843933	145.200000
315.937195	145.020000
316.030518	145.140000
316.123749	145.480000
316.217041	146.100000
316.310303	145.880000
316.403595	146.620000
316.496857	146.920000
316.590149	147.340000
316.683411	146.760000
316.776703	146.560000
316.869965	146.300000
316.963257	146.120000
317.056519	145.200000
317.149811	145.020000
317.243073	144.940000
317.336365	144.980000
317.429626	145.240000
317.522919	145.980000
317.616180	146.160000
317.709473	146.400000
317.802765	146.420000
317.896027	146.400000
317.989319	146.540000
318.082611	146.420000
318.175873	145.900000
318.269165	145.780000
318.362488	145.600000
318.455750	144.980000
318.549042	145.640000
318.642303	146.340000
318.735626	146.320000
318.828888	146.620000
318.922211	146.860000
319.015472	147.180000
319.108765	146.700000
319.202057	146.320000
319.295349	146.440000
319.388641	146.140000
319.481934	145.620000
319.575226	145.760000
319.668518	146.420000
319.761810	146.480000
319.855103	146.860000
319.948395	146.880000
320.041687	147.040000
320.134979	146.960000
320.228271	146.460000
320.321564	146.000000
320.414856	145.780000
320.508148	145.320000
320.601440	145.040000
320.694763	145.340000
320.788025	146.260000
320.881348	146.400000
320.974640	146.760000
321.067963	146.360000
321.161224	146.320000
321.254547	145.360000
321.347839	145.860000
321.441162	145.580000
321.534454	145.980000
321.627747	145.760000
321.721069	146.680000
321.814362	146.700000
321.907654	146.800000
322.000946	146.840000
322.094269	147.580000
322.187561	146.860000
322.280884	146.900000
322.374176	146.820000
322.467468	147.260000
322.560791	146.700000
322.654083	147.380000
322.747406	146.940000
322.840698	147.480000
322.934021	147.420000
323.027344	147.700000
323.120636	147.120000
323.213959	147.140000
323.307251	146.460000
323.400574	146.380000
323.493866	145.840000
323.587219	146.100000
323.680511	146.520000
323.773834	146.920000
323.867157	146.880000
323.960449	147.240000
324.053772	146.940000
324.147095	146.640000
324.240387	146.900000
324.333710	146.580000
324.427032	146.400000
324.520355	146.520000
324.613647	145.980000
324.706970	145.440000
324.800293	145.520000
324.893616	145.880000
324.986938	145.900000
325.080231	145.880000
325.173553	146.380000
325.266876	146.700000
325.360199	146.460000
325.453522	146.100000
325.546875	146.280000
325.640167	146.420000
325.733521	146.520000
325.826813	146.840000
325.920166	146.680000
326.013489	146.540000
326.106812	145.480000
326.200134	145.040000
326.293457	144.120000
326.386780	144.460000
326.480103	144.300000
326.573425	144.760000
326.666748	145.000000
326.760071	146.020000
326.853424	146.220000
326.946747	146.380000
327.040070	147.220000
327.133392	146.780000
327.226715	146.000000
327.320068	145.480000
327.413391	146.100000
327.506714	145.140000
327.600037	145.400000
327.693390	145.600000
327.786713	146.240000
327.880066	146.200000
327.973358	146.460000
328.066742	147.100000
328.160034	147.400000
328.253418	147.380000
328.346710	146.740000
328.440063	146.640000
328.533417	146.060000
328.626740	146.280000
328.720093	146.060000
328.813416	146.200000
328.906769	146.360000
329.000092	146.580000
329.093445	146.060000
329.186768	145.880000
329.280121	146.420000
329.373444	146.560000
329.466797	146.560000
329.560120	146.960000
329.653473	147.160000
329.746796	146.760000
329.840149	146.660000
329.933502	146.440000
330.026825	146.060000
330.120178	145.800000
330.213562	145.620000
330.306854	145.580000
330.400238	145.520000
330.493561	145.340000
330.586945	146.160000
330.680237	146.580000
330.773621	146.660000
330.866974	146.600000
330.960327	146.760000
331.053680	146.340000
331.147003	146.540000
331.240356	146.780000
331.333710	147.120000
331.427063	147.080000
331.520416	147.080000
331.613770	146.420000
331.707123	146.340000
331.800476	146.500000
331.893829	147.260000
331.987152	147.380000
332.080505	147.440000
332.173859	147.040000
332.267212	146.540000
332.360565	146.160000
332.453918	145.720000
332.547333	145.980000
332.640656	146.220000
332.734039	146.220000
332.827362	146.040000
332.920746	146.600000
333.014069	146.560000
333.107452	146.880000
333.200806	147.180000
333.294159	147.120000
333.387543	146.780000
333.480896	146.400000
333.574249	145.860000
333.667603	145.400000
333.760956	145.540000
333.854340	145.340000
333.947693	145.540000
334.041046	145.880000
334.134430	146.300000
334.227783	145.880000
334.321136	145.860000
334.414520	145.720000
334.507874	145.820000
334.601227	145.740000
334.694611	145.640000
334.787964	145.620000
334.881348	145.820000
334.974701	145.620000
335.068085	145.300000
335.161438	145.760000
335.254822	145.480000
335.348175	145.660000
335.441559	145.280000
335.534943	145.980000
335.628296	146.100000
335.721680	146.620000
335.815033	146.360000
335.908417	146.980000
336.001770	146.720000
336.095154	146.160000
336.188538	145.740000
336.281891	145.500000
336.375275	144.760000
336.468658	144.520000
336.562012	144.880000
336.655396	145.440000
336.748779	146.000000
336.842133	146.640000
336.935516	146.860000
337.028900	146.300000
337.122284	145.740000
337.215637	145.820000
337.309021	145.500000
337.402435	145.140000
337.495789	145.600000
337.589203	145.860000
337.682526	145.740000
337.775940	145.960000
337.869324	146.220000
337.962708	146.140000
338.056091	146.520000
338.149475	146.120000
338.242859	146.200000
338.336243	145.940000
338.429626	146.020000
338.523010	145.760000
338.616394	145.680000
338.709778	145.760000
338.803162	146.160000
338.896545	146.320000
338.989929	146.060000
339.083313	146.440000
339.176697	145.820000
339.270081	145.680000
339.363464	145.860000
339.456848	146.280000
339.550232	145.860000
339.643616	145.820000
339.737030	145.800000
339.830383	145.380000
339.923828	145.300000
340.017181	145.500000
340.110596	145.880000
340.203949	145.820000
340.297363	145.720000
340.390778	145.760000
340.484161	145.860000
340.577545	145.920000
340.670959	145.960000
340.764343	146.020000
340.857727	145.900000
340.951111	145.280000
341.044525	145.480000
341.137909	145.020000
341.231293	144.980000
341.324707	144.720000
341.418091	145.640000
341.511505	145.520000
341.604889	145.900000
341.698303	146.300000
341.791687	146.460000
341.885071	146.100000
341.978485	145.940000
342.071899	146.340000
342.165283	146.440000
342.258698	146.720000
342.352081	146.820000
342.445496	147.060000
342.538879	146.500000
342.632324	145.940000
342.725708	145.700000
342.819122	145.480000
342.912506	145.220000
343.005920	145.340000
343.099335	146.080000
343.192719	145.800000
343.286133	145.880000
343.379547	146.120000
343.472931	146.320000
343.566345	145.820000
343.659760	146.400000
343.753143	145.960000
343.846558	145.620000
343.939972	145.500000
344.033386	146.120000
344.126770	145.820000
344.220184	146.360000
344.313599	146.840000
344.407043	147.060000
344.500427	146.280000
344.593872	146.820000
344.687225	146.540000
344.780670	146.120000
344.874054	145.940000
344.967499	146.620000
345.060913	146.160000
345.154327	146.120000
345.247742	145.740000
345.341156	145.340000
345.434570	144.800000
345.527985	144.920000
345.621399	144.980000
345.714813	145.240000
345.808228	145.880000
345.901642	145.620000
345.995056	145.260000
346.088470	145.520000
346.181885	145.840000
346.275299	145.080000
346.368713	145.320000
346.462128	145.320000
346.555573	145.540000
346.648987	145.740000
346.742401	146.100000
346.835815	146.360000
346.929260	146.280000
347.022644	146.040000
347.116119	146.100000
347.209503	146.560000
347.302948	147.120000
347.396362	147.440000
347.489807	147.400000
347.583221	147.760000
347.676636	147.200000
347.770050	146.140000
347.863495	145.820000
347.956909	146.120000
348.050323	145.480000
348.143768	145.640000
348.237183	146.080000
348.330597	147.000000
348.424042	147.040000
348.517456	147.260000
348.610901	147.500000
348.704315	147.020000
348.797760	145.900000
348.891174	145.320000
348.984619	144.740000
349.078033	145.000000
349.171448	145.880000
349.264923	145.980000
349.358337	145.940000
349.451782	146.260000
349.545197	145.340000
349.638641	144.440000
349.732086	144.200000
349.825500	144.840000
349.918945	144.480000
350.012390	145.160000
350.105804	145.940000
350.199249	146.420000
350.292664	146.560000
350.386108	146.680000
350.479553	146.780000
350.572968	146.460000
350.666412	146.680000
350.759857	146.300000
350.853302	146.820000
350.946716	146.220000
351.040161	145.860000
351.133606	145.740000
351.227081	145.420000
351.320465	146.100000
351.413940	146.780000
351.507355	147.280000
351.600830	147.400000
351.694244	147.420000
351.787720	146.600000
351.881104	146.300000
351.974579	146.080000
352.067993	146.480000
352.161469	146.660000
352.254883	146.340000
352.348358	146.180000
352.441803	146.240000
352.535248	145.700000
352.628693	146.180000
352.722137	146.240000
352.815582	146.560000
352.909027	146.840000
353.002472	147.020000
353.095917	146.640000
353.189362	146.920000
353.282806	146.840000
353.376251	146.100000
353.469696	145.340000
353.563141	145.980000
353.656586	145.680000
353.750061	145.160000
353.843475	145.560000
353.936981	146.440000
354.030396	145.440000
354.123871	145.520000
354.217285	146.380000
354.310760	146.980000
354.404175	146.920000
354.497681	146.980000
354.591095	146.960000
354.684570	146.120000
354.777985	145.240000
354.871490	145.100000
354.964935	145.720000
355.058380	146.000000
355.151855	145.920000
355.245300	146.700000
355.338745	146.880000
355.432220	146.400000
355.525665	145.840000
355.619110	146.480000
355.712585	145.820000
355.806030	145.640000
355.899475	145.720000
355.992950	145.960000
356.086426	145.960000
356.179871	146.280000
356.273346	146.280000
356.366791	146.380000
356.460266	146.720000
356.553711	146.140000
356.647186	146.300000
356.740631	146.060000
356.834106	145.800000
356.927551	145.960000
357.021027	146.260000
357.114471	146.100000
357.207947	146.640000
357.301422	147.020000
357.394867	146.780000
357.488342	147.180000
357.581818	147.220000
357.675262	146.880000
357.768738	146.580000
357.862213	146.040000
357.955658	145.860000
358.049133	145.560000
358.142609	145.900000
358.236053	145.820000
358.329529	146.000000
358.423035	146.020000
358.516449	146.020000
358.609955	146.100000
358.703400	146.800000
358.796906	146.860000
358.890350	146.440000
358.983826	146.840000
359.077271	146.240000
359.170776	145.560000
359.264221	145.540000
359.357727	145.480000
359.451172	145.460000
359.544647	145.520000
359.638123	145.360000
359.731598	145.580000
359.825073	146.020000
359.918549	145.800000
360.012024	146.060000
360.105499	145.940000
360.198975	145.640000
360.292450	145.620000
360.385925	145.640000
360.479401	145.180000
360.572876	145.460000
360.666351	145.840000
360.759857	145.860000
360.853302	145.840000
360.946808	145.640000
361.040253	145.660000
361.133759	145.360000
361.227203	145.560000
361.320709	145.280000
361.414154	145.860000
361.507660	146.200000
361.601105	146.620000
361.694641	146.940000
361.788086	147.120000
361.881592	147.420000
361.975067	147.060000
362.068542	147.480000
362.162018	147.060000
362.255524	146.500000
362.348999	146.360000
362.442474	146.680000
362.535950	145.820000
362.629456	145.660000
362.722931	146.040000
362.816406	146.020000
362.909882	146.140000
363.003387	145.920000
363.096863	146.300000
363.190338	146.500000
363.283875	146.420000
363.377319	146.000000
363.470825	146.960000
363.564301	146.280000
363.657806	146.220000
363.751282	146.000000
363.844788	146.980000
363.938232	146.100000
364.031769	146.980000
364.125214	147.340000
364.218750	147.740000
364.312225	146.400000
364.405731	146.840000
364.499207	146.080000
364.592712	145.560000
364.686188	145.520000
364.779694	146.200000
364.873169	146.060000
364.966675	146.100000
365.060150	146.040000
365.153656	146.400000
365.247131	146.300000
365.340637	146.740000
365.434143	147.320000
365.527618	147.700000
365.621155	146.500000
365.714600	146.520000
365.808136	146.300000
365.901611	145.140000
365.995117	144.700000
366.088593	144.960000
366.182129	144.540000
366.275604	144.200000
366.369110	144.600000
366.462585	144.960000
366.556122	145.780000
366.649567	146.040000
366.743103	146.180000
366.836609	145.860000
366.930115	145.980000
367.023590	145.960000
367.117096	145.800000
367.210602	145.840000
367.304108	147.140000
367.397614	147.500000
367.491119	147.200000
367.584595	147.220000
367.678101	147.680000
367.771606	146.840000
367.865112	146.560000
367.958649	145.960000
368.052124	145.920000
368.145660	145.420000
368.239136	146.200000
368.332672	146.260000
368.426147	146.580000
368.519684	146.500000
368.613159	146.780000
368.706696	146.120000
368.800171	145.820000
368.893707	145.780000
368.987183	146.000000
369.080719	145.720000
369.174225	145.340000
369.267731	145.360000
369.361237	145.420000
369.454742	145.560000
369.548248	145.980000
369.641754	146.200000
369.735260	146.140000
369.828766	145.700000
369.922272	146.280000
370.015808	145.700000
370.109314	145.240000
370.202820	145.220000
370.296356	146.380000
370.389832	145.760000
370.483368	145.680000
370.576874	145.720000
370.670410	145.800000
370.763885	144.540000
370.857422	144.580000
370.950928	144.600000
371.044464	145.960000
371.137939	146.140000
371.231476	146.860000
371.324982	147.360000
371.418518	147.520000
371.512024	147.000000
371.605560	146.840000
371.699066	146.780000
371.792572	146.000000
371.886108	146.520000
371.979614	145.840000
372.073120	146.040000
372.166656	145.820000
372.260162	146.320000
372.353668	145.900000
372.447205	145.980000
372.540710	145.780000
372.634277	145.920000
372.727753	145.800000
372.821320	145.920000
372.914795	146.280000
373.008362	146.560000
373.101837	146.440000
373.195404	146.240000
373.288879	146.100000
373.382446	146.560000
373.475922	146.200000
373.569489	146.820000
373.662964	147.140000
373.756531	147.320000
373.850037	147.260000
373.943573	146.980000
374.037109	145.920000
374.130615	146.040000
374.224152	146.000000
374.317657	145.520000
374.411194	146.380000
374.504730	146.800000
374.598236	146.440000
374.691772	146.300000
374.785309	146.280000
374.878815	145.540000
374.972351	145.840000
375.065887	145.520000
375.159454	146.000000
375.252930	145.940000
375.346497	146.180000
375.440002	146.340000
375.533569	146.580000
375.627045	146.100000
375.720612	146.080000
375.814117	146.480000
375.907684	146.200000
376.001160	146.120000
376.094727	145.660000
376.188232	146.240000
376.281799	146.160000
376.375336	146.260000
376.468872	146.780000
376.562408	147.320000
376.655914	146.940000
376.749451	146.620000
376.842987	146.700000
376.936523	146.280000
377.030060	146.240000
377.123596	146.340000
377.217133	146.260000
377.310669	146.040000
377.404205	146.420000
377.497772	146.820000
377.591278	146.760000
377.684845	147.320000
377.778351	147.600000
377.871918	147.400000
377.965424	146.540000
378.058990	146.480000
378.152496	145.740000
378.246063	145.920000
378.339569	145.880000
378.433136	146.220000
378.526642	146.120000
378.620209	146.400000
378.713745	145.880000
378.807312	146.340000
378.900848	146.140000
378.994385	146.500000
379.087921	146.060000
379.181458	146.400000
379.274994	145.480000
379.368530	145.560000
379.462097	145.780000
379.555634	146.280000
379.649170	145.680000
379.742706	146.100000
379.836273	146.280000
379.929810	145.740000
380.023376	145.380000
380.116882	145.560000
380.210449	145.400000
380.303986	145.020000
380.397552	144.500000
380.491058	144.960000
380.584656	144.980000
380.678162	145.180000
380.771729	145.160000
380.865265	146.300000
380.958832	146.180000
381.052368	146.260000
381.145935	146.520000
381.239471	147.100000
381.333008	146.660000
381.426575	146.720000
381.520111	147.020000
381.613647	146.920000
381.707214	146.440000
381.800751	145.980000
381.894318	146.160000
381.987854	145.640000
382.081421	145.360000
382.174988	145.500000
382.268524	145.600000
382.362091	145.160000
382.455627	146.040000
382.549194	145.880000
382.642731	145.640000
382.736298	145.600000
382.829834	145.680000
382.923401	145.700000
383.016937	146.200000
383.110504	146.520000
383.204041	146.720000
383.297607	147.000000
383.391174	146.280000
383.484741	146.620000
383.578278	146.080000
383.671844	145.760000
383.765411	145.180000
383.858948	145.720000
383.952515	145.460000
384.046051	146.160000
384.139618	146.680000
384.233185	147.280000
384.326721	147.080000
384.420288	147.440000
384.513855	147.580000
384.607422	147.940000
384.700989	147.960000
384.794525	147.560000
384.888123	147.180000
384.981659	146.940000
385.075226	146.260000
385.168762	146.020000
385.262360	145.940000
385.355896	145.740000
385.449463	145.780000
385.542999	145.960000
385.636597	146.540000
385.730164	146.780000
385.823730	146.300000
385.917267	145.860000
386.010834	145.800000
386.104401	145.540000
386.197968	145.720000
386.291534	146.200000
386.385101	146.520000
386.478668	146.800000
386.572235	146.400000
386.665802	145.920000
386.759338	145.680000
386.852905	145.240000
386.946472	144.860000
387.040070	145.200000
387.133606	145.700000
387.227203	145.380000
387.320740	146.040000
387.414337	145.720000
387.507874	145.660000
387.601471	145.700000
387.695007	145.480000
387.788605	145.180000
387.882141	145.700000
387.975739	145.360000
388.069275	144.920000
388.162872	145.540000
388.256439	145.520000
388.350037	145.320000
388.443604	145.540000
388.537170	145.620000
388.630737	146.160000
388.724304	146.300000
388.817871	146.280000
388.911438	146.420000
389.005005	146.840000
389.098602	146.760000
389.192169	146.360000
389.285736	146.920000
389.379333	146.740000
389.472870	145.920000
389.566467	145.500000
389.660034	145.700000
389.753632	144.920000
389.847168	145.320000
389.940765	145.800000
390.034332	145.980000
390.127930	145.580000
390.221466	145.740000
390.315063	145.120000
390.408630	144.700000
390.502228	144.100000
390.595795	144.700000
390.689362	144.680000
390.782959	145.040000
390.876526	145.600000
390.970093	145.760000
391.063690	145.980000
391.157257	146.340000
391.250824	146.640000
391.344421	146.360000
391.437988	146.520000
391.531555	146.620000
391.625153	146.520000
391.718750	146.500000
391.812317	146.520000
391.905914	146.220000
391.999481	146.180000
392.093079	146.100000
392.186615	146.120000
392.280243	146.320000
392.373779	146.860000
392.467407	147.080000
392.560944	147.140000
392.654572	146.560000
392.748108	146.260000
392.841736	146.400000
392.935303	145.660000
393.028900	145.340000
393.122467	145.280000
393.216064	145.080000
393.309631	144.200000
393.403229	143.720000
393.496796	143.600000
393.590393	143.100000
393.683990	143.680000
393.777557	144.640000
393.871155	145.300000
393.964722	146.160000
394.058350	146.600000
394.151917	146.480000
394.245514	145.740000
394.339081	146.120000
394.432678	145.860000
394.526245	146.160000
394.619873	145.800000
394.713409	146.200000
394.807037	145.800000
394.900604	145.880000
394.994202	145.860000
395.087769	146.020000
395.181396	145.600000
395.274994	146.460000
395.368561	145.760000
395.462158	145.860000
395.555756	145.660000
395.649353	146.220000
395.742920	145.460000
395.836517	146.500000
395.930115	146.080000
396.023712	146.340000
396.117279	146.300000
396.210876	146.100000
396.304474	145.840000
396.398071	146.120000
396.491669	146.120000
396.585266	145.960000
396.678833	145.780000
396.772461	146.000000
396.866028	145.720000
396.959656	146.060000
397.053223	146.480000
397.146851	146.460000
397.240417	146.400000
397.334015	147.480000
397.427582	147.660000
397.521210	148.120000
397.614807	149.140000
397.708405	149.900000
397.802002	150.560000
397.895599	152.540000
397.989197	153.940000
398.082794	156.080000
398.176392	158.760000
398.269989	161.600000
398.363586	164.500000
398.457184	169.020000
398.550781	173.640000
398.644379	177.560000
398.737976	182.040000
398.831573	186.020000
398.925201	189.220000
399.018768	192.620000
399.112396	197.220000
399.205963	201.980000
399.299591	207.960000
399.393158	214.960000
399.486786	223.080000
399.580353	230.000000
399.673981	237.060000
399.767578	243.320000
399.861206	249.240000
399.954773	252.720000
400.048401	255.240000
400.141998	255.080000
400.235596	254.820000
400.329193	250.880000
400.422791	247.060000
400.516418	242.220000
400.610016	238.420000
400.703613	232.960000
400.797211	227.320000
400.890808	221.600000
400.984436	216.140000
401.078033	209.640000
401.171631	202.880000
401.265259	196.940000
401.358826	191.240000
401.452484	185.300000
401.546051	180.300000
401.639679	175.480000
401.733246	171.540000
401.826904	167.140000
401.920471	163.240000
402.014099	160.060000
402.107697	157.620000
402.201324	155.300000
402.294891	153.900000
402.388550	152.640000
402.482147	151.280000
402.575745	149.680000
402.669373	148.660000
402.762970	147.540000
402.856567	147.220000
402.950195	147.220000
403.043793	147.340000
403.137390	147.720000
403.231018	146.880000
403.324615	147.380000
403.418243	146.640000
403.511841	146.840000
403.605469	146.320000
403.699066	146.900000
403.792694	146.640000
403.886292	146.800000
403.979919	146.660000
404.073517	146.820000
404.167145	147.220000
404.260712	146.960000
404.354370	146.960000
404.447937	146.680000
404.541595	146.520000
404.635162	146.260000
404.728821	146.660000
404.822418	146.060000
404.916046	145.780000
405.009644	146.040000
405.103271	146.440000
405.196899	146.020000
405.290497	146.560000
405.384125	147.160000
405.477722	146.540000
405.571350	146.000000
405.664948	146.060000
405.758575	145.940000
405.852203	145.420000
405.945801	145.800000
406.039429	145.800000
406.133057	145.700000
406.226654	145.420000
406.320312	145.560000
406.413879	145.680000
406.507538	146.000000
406.601135	145.740000
406.694763	146.320000
406.788361	145.860000
406.882019	145.620000
406.975586	146.080000
407.069244	146.580000
407.162872	146.620000
407.256470	146.860000
407.350098	146.740000
407.443726	146.000000
407.537323	145.780000
407.630951	145.740000
407.724579	145.760000
407.818207	146.580000
407.911804	146.360000
408.005432	146.100000
408.099060	146.320000
408.192688	146.520000
408.286285	145.880000
408.379913	145.900000
408.473572	146.200000
408.567169	145.320000
408.660828	145.100000
408.754395	145.000000
408.848053	145.100000
408.941650	145.120000
409.035309	145.220000
409.128906	145.080000
409.222565	145.020000
409.316132	145.540000
409.409790	145.180000
409.503387	145.200000
409.597046	145.780000
409.690674	145.940000
409.784302	145.680000
409.877930	145.580000
409.971558	145.980000
410.065186	145.720000
410.158783	145.700000
410.252411	145.500000
410.346039	146.040000
410.439667	145.760000
410.533295	146.000000
410.626923	146.340000
410.720551	146.200000
410.814209	146.420000
410.907806	146.800000
411.001465	146.380000
411.095062	146.360000
411.188721	146.680000
411.282318	146.280000
411.375977	145.920000
411.469574	146.000000
411.563232	145.480000
411.656830	145.060000
411.750488	145.140000
411.844086	144.900000
411.937744	145.420000
412.031372	145.500000
412.125000	145.520000
412.218628	145.280000
412.312256	146.120000
412.405884	146.240000
412.499512	146.300000
412.593170	146.960000
412.686798	147.540000
412.780426	147.040000
412.874054	146.800000
412.967682	146.640000
413.061310	146.940000
413.154968	146.640000
413.248566	146.540000
413.342224	146.360000
413.435852	146.740000
413.529510	146.240000
413.623108	145.820000
413.716766	145.980000
413.810364	146.240000
413.904022	145.760000
413.997650	145.720000
414.091309	146.680000
414.184906	146.520000
414.278564	146.280000
414.372192	146.820000
414.465851	146.940000
414.559479	146.060000
414.653107	146.740000
414.746735	146.620000
414.840393	146.320000
414.934021	146.220000
415.027649	146.140000
415.121277	145.580000
415.214935	145.780000
415.308563	145.860000
415.402191	145.280000
415.495850	145.460000
415.589478	145.400000
415.683136	144.900000
415.776733	145.240000
415.870422	145.940000
415.964020	145.600000
416.057678	145.560000
416.151306	145.980000
416.244965	145.620000
416.338562	145.380000
416.432251	146.060000
416.525848	147.100000
416.619507	147.240000
416.713165	147.760000
416.806793	147.840000
416.900421	147.940000
416.994080	146.900000
417.087708	146.860000
417.181366	146.420000
417.274994	146.140000
417.368622	146.280000
417.462280	146.720000
417.555908	146.580000
417.649567	146.620000
417.743195	146.680000
417.836853	146.420000
417.930481	146.260000
418.024170	146.500000
418.117767	147.060000
418.211426	147.640000
418.305054	147.780000
418.398712	147.480000
418.492340	147.440000
418.585999	147.200000
418.679626	146.880000
418.773285	146.740000
418.866913	147.140000
418.960571	147.220000
419.054230	147.260000
419.147858	147.540000
419.241516	147.800000
419.335144	147.440000
419.428802	147.140000
419.522461	146.880000
419.616089	146.260000
419.709747	146.020000
419.803375	146.500000
419.897034	146.440000
419.990662	146.340000
420.084320	146.900000
420.177979	147.180000
420.271606	147.120000
420.365295	147.540000
420.458893	147.580000
420.552582	147.660000
420.646210	147.420000
420.739868	147.200000
420.833496	146.920000
420.927155	146.700000
421.020782	146.340000
421.114471	145.800000
421.208069	146.000000
421.301758	146.080000
421.395386	146.040000
421.489044	145.740000
421.582703	146.020000
421.676361	146.240000
421.769989	146.120000
421.863647	146.880000
421.957306	147.040000
422.050934	147.600000
422.144592	147.380000
422.238251	147.200000
422.331909	146.680000
422.425537	146.920000
422.519196	146.380000
422.612854	146.120000
422.706543	146.020000
422.800140	146.000000
422.893829	145.540000
422.987457	145.360000
423.081146	145.520000
423.174744	146.320000
423.268433	146.160000
423.362061	146.200000
423.455750	146.040000
423.549347	145.860000
423.643036	144.860000
423.736664	145.260000
423.830353	145.420000
423.924011	146.100000
424.017639	145.860000
424.111298	146.120000
424.204956	146.060000
424.298615	146.200000
424.392273	145.900000
424.485931	146.260000
424.579559	146.540000
424.673218	146.480000
424.766876	146.540000
424.860535	146.260000
424.954193	146.120000
425.047882	146.340000
425.141510	146.380000
425.235199	146.260000
425.328796	145.980000
425.422485	146.100000
425.516113	145.360000
425.609802	145.020000
425.703430	145.080000
425.797119	145.620000
425.890747	145.360000
425.984436	145.600000
426.078064	145.760000
426.171753	145.520000
426.265411	145.200000
426.359070	145.360000
426.452728	145.240000
426.546356	145.300000
426.640015	145.440000
426.733673	145.240000
426.827332	144.980000
426.920990	145.720000
427.014648	145.160000
427.108307	145.220000
427.201965	145.960000
427.295624	146.320000
427.389282	145.800000
427.482941	146.700000
427.576630	146.520000
427.670258	145.740000
427.763947	145.700000
427.857574	145.740000
427.951263	145.340000
428.044922	145.200000
428.138611	145.760000
428.232239	146.380000
428.325928	146.700000
428.419556	147.280000
428.513245	146.900000
428.606903	146.960000
428.700562	146.060000
428.794220	145.080000
428.887878	144.360000
428.981537	144.940000
429.075195	144.840000
429.168854	145.260000
429.262512	145.820000
429.356201	145.900000
429.449860	145.760000
429.543518	145.660000
429.637177	145.740000
429.730835	145.740000
429.824493	145.800000
429.918182	146.380000
430.011810	146.280000
430.105530	145.680000
430.199158	145.740000
430.292847	145.580000
430.386475	144.900000
430.480164	144.460000
430.573792	144.300000
430.667511	144.400000
430.761139	144.820000
430.854828	145.380000
430.948456	145.640000
431.042145	146.100000
431.135834	145.760000
431.229492	145.600000
431.323151	145.760000
431.416809	146.060000
431.510468	146.020000
431.604156	146.140000
431.697815	145.880000
431.791473	145.080000
431.885132	144.560000
431.978821	145.080000
432.072479	145.300000
432.166138	145.760000
432.259827	146.020000
432.353485	146.420000
432.447174	146.320000
432.540802	146.100000
432.634491	146.200000
432.728149	146.420000
432.821838	147.140000
432.915466	146.440000
433.009186	146.580000
433.102814	145.560000
433.196503	145.400000
433.290131	144.780000
433.383850	145.480000
433.477509	145.360000
433.571167	146.740000
433.664856	147.260000
433.758514	147.820000
433.852173	147.740000
433.945862	147.780000
434.039520	147.300000
434.133179	146.640000
434.226868	146.140000
434.320526	145.380000
434.414185	146.020000
434.507874	145.580000
434.601562	145.880000
434.695221	145.640000
434.788910	146.100000
434.882538	145.900000
434.976257	145.640000
435.069885	145.640000
435.163574	145.780000
435.257233	145.560000
435.350922	145.280000
435.444580	145.260000
435.538269	145.180000
435.631897	145.780000
435.725616	146.320000
435.819275	146.740000
435.912964	147.340000
436.006622	147.640000
436.100311	147.300000
436.193970	146.740000
436.287628	146.300000
436.381317	146.260000
436.474976	145.840000
436.568665	145.440000
436.662323	145.840000
436.756012	145.740000
436.849670	145.320000
436.943390	145.200000
437.037018	145.200000
437.130737	144.780000
437.224365	144.560000
437.318085	144.900000
437.411713	144.880000
437.505432	145.320000
437.599060	146.160000
437.692780	147.280000
437.786407	147.320000
437.880127	147.460000
437.973755	147.020000
438.067474	146.280000
438.161133	145.480000
438.254822	145.960000
438.348480	146.040000
438.442169	146.900000
438.535828	147.520000
438.629517	147.380000
438.723175	146.600000
438.816864	147.020000
438.910553	146.200000
439.004211	145.700000
439.097900	145.640000
439.191559	145.940000
439.285248	145.180000
439.378906	145.540000
439.472626	145.160000
439.566284	145.080000
439.659973	145.120000
439.753632	145.400000
439.847321	145.420000
439.940979	145.860000
440.034698	146.200000
440.128326	145.940000
440.222046	145.740000
440.315674	145.240000
440.409393	145.380000
440.503082	145.120000
440.596741	145.260000
440.690430	145.820000
440.784088	146.080000
440.877777	145.240000
440.971466	145.640000
441.065125	145.520000
441.158813	144.960000
441.252502	145.260000
441.346161	145.820000
441.439850	145.820000
441.533539	145.800000
441.627197	146.180000
441.720886	145.700000
441.814606	146.240000
441.908234	146.440000
442.001953	146.380000
442.095612	146.460000
442.189301	146.860000
442.282959	146.600000
442.376678	145.740000
442.470306	146.340000
442.564026	145.940000
442.657684	145.980000
442.751404	145.960000
442.845032	146.940000
442.938751	146.280000
443.032440	146.600000
443.126099	146.020000
443.219788	146.580000
443.313477	146.260000
443.407166	146.820000
443.500824	146.780000
443.594513	147.180000
443.688202	146.840000
443.781891	146.300000
443.875549	145.720000
443.969238	145.640000
444.062927	145.680000
444.156647	145.400000
444.250275	146.180000
444.343994	146.420000
444.437653	146.580000
444.531372	146.620000
444.625031	146.820000
444.718719	146.120000
444.812378	145.720000
444.906097	145.400000
444.999756	145.060000
445.093445	144.780000
445.187103	145.100000
445.280823	145.840000
445.374512	145.740000
445.468201	146.000000
445.561859	146.000000
445.655548	146.020000
445.749237	145.540000
445.842926	145.460000
445.936615	145.640000
446.030304	145.620000
446.123962	145.800000
446.217651	145.720000
446.311340	146.280000
446.405029	145.760000
446.498749	145.700000
446.592407	145.360000
446.686096	145.740000
446.779755	145.340000
446.873474	145.780000
446.967133	145.840000
447.060852	145.800000
447.154510	145.500000
447.248230	145.820000
447.341858	145.580000
447.435577	145.160000
447.529236	144.780000
447.622955	145.020000
447.716644	144.880000
447.810333	145.000000
447.904022	145.780000
447.997711	146.000000
448.091400	146.020000
448.185059	146.160000
448.278748	146.240000
448.372437	145.760000
448.466125	146.140000
448.559814	146.160000
448.653503	146.260000
448.747192	146.780000
448.840912	147.220000
448.934570	147.100000
449.028290	147.680000
449.121948	147.400000
449.215637	146.460000
449.309296	146.140000
449.403015	146.340000
449.496674	145.740000
449.590393	145.640000
449.684052	145.780000
449.777771	146.460000
449.871429	145.740000
449.965149	145.760000
450.058838	146.100000
450.152527	146.700000
450.246216	146.260000
450.339905	146.660000
450.433594	146.140000
450.527283	146.460000
450.620972	145.920000
450.714661	145.820000
450.808350	145.980000
450.902039	146.500000
450.995728	146.080000
451.089417	145.840000
451.183105	145.820000
451.276794	145.800000
451.370514	145.280000
451.464172	144.880000
451.557892	145.000000
451.651550	145.260000
451.745270	145.080000
451.838928	145.000000
451.932648	145.620000
452.026306	146.180000
452.120026	145.760000
452.213684	146.120000
452.307404	146.320000
452.401062	146.120000
452.494781	145.960000
452.588470	146.220000
452.682159	145.640000
452.775848	145.900000
452.869537	145.120000
452.963226	144.860000
453.056915	144.540000
453.150604	144.940000
453.244293	145.140000
453.337982	146.380000
453.431671	146.540000
453.525360	147.160000
453.619049	147.040000
453.712769	146.940000
453.806427	146.220000
453.900146	146.160000
453.993805	145.900000
454.087555	146.020000
454.181213	146.080000
454.274933	146.020000
454.368591	146.080000
454.462311	145.820000
454.555969	145.780000
454.649689	146.400000
454.743347	146.180000
454.837067	146.900000
454.930756	147.500000
455.024445	147.420000
455.118134	146.820000
455.211853	147.180000
455.305542	146.220000
455.399231	145.820000
455.492920	145.760000
455.586609	145.800000
455.680298	146.120000
455.773987	146.080000
455.867676	146.260000
455.961365	146.480000
456.055084	146.340000
456.148773	146.060000
456.242493	146.260000
456.336151	146.280000
456.429871	146.620000
456.523529	146.740000
456.617249	146.580000
456.710907	147.240000
456.804626	147.020000
456.898315	146.440000
456.992035	146.400000
457.085693	146.280000
457.179413	145.500000
457.273102	146.260000
457.366791	146.320000
457.460480	146.620000
457.554199	147.460000
457.647888	147.640000
457.741577	147.140000
457.835266	147.460000
457.928955	147.300000
458.022644	146.920000
458.116364	147.040000
458.210052	147.020000
458.303741	147.080000
458.397461	146.520000
458.491119	145.940000
458.584839	145.720000
458.678528	145.200000
458.772247	144.780000
458.865906	145.120000
458.959625	145.980000
459.053284	146.000000
459.147003	146.260000
459.240692	146.940000
459.334412	146.840000
459.428070	146.660000
459.521790	146.780000
459.615479	146.480000
459.709198	146.700000
459.802887	146.520000
459.896576	146.020000
459.990265	145.780000
460.083954	146.100000
460.177673	145.180000
460.271362	145.120000
460.365051	145.120000
460.458740	145.140000
460.552429	144.540000
460.646149	144.420000
460.739838	144.320000
460.833527	144.300000
460.927246	144.040000
461.020905	144.120000
461.114655	144.440000
461.208313	144.760000
461.302032	144.480000
461.395691	145.100000
461.489441	145.540000
461.583099	145.260000
461.676819	145.080000
461.770477	145.780000
461.864197	145.160000
461.957916	145.020000
462.051605	144.780000
462.145294	145.820000
462.238983	145.240000
462.332703	145.820000
462.426392	146.440000
462.520081	146.900000
462.613770	145.920000
462.707489	146.420000
462.801178	146.220000
462.894867	145.760000
462.988556	145.860000
463.082275	145.980000
463.175964	145.560000
463.269684	145.820000
463.363342	145.860000
463.457092	145.120000
463.550751	145.360000
463.644470	145.760000
463.738129	145.520000
463.831879	145.660000
463.925537	146.760000
464.019257	146.880000
464.112946	146.760000
464.206665	146.560000
464.300323	146.320000
464.394043	145.640000
464.487762	145.500000
464.581451	145.700000
464.675140	145.840000
464.768829	146.180000
464.862549	146.480000
464.956238	146.500000
465.049927	146.640000
465.143646	146.800000
465.237335	146.540000
465.331024	146.960000
465.424713	147.020000
465.518433	146.940000
465.612152	146.760000
465.705811	146.780000
465.799561	146.100000
465.893219	145.720000
465.986938	145.720000
466.080597	145.520000
466.174347	145.680000
466.268005	145.900000
466.361725	146.060000
466.455414	145.820000
466.549133	145.480000
466.642792	145.440000
466.736542	144.980000
466.830231	145.260000
466.923920	145.020000
467.017609	145.360000
467.111328	144.980000
467.205017	145.260000
467.298706	145.020000
467.392426	145.580000
467.486115	145.740000
467.579803	145.800000
467.673523	146.340000
467.767212	146.440000
467.860901	145.980000
467.954651	146.340000
468.048309	146.620000
468.142029	146.060000
468.235718	145.920000
468.329437	145.960000
468.423096	145.600000
468.516846	145.480000
468.610504	145.340000
468.704224	145.340000
468.797913	145.500000
468.891632	145.940000
468.985291	145.900000
469.079010	146.360000
469.172729	145.800000
469.266418	146.360000
469.360107	146.160000
469.453827	145.860000
469.547516	145.980000
469.641205	146.660000
469.734924	146.440000
469.828613	147.000000
469.922302	147.560000
470.016022	147.140000
470.109711	146.880000
470.203430	146.100000
470.297150	144.900000
470.390808	144.880000
470.484558	145.020000
470.578217	145.340000
470.671936	146.000000
470.765625	146.860000
470.859344	146.420000
470.953003	146.620000
471.046753	146.260000
471.140411	145.700000
471.234131	145.560000
471.327820	146.020000
471.421539	146.080000
471.515228	145.960000
471.608948	146.260000
471.702637	145.880000
471.796326	145.700000
471.890045	145.860000
471.983734	146.000000
472.077423	145.840000
472.171143	146.240000
472.264832	146.160000
472.358521	145.520000
472.452240	145.440000
472.545929	146.080000
472.639648	146.080000
472.733337	146.500000
472.827057	146.900000
472.920746	147.040000
473.014465	147.080000
473.108124	147.040000
473.201874	146.760000
473.295532	146.680000
473.389252	146.920000
473.482941	146.760000
473.576660	146.380000
473.670319	146.220000
473.764069	146.280000
473.857727	146.100000
473.951477	145.940000
474.045166	146.520000
474.138855	146.240000
474.232574	145.960000
474.326263	146.240000
474.419952	146.560000
474.513672	146.260000
474.607361	146.600000
474.701050	146.940000
474.794769	147.020000
474.888458	146.960000
474.982178	147.260000
475.075867	147.120000
475.169586	147.200000
475.263275	146.980000
475.356995	146.780000
475.450653	146.440000
475.544403	146.480000
475.638062	147.260000
475.731812	146.740000
475.825470	146.720000
475.919189	147.120000
476.012878	147.440000
476.106598	146.500000
476.200256	147.100000
476.294006	146.960000
476.387695	146.580000
476.481384	146.220000
476.575104	146.180000
476.668793	145.880000
476.762512	145.580000
476.856201	145.920000
476.949890	145.720000
477.043610	145.120000
477.137299	145.140000
477.230988	145.680000
477.324707	145.440000
477.418396	146.200000
477.512146	146.380000
477.605804	146.280000
477.699524	146.340000
477.793213	146.080000
477.886932	145.420000
477.980591	145.500000
478.074341	145.340000
478.167999	144.760000
478.261749	144.740000
478.355408	144.840000
478.449127	145.040000
478.542816	145.920000
478.636536	146.560000
478.730225	146.860000
478.823944	146.980000
478.917633	147.060000
479.011322	147.020000
479.105042	146.900000
479.198730	147.100000
479.292450	146.660000
479.386139	146.700000
479.479828	146.660000
479.573547	147.000000
479.667267	147.020000
479.760925	147.260000
479.854675	147.300000
479.948334	147.000000
480.042084	146.220000
480.135742	146.420000
480.229462	146.440000
480.323151	146.400000
480.416870	145.860000
480.510529	145.860000
480.604279	145.060000
480.697937	145.260000
480.791656	144.880000
480.885345	144.840000
480.979065	144.800000
481.072754	145.340000
481.166473	145.900000
481.260132	146.000000
481.353882	146.360000
481.447540	146.640000
481.541260	146.580000
481.635010	145.700000
481.728668	145.480000
481.822388	145.360000
481.916077	145.220000
482.009796	144.940000
482.103485	145.520000
482.197205	145.780000
482.290863	146.140000
482.384613	146.000000
482.478271	145.860000
482.571991	145.600000
482.665680	145.480000
482.759399	146.060000
482.853058	146.520000
482.946808	146.460000
483.040466	146.540000
483.134216	146.680000
483.227875	145.780000
483.321594	145.900000
483.415283	146.080000
483.509003	145.740000
483.602661	145.740000
483.696411	146.380000
483.790070	146.120000
483.883789	146.200000
483.977478	146.640000
484.071198	146.820000
484.164917	146.040000
484.258606	145.560000
484.352325	145.720000
484.445984	145.740000
484.539734	145.500000
484.633392	145.360000
484.727142	146.200000
484.820801	145.940000
484.914520	146.020000
485.008209	146.340000
485.101929	147.200000
485.195587	146.760000
485.289337	146.780000
485.382996	146.580000
485.476715	146.380000
485.570404	146.420000
485.664124	146.620000
485.757782	147.020000
485.851532	146.640000
485.945190	146.720000
486.038910	146.360000
486.132599	146.900000
486.226318	146.200000
486.319977	146.100000
486.413727	146.560000
486.507446	146.420000
486.601105	145.260000
486.694855	145.340000
486.788513	145.660000
486.882233	145.240000
486.975922	145.260000
487.069641	145.440000
487.163300	145.420000
487.257050	146.380000
487.350708	146.200000
487.444427	146.060000
487.538116	146.100000
487.631836	146.060000
487.725494	145.580000
487.819214	145.840000
487.912903	145.700000
488.006622	146.360000
488.100281	146.740000
488.194031	146.440000
488.287689	146.260000
488.381409	146.940000
488.475098	146.420000
488.568817	146.480000
488.662476	145.900000
488.756226	145.680000
488.849945	144.680000
488.943604	145.040000
489.037354	145.000000
489.131012	145.380000
489.224731	145.300000
489.318390	145.780000
489.412140	145.420000
489.505798	145.420000
489.599518	145.200000
489.693207	145.600000
489.786926	145.380000
489.880585	145.200000
489.974335	145.400000
490.067993	146.480000
490.161713	146.560000
490.255371	147.220000
490.349121	147.200000
490.442780	146.820000
490.536499	145.620000
490.630188	145.600000
490.723907	145.260000
490.817566	145.560000
490.911285	145.540000
491.004974	145.880000
491.098694	145.400000
491.192413	145.760000
491.286102	145.460000
491.379822	145.780000
491.473480	145.760000
491.567200	146.040000
491.660889	145.420000
491.754608	145.640000
491.848267	145.560000
491.941986	145.720000
492.035675	145.760000
492.129395	146.360000
492.223053	146.300000
492.316772	146.280000
492.410461	146.200000
492.504181	146.300000
492.597839	145.800000
492.691559	146.000000
492.785248	145.920000
492.878967	146.100000
492.972626	145.740000
493.066345	145.840000
493.160034	145.220000
493.253754	145.300000
493.347412	144.780000
493.441132	145.160000
493.534882	145.800000
493.628540	146.640000
493.722260	146.860000
493.815918	147.260000
493.909668	147.420000
494.003326	147.440000
494.097046	146.880000
494.190704	146.540000
494.284454	146.680000
494.378113	146.620000
494.471832	146.320000
494.565491	146.320000
494.659210	146.320000
494.752899	146.040000
494.846619	145.680000
494.940277	145.760000
495.033997	145.660000
495.127686	145.280000
495.221405	145.220000
495.315063	145.440000
495.408783	145.500000
495.502441	145.800000
495.596191	146.280000
495.689850	146.100000
495.783569	146.420000
495.877228	145.720000
495.970947	145.380000
496.064697	145.400000
496.158356	146.400000
496.252075	146.360000
496.345734	146.620000
496.439453	147.820000
496.533142	147.780000
496.626862	147.660000
496.720520	147.360000
496.814240	147.500000
496.907898	146.620000
497.001617	146.600000
497.095306	145.640000
497.189026	145.820000
497.282684	145.840000
497.376404	146.280000
497.470062	146.060000
497.563782	146.380000
497.657471	146.080000
497.751190	145.760000
497.844849	145.240000
497.938568	145.600000
498.032227	145.460000
498.125946	145.600000
498.219635	145.820000
498.313354	146.200000
498.407074	145.900000
498.500732	146.440000
498.594452	146.780000
498.688110	146.640000
498.781830	146.160000
498.875519	146.140000
498.969238	145.840000
499.062897	145.500000
499.156616	145.920000
499.250275	146.320000
499.343994	145.800000
499.437653	145.780000
499.531372	145.920000
499.625061	146.220000
499.718781	146.240000
499.812439	147.100000
499.906158	146.920000
499.999817	146.780000
500.093536	146.160000
500.187195	145.940000
500.280914	145.880000
500.374573	145.920000
500.468323	145.580000
500.561981	145.760000
500.655701	145.520000
500.749420	145.360000
500.843079	145.600000
500.936798	145.940000
501.030457	146.400000
501.124176	146.920000
501.217834	146.800000
501.311554	146.700000
501.405212	146.760000
501.498962	145.780000
501.592621	145.540000
501.686340	146.180000
501.779999	146.160000
501.873718	146.520000
501.967377	147.060000
502.061096	147.200000
502.154755	146.300000
502.248474	146.740000
502.342133	146.360000
502.435852	146.260000
502.529510	146.740000
502.623230	147.460000
502.716888	146.780000
502.810608	146.860000
502.904266	147.420000
502.997986	146.940000
503.091705	146.760000
503.185364	147.040000
503.279083	146.940000
503.372772	146.400000
503.466492	145.940000
503.560150	145.860000
503.653870	146.180000
503.747528	146.160000
503.841248	146.460000
503.934906	146.840000
504.028625	146.660000
504.122284	146.620000
504.216003	147.040000
504.309662	146.260000
504.403381	146.440000
504.497040	146.480000
504.590759	145.940000
504.684418	145.960000
504.778137	146.780000
504.871796	146.880000
504.965515	146.900000
505.059174	147.140000
505.152893	146.620000
505.246521	146.020000
505.340240	145.720000
505.433899	145.800000
505.527618	146.060000
505.621338	146.380000
505.714996	146.460000
505.808716	146.200000
505.902374	146.960000
505.996094	146.760000
506.089752	146.840000
506.183472	147.220000
506.277130	147.440000
506.370850	146.840000
506.464508	146.760000
506.558228	146.420000
506.651886	145.800000
506.745605	145.700000
506.839264	145.660000
506.932983	145.760000
507.026611	145.740000
507.120331	146.320000
507.213989	146.160000
507.307709	146.080000
507.401367	146.560000
507.495087	147.340000
507.588745	147.140000
507.682465	148.100000
507.776123	148.160000
507.869843	147.720000
507.963531	147.200000
508.057190	147.420000
508.150909	146.420000
508.244568	146.300000
508.338287	145.980000
508.431946	145.660000
508.525665	145.420000
508.619324	145.420000
508.713013	145.660000
508.806671	146.020000
508.900391	146.800000
508.994049	146.960000
509.087769	146.900000
509.181427	146.960000
509.275146	146.600000
509.368774	145.560000
509.462494	145.340000
509.556152	145.400000
509.649872	145.520000
509.743530	145.800000
509.837250	146.240000
509.930878	146.360000
510.024597	146.500000
510.118256	146.080000
510.211975	145.900000
510.305695	145.660000
510.399353	145.860000
510.493042	146.320000
510.586700	146.660000
510.680420	147.380000
510.774078	147.140000
510.867798	147.060000
510.961426	146.560000
511.055145	146.340000
511.148804	145.840000
511.242523	146.640000
511.336151	146.640000
511.429871	147.160000
511.523529	147.180000
511.617249	146.980000
511.710876	146.420000
511.804596	146.240000
511.898254	145.660000
511.991974	145.900000
512.085632	145.900000
512.179321	146.120000
512.272949	146.520000
512.366699	146.980000
512.460327	146.600000
512.554077	147.260000
512.647766	147.080000
512.741394	146.740000
512.835144	147.080000
512.928772	146.940000
513.022461	146.360000
513.116150	146.280000
513.209839	146.580000
513.303467	145.740000
513.397217	145.280000
513.490845	145.360000
513.584595	145.120000
513.678223	144.420000
513.771912	144.060000
513.865601	144.540000
513.959290	144.240000
514.052917	144.420000
514.146667	145.260000
514.240295	146.080000
514.333984	146.480000
514.427673	146.580000
514.521362	147.240000
514.614990	146.320000
514.708740	146.240000
514.802368	146.340000
514.896057	146.420000
514.989746	146.780000
515.083435	147.260000
515.177124	147.340000
515.270752	146.800000
515.364502	146.660000
515.458130	146.260000
515.551819	145.800000
515.645508	145.760000
515.739197	146.060000
515.832825	146.200000
515.926575	145.800000
516.020203	146.380000
516.113892	146.480000
516.207520	146.160000
516.301270	146.280000
516.394897	146.600000
516.488586	146.980000
516.582275	146.840000
516.675964	146.460000
516.769592	146.240000
516.863281	146.800000
516.956970	146.700000
517.050659	146.460000
517.144287	146.840000
517.238037	147.060000
517.331665	146.040000
517.425354	145.660000
517.519043	145.380000
517.612732	145.620000
517.706421	145.360000
517.800049	145.160000
517.893738	144.860000
517.987427	145.160000
518.081116	144.880000
518.174744	144.520000
518.268433	145.120000
518.362122	145.820000
518.455811	146.000000
518.549438	146.640000
518.643127	148.120000
518.736816	147.760000
518.830505	147.120000
518.924133	147.000000
519.017822	147.000000
519.111511	146.180000
519.205200	146.620000
519.298828	146.900000
519.392517	146.720000
519.486206	146.640000
519.579895	146.680000
519.673523	146.540000
519.767212	146.400000
519.860901	146.660000
519.954590	146.180000
520.048279	145.740000
520.141907	145.400000
520.235596	146.120000
520.329224	146.380000
520.422974	146.680000
520.516602	146.760000
520.610291	146.640000
520.703918	146.240000
520.797607	145.900000
520.891296	146.080000
520.984985	146.420000
521.078613	147.120000
521.172302	146.640000
521.265930	147.280000
521.359680	147.560000
521.453308	147.360000
521.546997	147.180000
521.640625	147.340000
521.734314	146.640000
521.827942	146.200000
521.921692	146.400000
522.015320	146.200000
522.109009	146.300000
522.202698	146.060000
522.296326	146.000000
522.390015	146.080000
522.483704	146.280000
522.577393	146.080000
522.671021	146.300000
522.764709	146.040000
522.858337	146.560000
522.952026	146.480000
523.045654	147.100000
523.139404	147.720000
523.233032	148.000000
523.326721	147.320000
523.420349	147.160000
523.514038	146.540000
523.607666	146.600000
523.701355	145.960000
523.795044	146.040000
523.888733	146.420000
523.982361	147.000000
524.076050	146.380000
524.169678	147.260000
524.263367	146.800000
524.356995	146.440000
524.450684	145.840000
524.544373	145.560000
524.638062	145.460000
524.731750	145.820000
524.825378	145.960000
524.919067	145.800000
525.012695	146.340000
525.106384	145.740000
525.200012	145.740000
525.293701	145.860000
525.387329	146.420000
525.481018	146.340000
525.574646	147.020000
525.668396	147.020000
525.762024	146.980000
525.855713	146.880000
525.949341	146.400000
526.043030	146.380000
526.136658	146.120000
526.230347	145.820000
526.323975	145.360000
526.417664	145.420000
526.511292	145.160000
526.604980	145.580000
526.698608	145.720000
526.792297	146.220000
526.885925	146.820000
526.979614	147.000000
527.073303	146.900000
527.166931	146.940000
527.260620	146.780000
527.354309	146.900000
527.447998	146.680000
527.541626	146.320000
527.635315	146.240000
527.728943	146.760000
527.822632	146.840000
527.916260	146.760000
528.009949	147.180000
528.103577	147.100000
528.197266	146.660000
528.290894	146.400000
528.384583	146.480000
528.478210	146.180000
528.571899	146.580000
528.665527	146.760000
528.759216	146.900000
528.852844	147.540000
528.946533	147.840000
529.040161	147.360000
529.133850	147.200000
529.227478	147.260000
529.321167	146.860000
529.414856	146.860000
529.508484	147.520000
529.602173	147.000000
529.695801	146.760000
529.789490	146.800000
529.883057	146.600000
529.976746	146.480000
530.070374	147.240000
530.164062	147.140000
530.257690	147.320000
530.351379	147.700000
530.445007	147.240000
530.538696	146.760000
530.632324	147.260000
530.726013	147.000000
530.819641	146.940000
530.913330	147.440000
531.006958	147.200000
531.100647	146.900000
531.194275	146.640000
531.287964	146.240000
531.381592	145.840000
531.475220	146.040000
531.568848	146.060000
531.662537	146.180000
531.756226	146.580000
531.849854	146.600000
531.943542	146.700000
532.037170	146.200000
532.130859	146.420000
532.224487	145.940000
532.318176	145.520000
532.411804	145.800000
532.505432	146.360000
532.599060	146.040000
532.692749	146.260000
532.786377	146.880000
532.880066	146.380000
532.973694	145.540000
533.067383	145.500000
533.161011	145.500000
533.254639	145.080000
533.348267	145.060000
533.441956	145.760000
533.535583	145.840000
533.629272	145.960000
533.722900	145.940000
533.816589	146.160000
533.910156	146.240000
534.003845	145.980000
534.097534	146.020000
534.191162	146.820000
534.284851	146.820000
534.378479	146.360000
534.472107	146.500000
534.565735	146.200000
534.659424	146.060000
534.753052	146.260000
534.846741	145.960000
534.940369	146.520000
535.033997	146.620000
535.127625	146.360000
535.221313	146.900000
535.314941	147.160000
535.408630	146.420000
535.502197	146.780000
535.595886	146.520000
535.689514	145.660000
535.783203	146.000000
535.876831	146.400000
535.970459	146.140000
536.064087	146.060000
536.157776	145.940000
536.251404	145.860000
536.345093	145.760000
536.438721	145.860000
536.532349	146.220000
536.626038	146.320000
536.719666	146.660000
536.813293	146.340000
536.906921	146.140000
537.000610	146.200000
537.094238	146.280000
537.187866	146.120000
537.281494	146.480000
537.375183	146.560000
537.468811	145.920000
537.562439	145.960000
537.656067	145.720000
537.749756	145.340000
537.843384	146.020000
537.937012	146.520000
538.030640	146.360000
538.124329	146.400000
538.217896	146.820000
538.311584	146.480000
538.405212	146.460000
538.498901	146.860000
538.592468	147.300000
538.686157	146.960000
538.779785	146.260000
538.873413	145.880000
538.967102	145.400000
539.060730	144.840000
539.154358	145.280000
539.247986	145.720000
539.341675	145.820000
539.435242	145.800000
539.528931	146.040000
539.622559	145.620000
539.716187	146.000000
539.809814	146.080000
539.903503	146.220000
539.997070	146.080000
540.090759	146.140000
540.184387	145.740000
540.278015	146.060000
540.371643	146.380000
540.465332	146.440000
540.558899	146.500000
540.652588	146.500000
540.746216	146.220000
540.839844	146.160000
540.933472	146.100000
541.027100	145.960000
541.120728	145.720000
541.214417	146.060000
541.308044	146.320000
541.401672	146.380000
541.495300	146.420000
541.588928	146.620000
541.682617	146.300000
541.776184	146.180000
541.869873	146.440000
541.963440	146.920000
542.057129	146.880000
542.150757	146.880000
542.244385	146.500000
542.338013	145.800000
542.431641	145.420000
542.525269	145.340000
542.618958	145.860000
542.712524	146.260000
542.806213	146.300000
542.899780	146.220000
542.993469	146.220000
543.087036	145.700000
543.180725	145.100000
543.274292	145.720000
543.367981	145.900000
543.461548	146.300000
543.555237	146.400000
543.648926	147.000000
543.742493	147.260000
543.836182	147.340000
543.929749	147.220000
544.023437	147.200000
544.117004	147.180000
544.210693	147.000000
544.304260	147.140000
544.397949	146.860000
544.491516	147.080000
544.585205	147.140000
544.678772	146.620000
544.772461	146.720000
544.866028	146.860000
544.959717	146.860000
545.053284	146.340000
545.146973	146.700000
545.240540	146.520000
545.334229	146.920000
545.427795	146.860000
545.521423	147.060000
545.615051	147.140000
545.708679	147.640000
545.802307	147.260000
545.895935	147.500000
545.989624	148.440000
546.083191	148.340000
546.176880	148.100000
546.270447	148.000000
546.364136	148.400000
546.457703	147.300000
546.551331	147.360000
546.644958	147.260000
546.738586	147.620000
546.832214	146.820000
546.925842	146.900000
547.019409	146.940000
547.113098	146.640000
547.206665	146.260000
547.300354	146.420000
547.393921	146.540000
547.487549	146.500000
547.581177	146.300000
547.674805	146.300000
547.768433	145.800000
547.862061	146.060000
547.955627	145.580000
548.049316	146.020000
548.142883	146.020000
548.236572	146.520000
548.330139	146.340000
548.423767	146.280000
548.517456	146.200000
548.611023	146.640000
548.704651	145.980000
548.798279	145.760000
548.891907	146.560000
548.985474	146.380000
549.079163	146.200000
549.172729	146.420000
549.266357	146.320000
549.359985	145.800000
549.453613	145.400000
549.547180	144.940000
549.640869	145.440000
549.734436	145.620000
549.828064	146.040000
549.921631	146.220000
550.015320	146.040000
550.108887	146.380000
550.202515	146.140000
550.296143	145.660000
550.389771	145.820000
550.483337	146.140000
550.576965	145.700000
550.670593	146.360000
550.764221	146.560000
550.857849	146.140000
550.951477	145.580000
551.045105	145.140000
551.138672	144.760000
551.232300	144.240000
551.325928	144.860000
551.419556	145.800000
551.513123	145.860000
551.606750	145.620000
551.700378	146.040000
551.794006	145.640000
551.887573	145.000000
551.981201	145.620000
552.074768	145.620000
552.168457	145.400000
552.262024	146.520000
552.355652	146.620000
552.449219	146.740000
552.542847	146.800000
552.636475	146.540000
552.730103	145.320000
552.823669	145.000000
552.917297	144.360000
553.010864	144.280000
553.104553	144.880000
553.198181	144.900000
553.291748	145.660000
553.385376	145.980000
553.478943	145.640000
553.572571	145.600000
553.666199	146.140000
553.759827	145.640000
553.853394	145.140000
553.947021	145.520000
554.040588	145.380000
554.134216	145.240000
554.227783	146.160000
554.321411	146.860000
554.415039	146.500000
554.508667	146.540000
554.602234	146.680000
554.695862	145.700000
554.789429	145.620000
554.883057	145.960000
554.976624	146.040000
555.070251	145.700000
555.163818	145.740000
555.257507	145.720000
555.351074	145.880000
555.444702	147.060000
555.538330	147.060000
555.631897	147.600000
555.725525	147.120000
555.819092	147.220000
555.912720	145.500000
556.006287	145.800000
556.099915	145.640000
556.193481	146.180000
556.287109	145.880000
556.380676	146.240000
556.474304	146.460000
556.567871	146.640000
556.661499	145.960000
556.755066	146.020000
556.848694	146.260000
556.942261	145.760000
557.035889	145.520000
557.129517	146.040000
557.223145	146.520000
557.316711	146.600000
557.410339	146.980000
557.503906	147.040000
557.597473	147.140000
557.691040	146.820000
557.784668	146.640000
557.878296	146.340000
557.971863	146.420000
558.065491	146.420000
558.159058	146.320000
558.252686	146.840000
558.346252	147.560000
558.439880	146.980000
558.533447	146.400000
558.627075	146.180000
558.720642	145.700000
558.814270	145.160000
558.907837	145.540000
559.001465	145.560000
559.095032	146.300000
559.188660	146.540000
559.282227	145.960000
559.375854	146.500000
559.469360	146.600000
559.562988	146.760000
559.656555	146.520000
559.750183	147.220000
559.843750	147.040000
559.937378	147.380000
560.030945	146.860000
560.124573	0.000000
560.218140	0.000000
560.311707	0.000000
560.405334	0.000000
560.498901	0.000000
560.592529	0.000000
560.686096	0.000000
560.779724	0.000000
560.873291	0.000000
560.966858	0.000000
561.060425	0.000000
561.154053	0.000000
561.247620	0.000000
561.341248	0.000000
561.434814	0.000000
561.528381	0.000000
561.621948	0.000000
561.715576	0.000000
561.809143	0.000000
561.902771	0.000000
561.996277	0.000000
562.089905	0.000000
562.183472	0.000000
562.277100	0.000000
