Model Number: SPM-002-B   
Serial Number: 70087108
Firmware Version: 004.15.4
Exposure Time: 100000.000000us
Data Taken on: 11-12-2020 19:30:02.920
Wavelength	Amplitude
221.570786	0.000000
221.663406	0.000000
221.756027	0.000000
221.848648	0.000000
221.941269	0.000000
222.033905	0.000000
222.126526	0.000000
222.219162	0.000000
222.311798	0.000000
222.404419	0.000000
222.497055	0.000000
222.589676	0.000000
222.682312	0.000000
222.774933	0.000000
222.867569	0.000000
222.960205	0.000000
223.052841	0.000000
223.145462	0.000000
223.238098	0.000000
223.330734	0.000000
223.423386	0.000000
223.516022	0.000000
223.608658	0.000000
223.701309	0.000000
223.793945	0.000000
223.886581	0.000000
223.979218	0.000000
224.071869	0.000000
224.164505	0.000000
224.257156	0.000000
224.349792	0.000000
224.442444	0.000000
224.535095	0.000000
224.627747	0.000000
224.720398	0.000000
224.813034	0.000000
224.905685	0.000000
224.998337	145.900000
225.090988	145.500000
225.183640	145.500000
225.276291	145.440000
225.368942	145.400000
225.461594	145.880000
225.554245	146.180000
225.646912	146.300000
225.739578	146.980000
225.832230	147.560000
225.924896	146.800000
226.017548	147.120000
226.110199	147.520000
226.202866	146.560000
226.295532	146.240000
226.388184	146.400000
226.480850	145.560000
226.573517	144.920000
226.666168	145.380000
226.758835	145.620000
226.851501	146.220000
226.944183	146.720000
227.036850	146.480000
227.129517	146.480000
227.222183	146.560000
227.314850	146.420000
227.407516	146.360000
227.500198	147.200000
227.592865	146.660000
227.685532	146.080000
227.778214	145.620000
227.870880	146.220000
227.963562	146.340000
228.056229	146.940000
228.148926	146.920000
228.241592	147.920000
228.334274	147.140000
228.426956	146.580000
228.519638	146.620000
228.612305	146.540000
228.704987	146.380000
228.797668	146.580000
228.890350	146.580000
228.983032	145.820000
229.075714	146.720000
229.168396	146.320000
229.261108	146.160000
229.353790	146.360000
229.446472	146.800000
229.539169	146.200000
229.631851	145.760000
229.724533	145.760000
229.817230	145.480000
229.909912	146.580000
230.002609	146.500000
230.095306	146.660000
230.187988	146.820000
230.280685	146.980000
230.373383	145.620000
230.466095	146.000000
230.558792	146.140000
230.651474	146.040000
230.744171	145.720000
230.836868	146.020000
230.929581	145.940000
231.022278	145.980000
231.114975	146.060000
231.207672	146.060000
231.300369	146.280000
231.393082	146.120000
231.485779	145.620000
231.578506	145.480000
231.671204	145.660000
231.763916	145.640000
231.856613	145.820000
231.949326	146.300000
232.042023	146.100000
232.134735	145.980000
232.227448	145.700000
232.320160	145.780000
232.412872	145.720000
232.505585	146.700000
232.598297	147.340000
232.691010	147.420000
232.783722	146.940000
232.876450	147.360000
232.969162	146.820000
233.061874	146.220000
233.154587	145.960000
233.247314	146.500000
233.340027	145.780000
233.432739	146.080000
233.525467	145.800000
233.618179	146.100000
233.710907	145.620000
233.803635	146.380000
233.896347	145.760000
233.989090	146.780000
234.081818	146.760000
234.174545	147.020000
234.267258	146.340000
234.359985	146.700000
234.452713	145.900000
234.545441	145.880000
234.638168	146.020000
234.730896	146.340000
234.823639	146.320000
234.916367	147.000000
235.009094	146.880000
235.101822	146.680000
235.194580	146.920000
235.287308	146.960000
235.380051	146.300000
235.472778	146.660000
235.565521	146.960000
235.658249	146.560000
235.750992	146.320000
235.843719	146.660000
235.936462	146.720000
236.029205	146.020000
236.121948	145.660000
236.214691	145.980000
236.307449	146.480000
236.400192	146.100000
236.492935	146.000000
236.585678	146.480000
236.678421	146.540000
236.771164	145.980000
236.863907	146.480000
236.956665	146.940000
237.049408	148.320000
237.142151	147.720000
237.234909	148.520000
237.327652	147.920000
237.420410	147.660000
237.513153	146.600000
237.605927	146.680000
237.698669	145.980000
237.791428	145.660000
237.884186	146.460000
237.976944	145.800000
238.069702	146.220000
238.162445	145.820000
238.255203	146.320000
238.347961	146.060000
238.440720	146.280000
238.533478	146.120000
238.626266	145.920000
238.719025	145.900000
238.811783	145.820000
238.904541	145.820000
238.997314	145.620000
239.090073	145.860000
239.182831	146.060000
239.275604	146.480000
239.368362	146.300000
239.461136	146.620000
239.553909	146.620000
239.646667	146.520000
239.739441	146.120000
239.832214	146.480000
239.925003	146.620000
240.017761	147.340000
240.110535	147.700000
240.203308	147.240000
240.296082	147.340000
240.388855	146.880000
240.481628	146.580000
240.574417	146.620000
240.667191	147.460000
240.759964	147.100000
240.852737	147.240000
240.945526	146.880000
241.038315	146.640000
241.131088	146.360000
241.223877	146.840000
241.316650	146.640000
241.409439	146.940000
241.502228	146.460000
241.595001	146.780000
241.687790	146.380000
241.780579	146.480000
241.873367	146.480000
241.966141	146.900000
242.058929	146.180000
242.151718	146.400000
242.244507	146.940000
242.337311	146.000000
242.430099	146.140000
242.522903	146.280000
242.615692	145.880000
242.708481	145.560000
242.801270	146.420000
242.894073	146.180000
242.986862	146.560000
243.079651	147.000000
243.172455	146.880000
243.265244	147.200000
243.358063	146.800000
243.450867	146.660000
243.543655	146.440000
243.636459	146.400000
243.729263	145.980000
243.822067	146.300000
243.914856	146.800000
244.007660	146.700000
244.100464	146.980000
244.193268	146.840000
244.286072	146.700000
244.378876	146.040000
244.471680	145.840000
244.564499	145.740000
244.657318	146.580000
244.750122	146.740000
244.842926	146.220000
244.935745	146.600000
245.028549	146.240000
245.121368	145.500000
245.214172	145.440000
245.306992	146.020000
245.399796	145.700000
245.492615	146.100000
245.585434	146.000000
245.678253	146.120000
245.771072	145.940000
245.863892	146.500000
245.956711	146.660000
246.049530	146.460000
246.142349	146.400000
246.235168	146.540000
246.327988	147.020000
246.420807	146.580000
246.513626	146.760000
246.606445	146.800000
246.699280	146.580000
246.792099	145.940000
246.884918	145.600000
246.977753	145.280000
247.070587	145.360000
247.163422	145.400000
247.256241	145.500000
247.349075	146.120000
247.441895	146.440000
247.534729	146.220000
247.627563	146.320000
247.720383	146.920000
247.813217	146.900000
247.906052	146.860000
247.998886	146.940000
248.091736	146.600000
248.184570	145.840000
248.277405	145.660000
248.370239	146.640000
248.463074	147.320000
248.555908	147.760000
248.648743	147.780000
248.741592	147.760000
248.834427	147.120000
248.927261	146.140000
249.020111	146.480000
249.112946	146.900000
249.205795	146.680000
249.298630	146.580000
249.391495	146.780000
249.484344	146.260000
249.577179	145.880000
249.670029	146.260000
249.762878	146.740000
249.855728	147.020000
249.948563	147.040000
250.041412	146.320000
250.134262	146.400000
250.227112	146.240000
250.319962	146.060000
250.412827	145.960000
250.505692	146.060000
250.598541	145.920000
250.691391	145.580000
250.784241	145.680000
250.877106	145.960000
250.969955	146.100000
251.062805	146.600000
251.155670	147.040000
251.248520	146.700000
251.341385	146.860000
251.434235	146.920000
251.527100	146.680000
251.619965	146.300000
251.712814	146.880000
251.805695	146.780000
251.898560	147.000000
251.991425	147.080000
252.084290	147.220000
252.177155	146.700000
252.270020	146.420000
252.362885	146.640000
252.455750	146.260000
252.548615	145.980000
252.641479	145.880000
252.734360	145.600000
252.827240	145.180000
252.920105	145.480000
253.012970	145.320000
253.105850	145.480000
253.198715	145.580000
253.291595	145.980000
253.384460	145.620000
253.477341	145.780000
253.570221	146.000000
253.663086	146.040000
253.755966	146.520000
253.848846	146.460000
253.941727	146.640000
254.034592	146.500000
254.127472	146.240000
254.220367	145.920000
254.313248	145.840000
254.406128	145.500000
254.499008	145.640000
254.591904	146.700000
254.684784	147.000000
254.777664	147.440000
254.870544	147.340000
254.963440	147.120000
255.056335	146.880000
255.149216	146.520000
255.242111	146.940000
255.334991	147.420000
255.427887	147.860000
255.520767	147.880000
255.613663	147.840000
255.706558	147.220000
255.799438	146.980000
255.892334	146.500000
255.985229	146.140000
256.078125	145.900000
256.171021	146.040000
256.263916	146.360000
256.356812	146.560000
256.449707	146.820000
256.542603	146.780000
256.635498	147.200000
256.728394	147.020000
256.821289	146.680000
256.914215	146.820000
257.007080	147.020000
257.100006	146.640000
257.192932	147.080000
257.285828	147.420000
257.378723	147.000000
257.471619	147.040000
257.564545	146.700000
257.657440	146.180000
257.750336	146.740000
257.843262	146.640000
257.936157	147.560000
258.029053	148.000000
258.121979	148.240000
258.214874	147.620000
258.307800	147.640000
258.400696	146.740000
258.493622	146.280000
258.586517	145.220000
258.679443	145.880000
258.772339	145.300000
258.865265	145.040000
258.958160	144.640000
259.051086	145.880000
259.144012	145.220000
259.236938	146.560000
259.329834	146.540000
259.422791	147.020000
259.515717	146.260000
259.608612	146.400000
259.701538	146.200000
259.794464	146.280000
259.887390	146.160000
259.980316	146.280000
260.073212	145.880000
260.166138	144.920000
260.259064	145.200000
260.351990	146.000000
260.444916	146.000000
260.537842	146.680000
260.630768	147.380000
260.723694	147.440000
260.816620	146.980000
260.909546	147.080000
261.002472	146.400000
261.095398	145.860000
261.188354	145.580000
261.281281	145.180000
261.374207	145.440000
261.467133	146.180000
261.560089	146.440000
261.653015	146.360000
261.745972	147.140000
261.838867	147.340000
261.931824	147.500000
262.024780	146.840000
262.117706	146.920000
262.210663	146.660000
262.303589	146.320000
262.396515	145.900000
262.489471	147.160000
262.582397	147.140000
262.675354	146.800000
262.768280	146.960000
262.861237	147.200000
262.954163	147.180000
263.047119	147.360000
263.140045	147.160000
263.233002	147.180000
263.325958	147.060000
263.418884	146.200000
263.511841	146.040000
263.604797	146.360000
263.697723	146.120000
263.790680	145.960000
263.883636	146.660000
263.976593	146.460000
264.069550	146.340000
264.162476	146.140000
264.255463	146.080000
264.348419	145.720000
264.441376	146.260000
264.534332	145.840000
264.627289	146.180000
264.720245	146.540000
264.813202	146.280000
264.906158	146.300000
264.999115	147.160000
265.092072	147.060000
265.185028	147.240000
265.277985	147.400000
265.370941	147.380000
265.463898	146.920000
265.556854	146.780000
265.649811	145.980000
265.742798	146.240000
265.835754	146.280000
265.928711	146.700000
266.021667	146.760000
266.114655	147.460000
266.207611	147.600000
266.300568	146.800000
266.393585	146.320000
266.486511	146.760000
266.579498	146.000000
266.672485	145.740000
266.765442	146.040000
266.858429	146.580000
266.951385	145.960000
267.044342	146.220000
267.137329	146.080000
267.230316	146.400000
267.323273	145.940000
267.416260	146.680000
267.509216	146.580000
267.602203	146.580000
267.695160	146.680000
267.788147	146.560000
267.881134	145.620000
267.974091	145.920000
268.067078	145.960000
268.160065	145.660000
268.253052	145.680000
268.346008	146.040000
268.438995	145.780000
268.531982	145.860000
268.624969	145.780000
268.717987	146.100000
268.810944	146.100000
268.903961	146.200000
268.996948	145.740000
269.089905	145.960000
269.182892	146.140000
269.275879	146.420000
269.368866	146.240000
269.461853	146.880000
269.554871	146.860000
269.647858	146.580000
269.740845	146.920000
269.833832	147.340000
269.926819	147.080000
270.019806	147.120000
270.112793	146.880000
270.205811	146.720000
270.298798	146.360000
270.391785	146.840000
270.484772	146.660000
270.577789	146.800000
270.670776	146.520000
270.763763	146.440000
270.856750	146.140000
270.949768	146.100000
271.042786	146.280000
271.135773	146.140000
271.228790	146.600000
271.321808	145.980000
271.414795	145.640000
271.507782	145.260000
271.600800	144.900000
271.693817	144.980000
271.786804	145.740000
271.879822	146.300000
271.972809	146.460000
272.065826	147.180000
272.158844	146.540000
272.251831	146.880000
272.344849	146.720000
272.437866	146.280000
272.530853	146.380000
272.623871	146.640000
272.716888	145.660000
272.809906	146.120000
272.902893	146.300000
272.995911	145.500000
273.088928	145.420000
273.181946	145.680000
273.274963	144.880000
273.367981	145.260000
273.460999	145.880000
273.554047	146.340000
273.647003	147.160000
273.740051	147.460000
273.833069	147.700000
273.926086	147.820000
274.019135	147.560000
274.112152	146.720000
274.205170	146.640000
274.298187	146.600000
274.391205	145.960000
274.484222	145.980000
274.577240	146.380000
274.670258	146.380000
274.763306	145.980000
274.856323	146.680000
274.949341	146.620000
275.042358	146.620000
275.135406	146.680000
275.228424	146.900000
275.321442	146.460000
275.414490	146.020000
275.507507	146.320000
275.600525	146.840000
275.693573	146.520000
275.786591	146.300000
275.879669	147.000000
275.972656	146.280000
276.065735	145.800000
276.158752	146.600000
276.251801	147.400000
276.344818	147.160000
276.437866	147.540000
276.530884	147.380000
276.623932	146.600000
276.716980	146.300000
276.809998	146.480000
276.903046	146.440000
276.996094	147.260000
277.089111	147.940000
277.182159	148.540000
277.275208	148.200000
277.368256	148.240000
277.461304	148.000000
277.554321	147.300000
277.647369	146.740000
277.740417	146.880000
277.833466	146.560000
277.926514	146.020000
278.019562	146.500000
278.112610	146.060000
278.205688	146.040000
278.298706	146.380000
278.391785	146.520000
278.484833	146.180000
278.577881	146.200000
278.670929	146.500000
278.763977	146.380000
278.857025	146.900000
278.950073	147.160000
279.043121	147.140000
279.136169	146.920000
279.229248	146.600000
279.322296	146.500000
279.415344	146.020000
279.508392	146.100000
279.601440	146.120000
279.694519	146.300000
279.787567	145.840000
279.880615	145.940000
279.973694	146.000000
280.066742	145.960000
280.159790	146.160000
280.252869	145.880000
280.345917	146.100000
280.438995	146.120000
280.532074	145.960000
280.625122	146.240000
280.718201	147.220000
280.811279	147.220000
280.904327	147.300000
280.997406	147.460000
281.090454	147.260000
281.183533	146.520000
281.276581	146.280000
281.369659	146.100000
281.462738	146.080000
281.555786	145.980000
281.648865	146.500000
281.741943	146.520000
281.835022	147.220000
281.928070	146.900000
282.021149	146.580000
282.114227	146.160000
282.207306	146.340000
282.300385	146.240000
282.393433	146.820000
282.486511	147.340000
282.579590	147.620000
282.672668	147.760000
282.765747	147.000000
282.858856	146.760000
282.951904	146.580000
283.045013	146.680000
283.138062	147.080000
283.231171	147.680000
283.324249	147.840000
283.417328	147.900000
283.510406	147.340000
283.603485	146.820000
283.696564	146.520000
283.789642	146.540000
283.882751	146.000000
283.975830	146.880000
284.068909	146.740000
284.161987	147.380000
284.255066	147.040000
284.348175	147.480000
284.441254	147.220000
284.534332	147.700000
284.627441	147.040000
284.720520	146.840000
284.813599	146.960000
284.906708	146.680000
284.999786	146.020000
285.092896	145.620000
285.185974	146.660000
285.279053	146.220000
285.372192	146.380000
285.465240	147.180000
285.558380	147.400000
285.651459	146.760000
285.744568	147.880000
285.837677	147.460000
285.930756	147.240000
286.023865	147.400000
286.116943	147.200000
286.210052	146.720000
286.303162	146.780000
286.396240	146.740000
286.489349	146.680000
286.582458	146.920000
286.675568	146.280000
286.768646	146.320000
286.861755	146.540000
286.954865	147.080000
287.047974	146.320000
287.141083	146.520000
287.234161	146.400000
287.327271	146.200000
287.420380	146.240000
287.513519	146.660000
287.606598	146.640000
287.699738	146.860000
287.792816	146.500000
287.885956	146.360000
287.979034	146.380000
288.072174	146.500000
288.165283	146.420000
288.258392	146.680000
288.351501	146.140000
288.444611	146.300000
288.537720	146.560000
288.630859	146.360000
288.723969	146.600000
288.817078	147.160000
288.910187	147.260000
289.003296	146.840000
289.096436	147.040000
289.189545	146.820000
289.282654	146.060000
289.375763	146.280000
289.468903	146.720000
289.562012	146.980000
289.655121	146.760000
289.748260	147.060000
289.841400	147.420000
289.934509	147.220000
290.027649	147.300000
290.120728	147.260000
290.213898	147.360000
290.306976	146.740000
290.400146	146.780000
290.493256	146.000000
290.586395	146.280000
290.679535	146.540000
290.772644	146.320000
290.865784	145.520000
290.958893	145.720000
291.052032	145.520000
291.145172	145.200000
291.238281	145.020000
291.331421	145.440000
291.424561	146.060000
291.517670	145.820000
291.610809	146.160000
291.703949	146.260000
291.797089	146.660000
291.890228	145.900000
291.983337	146.380000
292.076477	146.220000
292.169617	146.540000
292.262756	146.240000
292.355927	146.480000
292.449036	146.080000
292.542206	146.120000
292.635315	146.340000
292.728485	146.420000
292.821625	146.140000
292.914764	147.120000
293.007904	147.020000
293.101044	146.700000
293.194183	146.760000
293.287323	146.960000
293.380463	146.180000
293.473602	146.260000
293.566742	146.600000
293.659882	147.000000
293.753021	147.200000
293.846191	146.960000
293.939331	146.480000
294.032471	146.040000
294.125610	145.780000
294.218781	146.300000
294.311920	147.000000
294.405060	147.380000
294.498230	147.300000
294.591370	147.280000
294.684540	146.260000
294.777679	145.480000
294.870850	145.560000
294.963959	145.400000
295.057159	145.180000
295.150299	145.440000
295.243469	145.660000
295.336609	145.260000
295.429779	145.480000
295.522919	145.800000
295.616089	146.040000
295.709229	146.420000
295.802399	146.500000
295.895569	146.320000
295.988708	146.320000
296.081879	146.540000
296.175018	146.020000
296.268188	146.060000
296.361359	146.620000
296.454529	146.700000
296.547668	146.400000
296.640839	146.860000
296.734009	146.980000
296.827179	146.800000
296.920319	146.940000
297.013519	146.740000
297.106659	146.640000
297.199860	146.720000
297.292999	146.720000
297.386200	146.200000
297.479309	146.200000
297.572510	146.080000
297.665680	145.800000
297.758850	145.920000
297.852020	145.940000
297.945190	145.920000
298.038361	145.580000
298.131531	146.600000
298.224701	146.400000
298.317871	146.260000
298.411072	146.000000
298.504242	146.140000
298.597412	145.220000
298.690582	145.440000
298.783752	145.640000
298.876923	146.220000
298.970093	146.360000
299.063293	146.780000
299.156464	146.880000
299.249634	147.220000
299.342834	147.420000
299.436005	147.720000
299.529205	147.420000
299.622345	147.400000
299.715576	146.360000
299.808716	146.180000
299.901917	146.260000
299.995117	146.580000
300.088287	146.620000
300.181488	146.740000
300.274658	146.480000
300.367828	146.080000
300.461029	145.800000
300.554199	145.880000
300.647400	146.260000
300.740601	146.760000
300.833771	146.500000
300.926971	146.840000
301.020142	146.020000
301.113342	145.900000
301.206512	145.520000
301.299713	145.960000
301.392914	145.820000
301.486084	146.320000
301.579285	146.620000
301.672516	147.320000
301.765686	147.160000
301.858887	146.820000
301.952057	146.800000
302.045288	146.740000
302.138458	146.360000
302.231659	146.260000
302.324860	146.260000
302.418060	146.180000
302.511261	146.200000
302.604462	146.060000
302.697662	146.180000
302.790863	146.100000
302.884064	145.680000
302.977264	145.780000
303.070465	146.180000
303.163666	146.840000
303.256866	146.960000
303.350067	147.340000
303.443268	147.420000
303.536469	147.160000
303.629669	146.380000
303.722870	146.500000
303.816071	146.520000
303.909271	146.260000
304.002472	145.540000
304.095673	145.540000
304.188934	144.760000
304.282104	145.280000
304.375336	145.400000
304.468506	145.640000
304.561768	145.440000
304.654968	146.680000
304.748169	146.180000
304.841370	145.800000
304.934601	146.300000
305.027802	146.300000
305.121002	145.660000
305.214233	145.780000
305.307434	146.040000
305.400665	146.520000
305.493866	146.320000
305.587097	146.400000
305.680298	146.060000
305.773499	146.580000
305.866730	146.020000
305.959930	146.780000
306.053162	147.360000
306.146393	147.400000
306.239594	146.320000
306.332825	146.180000
306.426025	146.220000
306.519287	145.420000
306.612488	145.580000
306.705719	145.940000
306.798920	146.160000
306.892181	145.420000
306.985352	145.240000
307.078613	144.760000
307.171844	145.280000
307.265045	144.640000
307.358276	144.420000
307.451508	144.940000
307.544739	145.680000
307.637970	145.000000
307.731201	144.980000
307.824402	146.000000
307.917633	146.260000
308.010864	146.500000
308.104095	147.040000
308.197327	147.520000
308.290558	147.100000
308.383789	146.380000
308.477020	145.620000
308.570251	144.820000
308.663483	144.260000
308.756714	144.340000
308.849976	144.660000
308.943176	145.560000
309.036438	145.660000
309.129639	145.880000
309.222900	145.800000
309.316101	145.680000
309.409393	145.020000
309.502625	145.080000
309.595856	145.140000
309.689087	145.140000
309.782318	145.480000
309.875580	145.640000
309.968811	146.120000
310.062042	146.160000
310.155273	146.320000
310.248535	146.480000
310.341766	146.280000
310.434998	146.020000
310.528259	145.820000
310.621490	146.300000
310.714722	145.340000
310.807983	145.740000
310.901215	145.980000
310.994476	146.160000
311.087708	145.700000
311.181000	146.220000
311.274200	145.780000
311.367462	145.680000
311.460693	145.400000
311.553986	145.820000
311.647186	146.180000
311.740479	146.800000
311.833710	146.500000
311.926971	146.840000
312.020203	145.860000
312.113464	145.600000
312.206726	144.860000
312.299957	145.100000
312.393219	145.600000
312.486481	146.300000
312.579712	146.240000
312.672974	146.380000
312.766235	146.180000
312.859497	145.840000
312.952759	145.600000
313.045990	146.500000
313.139252	146.140000
313.232513	146.740000
313.325775	146.800000
313.419037	146.420000
313.512299	145.680000
313.605530	146.280000
313.698822	146.140000
313.792053	146.260000
313.885345	146.160000
313.978577	146.200000
314.071869	145.780000
314.165131	146.020000
314.258392	146.000000
314.351654	146.580000
314.444916	145.880000
314.538177	146.520000
314.631439	146.440000
314.724701	146.120000
314.817993	145.880000
314.911255	146.380000
315.004517	145.800000
315.097778	145.760000
315.191040	146.360000
315.284302	146.600000
315.377594	146.280000
315.470856	146.280000
315.564117	145.640000
315.657379	144.960000
315.750671	144.620000
315.843933	145.060000
315.937195	144.560000
316.030518	144.620000
316.123749	144.720000
316.217041	145.380000
316.310303	145.420000
316.403595	146.320000
316.496857	146.440000
316.590149	146.820000
316.683411	146.300000
316.776703	146.240000
316.869965	145.920000
316.963257	146.060000
317.056519	145.060000
317.149811	144.880000
317.243073	144.940000
317.336365	145.180000
317.429626	145.280000
317.522919	146.180000
317.616180	146.200000
317.709473	145.840000
317.802765	145.580000
317.896027	145.320000
317.989319	145.560000
318.082611	145.620000
318.175873	145.640000
318.269165	145.800000
318.362488	146.100000
318.455750	145.440000
318.549042	145.620000
318.642303	146.500000
318.735626	146.280000
318.828888	146.520000
318.922211	146.540000
319.015472	147.200000
319.108765	146.240000
319.202057	146.040000
319.295349	145.960000
319.388641	146.100000
319.481934	145.700000
319.575226	145.580000
319.668518	145.980000
319.761810	145.840000
319.855103	145.900000
319.948395	145.840000
320.041687	146.100000
320.134979	146.140000
320.228271	145.980000
320.321564	145.920000
320.414856	145.740000
320.508148	145.520000
320.601440	145.520000
320.694763	145.480000
320.788025	146.080000
320.881348	146.080000
320.974640	146.120000
321.067963	145.420000
321.161224	145.820000
321.254547	144.760000
321.347839	145.420000
321.441162	145.340000
321.534454	145.840000
321.627747	145.180000
321.721069	146.420000
321.814362	146.120000
321.907654	146.440000
322.000946	146.500000
322.094269	147.460000
322.187561	146.580000
322.280884	146.780000
322.374176	146.760000
322.467468	147.020000
322.560791	146.440000
322.654083	146.860000
322.747406	146.820000
322.840698	147.220000
322.934021	147.260000
323.027344	147.600000
323.120636	147.360000
323.213959	146.680000
323.307251	146.040000
323.400574	145.740000
323.493866	145.260000
323.587219	145.460000
323.680511	146.020000
323.773834	146.200000
323.867157	146.380000
323.960449	146.620000
324.053772	146.080000
324.147095	145.820000
324.240387	146.300000
324.333710	146.120000
324.427032	146.260000
324.520355	146.820000
324.613647	146.880000
324.706970	146.480000
324.800293	146.660000
324.893616	146.720000
324.986938	146.820000
325.080231	146.700000
325.173553	147.080000
325.266876	147.240000
325.360199	147.180000
325.453522	146.740000
325.546875	146.580000
325.640167	146.760000
325.733521	147.000000
325.826813	147.280000
325.920166	147.380000
326.013489	147.300000
326.106812	146.220000
326.200134	145.720000
326.293457	144.960000
326.386780	145.020000
326.480103	144.860000
326.573425	145.400000
326.666748	145.240000
326.760071	146.000000
326.853424	146.220000
326.946747	146.600000
327.040070	147.260000
327.133392	147.240000
327.226715	146.280000
327.320068	145.660000
327.413391	146.120000
327.506714	145.360000
327.600037	145.520000
327.693390	145.880000
327.786713	145.820000
327.880066	145.340000
327.973358	145.640000
328.066742	146.000000
328.160034	146.380000
328.253418	147.160000
328.346710	146.820000
328.440063	146.300000
328.533417	145.680000
328.626740	145.700000
328.720093	145.360000
328.813416	145.720000
328.906769	145.820000
329.000092	146.440000
329.093445	146.080000
329.186768	145.880000
329.280121	146.500000
329.373444	146.840000
329.466797	146.560000
329.560120	146.960000
329.653473	147.240000
329.746796	146.360000
329.840149	146.280000
329.933502	146.560000
330.026825	146.100000
330.120178	145.900000
330.213562	145.920000
330.306854	145.680000
330.400238	145.420000
330.493561	145.360000
330.586945	145.640000
330.680237	146.160000
330.773621	146.640000
330.866974	146.540000
330.960327	146.820000
331.053680	146.700000
331.147003	146.680000
331.240356	146.820000
331.333710	146.980000
331.427063	146.740000
331.520416	146.520000
331.613770	146.080000
331.707123	145.940000
331.800476	146.140000
331.893829	147.040000
331.987152	147.620000
332.080505	148.000000
332.173859	147.880000
332.267212	147.200000
332.360565	146.480000
332.453918	145.960000
332.547333	145.620000
332.640656	145.720000
332.734039	146.020000
332.827362	145.900000
332.920746	146.300000
333.014069	146.800000
333.107452	146.980000
333.200806	147.180000
333.294159	147.400000
333.387543	147.180000
333.480896	146.520000
333.574249	146.240000
333.667603	146.040000
333.760956	146.160000
333.854340	146.080000
333.947693	146.380000
334.041046	146.480000
334.134430	146.440000
334.227783	146.000000
334.321136	145.900000
334.414520	145.680000
334.507874	145.680000
334.601227	145.880000
334.694611	145.900000
334.787964	146.000000
334.881348	146.320000
334.974701	146.160000
335.068085	145.760000
335.161438	146.260000
335.254822	145.980000
335.348175	145.820000
335.441559	145.600000
335.534943	146.520000
335.628296	146.040000
335.721680	146.140000
335.815033	146.320000
335.908417	146.540000
336.001770	146.000000
336.095154	146.400000
336.188538	146.420000
336.281891	146.180000
336.375275	145.840000
336.468658	145.760000
336.562012	145.400000
336.655396	145.920000
336.748779	146.060000
336.842133	146.300000
336.935516	146.420000
337.028900	146.420000
337.122284	146.040000
337.215637	146.380000
337.309021	146.220000
337.402435	145.800000
337.495789	145.760000
337.589203	145.540000
337.682526	145.240000
337.775940	145.580000
337.869324	146.140000
337.962708	145.880000
338.056091	146.300000
338.149475	145.780000
338.242859	145.860000
338.336243	145.400000
338.429626	145.740000
338.523010	145.620000
338.616394	145.620000
338.709778	145.540000
338.803162	145.960000
338.896545	146.140000
338.989929	145.640000
339.083313	146.240000
339.176697	146.100000
339.270081	145.880000
339.363464	146.120000
339.456848	146.720000
339.550232	146.060000
339.643616	145.720000
339.737030	145.460000
339.830383	144.860000
339.923828	144.760000
340.017181	145.320000
340.110596	145.820000
340.203949	146.160000
340.297363	146.140000
340.390778	146.180000
340.484161	146.120000
340.577545	145.940000
340.670959	145.720000
340.764343	145.620000
340.857727	145.480000
340.951111	144.940000
341.044525	145.180000
341.137909	144.680000
341.231293	144.800000
341.324707	144.340000
341.418091	145.240000
341.511505	145.140000
341.604889	146.000000
341.698303	146.420000
341.791687	146.800000
341.885071	146.300000
341.978485	146.360000
342.071899	146.380000
342.165283	146.480000
342.258698	146.840000
342.352081	147.080000
342.445496	147.540000
342.538879	147.040000
342.632324	146.420000
342.725708	146.260000
342.819122	145.820000
342.912506	145.240000
343.005920	145.380000
343.099335	146.340000
343.192719	146.260000
343.286133	146.360000
343.379547	146.620000
343.472931	146.840000
343.566345	146.260000
343.659760	146.540000
343.753143	146.340000
343.846558	145.780000
343.939972	145.420000
344.033386	145.800000
344.126770	145.620000
344.220184	145.800000
344.313599	146.500000
344.407043	146.880000
344.500427	146.100000
344.593872	146.180000
344.687225	146.420000
344.780670	145.680000
344.874054	145.440000
344.967499	145.980000
345.060913	146.160000
345.154327	145.740000
345.247742	145.600000
345.341156	145.600000
345.434570	145.360000
345.527985	145.120000
345.621399	145.460000
345.714813	145.760000
345.808228	146.000000
345.901642	146.100000
345.995056	145.900000
346.088470	145.960000
346.181885	146.140000
346.275299	145.820000
346.368713	145.600000
346.462128	145.160000
346.555573	145.160000
346.648987	145.380000
346.742401	145.600000
346.835815	145.980000
346.929260	146.040000
347.022644	145.880000
347.116119	145.700000
347.209503	146.080000
347.302948	146.680000
347.396362	147.600000
347.489807	147.760000
347.583221	148.400000
347.676636	148.060000
347.770050	146.960000
347.863495	146.140000
347.956909	146.120000
348.050323	145.520000
348.143768	145.440000
348.237183	145.520000
348.330597	146.360000
348.424042	146.680000
348.517456	147.040000
348.610901	147.300000
348.704315	147.380000
348.797760	146.400000
348.891174	145.640000
348.984619	144.900000
349.078033	144.980000
349.171448	145.680000
349.264923	146.220000
349.358337	146.500000
349.451782	146.860000
349.545197	146.240000
349.638641	145.260000
349.732086	144.760000
349.825500	145.120000
349.918945	144.560000
350.012390	145.180000
350.105804	146.180000
350.199249	146.300000
350.292664	146.480000
350.386108	146.960000
350.479553	147.060000
350.572968	146.520000
350.666412	146.960000
350.759857	146.660000
350.853302	147.080000
350.946716	146.760000
351.040161	146.980000
351.133606	146.900000
351.227081	146.580000
351.320465	147.100000
351.413940	147.260000
351.507355	147.400000
351.600830	147.200000
351.694244	147.200000
351.787720	146.740000
351.881104	146.660000
351.974579	146.080000
352.067993	147.040000
352.161469	147.420000
352.254883	146.840000
352.348358	146.680000
352.441803	146.900000
352.535248	146.260000
352.628693	146.440000
352.722137	146.480000
352.815582	146.400000
352.909027	146.660000
353.002472	146.300000
353.095917	145.780000
353.189362	145.980000
353.282806	145.940000
353.376251	145.480000
353.469696	145.180000
353.563141	145.980000
353.656586	145.680000
353.750061	145.220000
353.843475	145.560000
353.936981	146.180000
354.030396	145.260000
354.123871	145.380000
354.217285	146.520000
354.310760	146.700000
354.404175	146.700000
354.497681	146.520000
354.591095	146.720000
354.684570	145.600000
354.777985	144.980000
354.871490	144.460000
354.964935	145.160000
355.058380	145.280000
355.151855	145.700000
355.245300	146.220000
355.338745	146.900000
355.432220	146.880000
355.525665	146.420000
355.619110	146.900000
355.712585	146.620000
355.806030	146.100000
355.899475	145.780000
355.992950	146.120000
356.086426	146.520000
356.179871	146.840000
356.273346	147.000000
356.366791	146.900000
356.460266	147.060000
356.553711	145.980000
356.647186	145.820000
356.740631	145.860000
356.834106	146.060000
356.927551	145.780000
357.021027	146.020000
357.114471	145.960000
357.207947	146.000000
357.301422	146.140000
357.394867	146.400000
357.488342	146.740000
357.581818	147.180000
357.675262	147.420000
357.768738	147.280000
357.862213	146.760000
357.955658	146.580000
358.049133	146.100000
358.142609	146.540000
358.236053	146.580000
358.329529	146.580000
358.423035	146.700000
358.516449	146.380000
358.609955	146.180000
358.703400	146.740000
358.796906	147.140000
358.890350	146.640000
358.983826	147.260000
359.077271	146.380000
359.170776	145.780000
359.264221	145.540000
359.357727	146.120000
359.451172	146.380000
359.544647	146.700000
359.638123	146.640000
359.731598	146.880000
359.825073	147.020000
359.918549	146.560000
360.012024	146.680000
360.105499	146.540000
360.198975	146.640000
360.292450	146.240000
360.385925	146.300000
360.479401	145.880000
360.572876	146.200000
360.666351	146.340000
360.759857	146.200000
360.853302	145.900000
360.946808	145.920000
361.040253	145.840000
361.133759	145.420000
361.227203	145.480000
361.320709	145.220000
361.414154	145.540000
361.507660	145.800000
361.601105	146.260000
361.694641	146.920000
361.788086	147.140000
361.881592	147.460000
361.975067	147.080000
362.068542	147.240000
362.162018	146.920000
362.255524	146.660000
362.348999	146.420000
362.442474	146.800000
362.535950	146.220000
362.629456	146.100000
362.722931	146.300000
362.816406	146.500000
362.909882	146.400000
363.003387	146.160000
363.096863	146.440000
363.190338	146.360000
363.283875	146.060000
363.377319	146.060000
363.470825	146.500000
363.564301	145.940000
363.657806	146.340000
363.751282	146.320000
363.844788	147.060000
363.938232	146.580000
364.031769	147.460000
364.125214	147.420000
364.218750	147.980000
364.312225	146.740000
364.405731	146.980000
364.499207	146.220000
364.592712	145.900000
364.686188	145.340000
364.779694	145.800000
364.873169	145.780000
364.966675	145.980000
365.060150	146.320000
365.153656	146.760000
365.247131	146.680000
365.340637	147.080000
365.434143	147.660000
365.527618	147.580000
365.621155	146.800000
365.714600	146.840000
365.808136	146.660000
365.901611	145.280000
365.995117	145.000000
366.088593	145.240000
366.182129	145.100000
366.275604	145.260000
366.369110	145.760000
366.462585	145.840000
366.556122	146.520000
366.649567	146.560000
366.743103	146.280000
366.836609	146.180000
366.930115	146.400000
367.023590	146.000000
367.117096	145.840000
367.210602	145.720000
367.304108	146.200000
367.397614	146.380000
367.491119	146.420000
367.584595	146.960000
367.678101	147.660000
367.771606	147.280000
367.865112	147.220000
367.958649	146.780000
368.052124	146.200000
368.145660	145.460000
368.239136	146.120000
368.332672	146.100000
368.426147	146.460000
368.519684	146.560000
368.613159	147.160000
368.706696	146.400000
368.800171	146.460000
368.893707	146.300000
368.987183	146.440000
369.080719	146.280000
369.174225	146.240000
369.267731	146.240000
369.361237	146.360000
369.454742	146.320000
369.548248	146.620000
369.641754	146.620000
369.735260	146.440000
369.828766	145.960000
369.922272	146.440000
370.015808	145.860000
370.109314	145.740000
370.202820	145.320000
370.296356	146.180000
370.389832	145.660000
370.483368	145.520000
370.576874	145.580000
370.670410	146.240000
370.763885	145.520000
370.857422	145.400000
370.950928	145.580000
371.044464	146.380000
371.137939	146.060000
371.231476	146.520000
371.324982	147.180000
371.418518	147.260000
371.512024	147.000000
371.605560	146.560000
371.699066	146.620000
371.792572	146.080000
371.886108	146.580000
371.979614	146.160000
372.073120	147.020000
372.166656	146.880000
372.260162	147.160000
372.353668	146.500000
372.447205	146.340000
372.540710	146.120000
372.634277	145.620000
372.727753	145.640000
372.821320	145.760000
372.914795	146.260000
373.008362	146.180000
373.101837	146.720000
373.195404	146.240000
373.288879	145.940000
373.382446	146.140000
373.475922	145.960000
373.569489	146.420000
373.662964	147.120000
373.756531	147.460000
373.850037	147.480000
373.943573	147.160000
374.037109	146.280000
374.130615	146.040000
374.224152	146.380000
374.317657	146.060000
374.411194	147.400000
374.504730	147.420000
374.598236	147.320000
374.691772	146.700000
374.785309	146.800000
374.878815	145.540000
374.972351	146.060000
375.065887	145.820000
375.159454	146.420000
375.252930	146.320000
375.346497	147.040000
375.440002	147.440000
375.533569	147.500000
375.627045	146.840000
375.720612	146.620000
375.814117	146.600000
375.907684	145.960000
376.001160	145.560000
376.094727	145.260000
376.188232	145.920000
376.281799	145.880000
376.375336	146.000000
376.468872	146.600000
376.562408	146.940000
376.655914	146.340000
376.749451	145.900000
376.842987	145.880000
376.936523	145.680000
377.030060	145.780000
377.123596	146.260000
377.217133	146.100000
377.310669	146.080000
377.404205	146.360000
377.497772	146.620000
377.591278	146.240000
377.684845	147.120000
377.778351	147.260000
377.871918	147.300000
377.965424	146.620000
378.058990	146.520000
378.152496	145.860000
378.246063	145.760000
378.339569	145.680000
378.433136	145.840000
378.526642	145.920000
378.620209	145.960000
378.713745	145.500000
378.807312	145.920000
378.900848	146.120000
378.994385	146.640000
379.087921	146.140000
379.181458	146.740000
379.274994	145.740000
379.368530	145.820000
379.462097	145.700000
379.555634	146.540000
379.649170	145.980000
379.742706	146.300000
379.836273	146.280000
379.929810	146.020000
380.023376	145.520000
380.116882	145.680000
380.210449	145.720000
380.303986	145.520000
380.397552	144.880000
380.491058	145.360000
380.584656	145.220000
380.678162	145.380000
380.771729	145.420000
380.865265	146.660000
380.958832	146.380000
381.052368	146.560000
381.145935	146.840000
381.239471	147.340000
381.333008	146.780000
381.426575	146.760000
381.520111	147.060000
381.613647	147.100000
381.707214	146.580000
381.800751	146.060000
381.894318	146.420000
381.987854	145.940000
382.081421	145.520000
382.174988	145.960000
382.268524	145.900000
382.362091	145.820000
382.455627	146.780000
382.549194	146.640000
382.642731	145.660000
382.736298	145.860000
382.829834	145.380000
382.923401	145.500000
383.016937	145.800000
383.110504	146.680000
383.204041	146.880000
383.297607	147.440000
383.391174	146.620000
383.484741	147.400000
383.578278	146.780000
383.671844	146.200000
383.765411	145.420000
383.858948	145.760000
383.952515	145.080000
384.046051	145.600000
384.139618	146.120000
384.233185	146.700000
384.326721	146.500000
384.420288	147.040000
384.513855	146.820000
384.607422	147.060000
384.700989	147.260000
384.794525	146.780000
384.888123	146.180000
384.981659	146.480000
385.075226	146.120000
385.168762	145.760000
385.262360	145.840000
385.355896	145.020000
385.449463	144.800000
385.542999	144.760000
385.636597	145.340000
385.730164	145.800000
385.823730	146.260000
385.917267	145.880000
386.010834	145.900000
386.104401	145.540000
386.197968	145.860000
386.291534	146.040000
386.385101	146.560000
386.478668	147.200000
386.572235	147.100000
386.665802	146.240000
386.759338	146.000000
386.852905	145.820000
386.946472	144.980000
387.040070	145.260000
387.133606	145.400000
387.227203	145.320000
387.320740	145.700000
387.414337	145.820000
387.507874	145.440000
387.601471	145.640000
387.695007	145.760000
387.788605	145.280000
387.882141	145.580000
387.975739	145.680000
388.069275	145.400000
388.162872	145.420000
388.256439	145.180000
388.350037	144.920000
388.443604	144.860000
388.537170	145.100000
388.630737	145.600000
388.724304	145.980000
388.817871	145.960000
388.911438	145.940000
389.005005	146.140000
389.098602	146.380000
389.192169	146.160000
389.285736	146.800000
389.379333	146.840000
389.472870	146.120000
389.566467	145.620000
389.660034	145.720000
389.753632	144.960000
389.847168	145.400000
389.940765	145.640000
390.034332	145.920000
390.127930	145.440000
390.221466	145.660000
390.315063	144.840000
390.408630	144.580000
390.502228	143.840000
390.595795	144.340000
390.689362	144.580000
390.782959	144.900000
390.876526	145.500000
390.970093	145.500000
391.063690	146.000000
391.157257	146.180000
391.250824	146.600000
391.344421	146.540000
391.437988	146.880000
391.531555	146.900000
391.625153	146.820000
391.718750	146.960000
391.812317	147.060000
391.905914	146.640000
391.999481	146.520000
392.093079	146.220000
392.186615	146.200000
392.280243	145.920000
392.373779	146.620000
392.467407	146.720000
392.560944	146.640000
392.654572	146.340000
392.748108	146.560000
392.841736	146.400000
392.935303	145.980000
393.028900	146.020000
393.122467	145.960000
393.216064	145.400000
393.309631	144.700000
393.403229	144.460000
393.496796	144.460000
393.590393	143.920000
393.683990	144.560000
393.777557	145.480000
393.871155	145.720000
393.964722	146.260000
394.058350	146.680000
394.151917	146.540000
394.245514	146.180000
394.339081	146.800000
394.432678	146.820000
394.526245	147.000000
394.619873	146.680000
394.713409	146.980000
394.807037	146.120000
394.900604	145.800000
394.994202	145.800000
395.087769	146.020000
395.181396	145.660000
395.274994	146.680000
395.368561	146.220000
395.462158	146.500000
395.555756	146.460000
395.649353	146.700000
395.742920	145.960000
395.836517	146.600000
395.930115	145.620000
396.023712	145.740000
396.117279	145.740000
396.210876	145.440000
396.304474	145.280000
396.398071	145.660000
396.491669	146.060000
396.585266	146.000000
396.678833	146.160000
396.772461	146.440000
396.866028	146.560000
396.959656	146.760000
397.053223	147.000000
397.146851	147.060000
397.240417	147.280000
397.334015	148.180000
397.427582	147.920000
397.521210	148.320000
397.614807	149.240000
397.708405	150.060000
397.802002	150.620000
397.895599	152.540000
397.989197	153.900000
398.082794	155.620000
398.176392	157.580000
398.269989	159.960000
398.363586	162.400000
398.457184	166.280000
398.550781	169.920000
398.644379	172.700000
398.737976	175.440000
398.831573	177.680000
398.925201	178.720000
399.018768	179.620000
399.112396	181.000000
399.205963	182.300000
399.299591	183.400000
399.393158	184.460000
399.486786	186.020000
399.580353	186.680000
399.673981	187.540000
399.767578	188.380000
399.861206	189.720000
399.954773	190.960000
400.048401	192.060000
400.141998	191.780000
400.235596	192.280000
400.329193	190.740000
400.422791	188.560000
400.516418	186.620000
400.610016	185.220000
400.703613	183.780000
400.797211	182.300000
400.890808	181.060000
400.984436	180.340000
401.078033	179.080000
401.171631	176.680000
401.265259	175.040000
401.358826	173.320000
401.452484	170.640000
401.546051	168.660000
401.639679	166.280000
401.733246	164.200000
401.826904	162.020000
401.920471	159.420000
402.014099	156.960000
402.107697	155.120000
402.201324	153.620000
402.294891	152.120000
402.388550	151.360000
402.482147	150.640000
402.575745	149.540000
402.669373	148.580000
402.762970	147.880000
402.856567	147.500000
402.950195	147.420000
403.043793	147.420000
403.137390	147.960000
403.231018	147.440000
403.324615	147.900000
403.418243	147.340000
403.511841	147.680000
403.605469	146.980000
403.699066	147.300000
403.792694	146.940000
403.886292	147.160000
403.979919	146.980000
404.073517	147.140000
404.167145	147.720000
404.260712	147.640000
404.354370	147.480000
404.447937	147.480000
404.541595	147.620000
404.635162	147.400000
404.728821	147.640000
404.822418	147.240000
404.916046	146.960000
405.009644	147.060000
405.103271	147.080000
405.196899	146.860000
405.290497	147.160000
405.384125	147.820000
405.477722	147.160000
405.571350	146.400000
405.664948	146.600000
405.758575	146.240000
405.852203	145.400000
405.945801	145.820000
406.039429	145.960000
406.133057	145.460000
406.226654	145.760000
406.320312	145.900000
406.413879	146.020000
406.507538	146.280000
406.601135	146.160000
406.694763	146.660000
406.788361	146.360000
406.882019	145.720000
406.975586	146.180000
407.069244	146.680000
407.162872	146.120000
407.256470	146.240000
407.350098	146.620000
407.443726	145.920000
407.537323	145.380000
407.630951	145.760000
407.724579	145.740000
407.818207	145.920000
407.911804	145.980000
408.005432	146.100000
408.099060	146.140000
408.192688	146.260000
408.286285	146.020000
408.379913	145.880000
408.473572	145.940000
408.567169	145.360000
408.660828	145.320000
408.754395	145.180000
408.848053	145.400000
408.941650	145.640000
409.035309	145.440000
409.128906	145.500000
409.222565	145.600000
409.316132	145.740000
409.409790	145.360000
409.503387	145.320000
409.597046	145.520000
409.690674	145.640000
409.784302	145.680000
409.877930	145.460000
409.971558	145.880000
410.065186	145.720000
410.158783	145.620000
410.252411	145.520000
410.346039	146.100000
410.439667	146.260000
410.533295	146.300000
410.626923	146.540000
410.720551	146.060000
410.814209	146.400000
410.907806	146.380000
411.001465	145.940000
411.095062	145.800000
411.188721	146.300000
411.282318	145.780000
411.375977	145.500000
411.469574	145.940000
411.563232	145.400000
411.656830	145.160000
411.750488	145.220000
411.844086	144.980000
411.937744	145.280000
412.031372	145.780000
412.125000	145.840000
412.218628	145.700000
412.312256	146.640000
412.405884	146.700000
412.499512	146.540000
412.593170	146.840000
412.686798	146.880000
412.780426	146.220000
412.874054	146.080000
412.967682	146.180000
413.061310	146.520000
413.154968	146.740000
413.248566	146.820000
413.342224	146.480000
413.435852	146.540000
413.529510	145.780000
413.623108	145.260000
413.716766	145.180000
413.810364	145.840000
413.904022	145.600000
413.997650	145.440000
414.091309	146.080000
414.184906	145.900000
414.278564	145.180000
414.372192	145.560000
414.465851	145.900000
414.559479	145.740000
414.653107	146.720000
414.746735	146.660000
414.840393	146.500000
414.934021	146.760000
415.027649	146.540000
415.121277	146.200000
415.214935	146.940000
415.308563	146.980000
415.402191	146.540000
415.495850	146.740000
415.589478	146.360000
415.683136	145.720000
415.776733	145.800000
415.870422	146.140000
415.964020	145.800000
416.057678	145.700000
416.151306	145.680000
416.244965	145.580000
416.338562	145.520000
416.432251	145.820000
416.525848	146.880000
416.619507	147.380000
416.713165	147.460000
416.806793	147.340000
416.900421	147.600000
416.994080	146.760000
417.087708	146.340000
417.181366	145.820000
417.274994	145.740000
417.368622	145.680000
417.462280	145.900000
417.555908	146.200000
417.649567	146.420000
417.743195	146.640000
417.836853	146.460000
417.930481	146.900000
418.024170	146.680000
418.117767	147.120000
418.211426	147.220000
418.305054	147.640000
418.398712	146.600000
418.492340	146.760000
418.585999	146.860000
418.679626	146.860000
418.773285	146.600000
418.866913	147.280000
418.960571	147.220000
419.054230	147.080000
419.147858	147.080000
419.241516	147.040000
419.335144	146.820000
419.428802	146.460000
419.522461	146.160000
419.616089	145.720000
419.709747	145.700000
419.803375	145.660000
419.897034	145.740000
419.990662	145.620000
420.084320	146.300000
420.177979	146.720000
420.271606	146.920000
420.365295	147.580000
420.458893	147.880000
420.552582	147.580000
420.646210	147.160000
420.739868	147.100000
420.833496	146.580000
420.927155	146.460000
421.020782	146.480000
421.114471	145.980000
421.208069	145.920000
421.301758	146.420000
421.395386	146.540000
421.489044	146.540000
421.582703	146.820000
421.676361	147.440000
421.769989	146.880000
421.863647	147.060000
421.957306	146.900000
422.050934	146.960000
422.144592	146.380000
422.238251	146.200000
422.331909	146.120000
422.425537	146.000000
422.519196	146.140000
422.612854	145.640000
422.706543	145.580000
422.800140	145.540000
422.893829	145.080000
422.987457	144.860000
423.081146	145.240000
423.174744	145.960000
423.268433	145.840000
423.362061	145.980000
423.455750	145.680000
423.549347	145.660000
423.643036	144.880000
423.736664	145.300000
423.830353	145.800000
423.924011	146.500000
424.017639	146.120000
424.111298	146.280000
424.204956	146.200000
424.298615	145.940000
424.392273	145.380000
424.485931	145.580000
424.579559	145.900000
424.673218	145.660000
424.766876	145.940000
424.860535	145.780000
424.954193	145.800000
425.047882	146.240000
425.141510	146.100000
425.235199	146.000000
425.328796	146.060000
425.422485	145.900000
425.516113	144.960000
425.609802	145.000000
425.703430	144.940000
425.797119	145.120000
425.890747	145.380000
425.984436	145.880000
426.078064	146.080000
426.171753	146.040000
426.265411	145.780000
426.359070	145.800000
426.452728	145.440000
426.546356	145.160000
426.640015	145.000000
426.733673	145.180000
426.827332	145.000000
426.920990	145.880000
427.014648	145.620000
427.108307	145.840000
427.201965	146.360000
427.295624	146.680000
427.389282	145.700000
427.482941	146.200000
427.576630	146.360000
427.670258	145.720000
427.763947	145.600000
427.857574	145.880000
427.951263	145.300000
428.044922	144.960000
428.138611	145.240000
428.232239	145.640000
428.325928	146.000000
428.419556	146.880000
428.513245	146.620000
428.606903	146.740000
428.700562	146.340000
428.794220	145.800000
428.887878	145.040000
428.981537	145.780000
429.075195	145.880000
429.168854	146.320000
429.262512	146.560000
429.356201	146.960000
429.449860	146.580000
429.543518	146.560000
429.637177	146.200000
429.730835	146.400000
429.824493	146.420000
429.918182	146.700000
430.011810	146.160000
430.105530	145.920000
430.199158	146.060000
430.292847	145.800000
430.386475	145.700000
430.480164	145.740000
430.573792	145.300000
430.667511	144.780000
430.761139	145.120000
430.854828	145.400000
430.948456	145.500000
431.042145	146.320000
431.135834	146.320000
431.229492	146.240000
431.323151	146.120000
431.416809	146.220000
431.510468	145.980000
431.604156	146.080000
431.697815	145.860000
431.791473	145.440000
431.885132	145.000000
431.978821	145.420000
432.072479	145.820000
432.166138	146.340000
432.259827	146.380000
432.353485	147.020000
432.447174	146.900000
432.540802	146.420000
432.634491	146.040000
432.728149	146.600000
432.821838	146.880000
432.915466	146.500000
433.009186	146.500000
433.102814	146.060000
433.196503	145.520000
433.290131	145.360000
433.383850	145.540000
433.477509	145.580000
433.571167	146.680000
433.664856	147.320000
433.758514	147.440000
433.852173	147.380000
433.945862	147.400000
434.039520	146.780000
434.133179	145.980000
434.226868	145.440000
434.320526	145.140000
434.414185	145.800000
434.507874	145.640000
434.601562	146.260000
434.695221	146.320000
434.788910	146.640000
434.882538	146.220000
434.976257	146.020000
435.069885	145.800000
435.163574	146.120000
435.257233	145.660000
435.350922	145.480000
435.444580	145.520000
435.538269	145.260000
435.631897	145.540000
435.725616	146.140000
435.819275	146.820000
435.912964	147.220000
436.006622	147.800000
436.100311	147.400000
436.193970	146.880000
436.287628	146.360000
436.381317	146.020000
436.474976	145.440000
436.568665	145.180000
436.662323	145.540000
436.756012	145.600000
436.849670	145.520000
436.943390	145.740000
437.037018	145.940000
437.130737	145.940000
437.224365	145.640000
437.318085	145.800000
437.411713	145.640000
437.505432	145.960000
437.599060	146.360000
437.692780	147.080000
437.786407	147.100000
437.880127	147.100000
437.973755	146.840000
438.067474	146.320000
438.161133	146.080000
438.254822	146.500000
438.348480	146.500000
438.442169	147.120000
438.535828	147.340000
438.629517	147.020000
438.723175	146.460000
438.816864	147.240000
438.910553	146.580000
439.004211	146.380000
439.097900	145.980000
439.191559	146.080000
439.285248	145.060000
439.378906	145.380000
439.472626	145.200000
439.566284	145.360000
439.659973	145.800000
439.753632	145.980000
439.847321	146.240000
439.940979	146.620000
440.034698	147.000000
440.128326	146.300000
440.222046	146.300000
440.315674	145.400000
440.409393	145.300000
440.503082	144.960000
440.596741	145.540000
440.690430	145.840000
440.784088	146.140000
440.877777	145.660000
440.971466	146.080000
441.065125	145.520000
441.158813	145.100000
441.252502	144.820000
441.346161	145.080000
441.439850	144.980000
441.533539	145.000000
441.627197	145.620000
441.720886	145.940000
441.814606	146.420000
441.908234	146.580000
442.001953	146.480000
442.095612	146.100000
442.189301	146.040000
442.282959	146.000000
442.376678	145.240000
442.470306	146.240000
442.564026	145.860000
442.657684	146.020000
442.751404	145.800000
442.845032	146.960000
442.938751	146.060000
443.032440	146.440000
443.126099	146.160000
443.219788	146.560000
443.313477	146.100000
443.407166	146.360000
443.500824	146.200000
443.594513	146.460000
443.688202	146.120000
443.781891	145.240000
443.875549	145.100000
443.969238	145.320000
444.062927	145.300000
444.156647	145.420000
444.250275	146.200000
444.343994	146.540000
444.437653	146.440000
444.531372	146.340000
444.625031	145.900000
444.718719	145.740000
444.812378	145.440000
444.906097	145.460000
444.999756	145.140000
445.093445	145.580000
445.187103	145.420000
445.280823	145.960000
445.374512	145.600000
445.468201	146.060000
445.561859	145.760000
445.655548	145.900000
445.749237	145.440000
445.842926	146.100000
445.936615	146.340000
446.030304	146.440000
446.123962	146.820000
446.217651	146.860000
446.311340	146.640000
446.405029	146.240000
446.498749	145.880000
446.592407	145.480000
446.686096	145.560000
446.779755	145.000000
446.873474	145.080000
446.967133	145.480000
447.060852	145.220000
447.154510	145.300000
447.248230	145.840000
447.341858	145.560000
447.435577	145.180000
447.529236	145.120000
447.622955	144.600000
447.716644	144.480000
447.810333	144.660000
447.904022	145.520000
447.997711	145.720000
448.091400	146.280000
448.185059	146.320000
448.278748	146.840000
448.372437	146.180000
448.466125	146.580000
448.559814	146.460000
448.653503	146.960000
448.747192	146.840000
448.840912	147.260000
448.934570	146.960000
449.028290	147.200000
449.121948	146.740000
449.215637	146.520000
449.309296	146.140000
449.403015	146.360000
449.496674	146.260000
449.590393	146.200000
449.684052	145.680000
449.777771	146.520000
449.871429	146.020000
449.965149	145.840000
450.058838	146.020000
450.152527	146.860000
450.246216	146.360000
450.339905	146.500000
450.433594	146.360000
450.527283	146.900000
450.620972	146.360000
450.714661	146.340000
450.808350	146.680000
450.902039	147.120000
450.995728	146.520000
451.089417	146.380000
451.183105	146.320000
451.276794	146.620000
451.370514	145.500000
451.464172	145.040000
451.557892	145.220000
451.651550	145.500000
451.745270	144.800000
451.838928	145.020000
451.932648	145.500000
452.026306	145.880000
452.120026	145.360000
452.213684	146.000000
452.307404	146.540000
452.401062	146.620000
452.494781	146.700000
452.588470	146.620000
452.682159	146.200000
452.775848	146.420000
452.869537	145.920000
452.963226	145.500000
453.056915	145.600000
453.150604	145.540000
453.244293	145.300000
453.337982	146.300000
453.431671	146.820000
453.525360	147.380000
453.619049	147.380000
453.712769	147.320000
453.806427	146.480000
453.900146	145.600000
453.993805	145.240000
454.087555	145.780000
454.181213	146.200000
454.274933	146.280000
454.368591	146.660000
454.462311	146.300000
454.555969	145.880000
454.649689	146.260000
454.743347	145.940000
454.837067	146.700000
454.930756	147.620000
455.024445	147.780000
455.118134	147.220000
455.211853	147.820000
455.305542	147.040000
455.399231	146.280000
455.492920	145.780000
455.586609	145.540000
455.680298	145.520000
455.773987	145.380000
455.867676	145.540000
455.961365	146.200000
456.055084	146.460000
456.148773	146.200000
456.242493	146.460000
456.336151	146.400000
456.429871	146.620000
456.523529	146.820000
456.617249	146.380000
456.710907	146.700000
456.804626	146.920000
456.898315	146.180000
456.992035	145.920000
457.085693	146.000000
457.179413	144.980000
457.273102	145.700000
457.366791	145.860000
457.460480	146.240000
457.554199	147.220000
457.647888	147.860000
457.741577	146.860000
457.835266	146.940000
457.928955	146.800000
458.022644	146.660000
458.116364	147.020000
458.210052	147.060000
458.303741	147.160000
458.397461	146.400000
458.491119	145.600000
458.584839	144.980000
458.678528	144.900000
458.772247	144.700000
458.865906	145.180000
458.959625	146.440000
459.053284	146.680000
459.147003	146.480000
459.240692	146.880000
459.334412	146.960000
459.428070	146.120000
459.521790	145.940000
459.615479	145.840000
459.709198	146.140000
459.802887	145.840000
459.896576	145.540000
459.990265	145.780000
460.083954	146.200000
460.177673	145.160000
460.271362	145.320000
460.365051	145.260000
460.458740	145.080000
460.552429	144.980000
460.646149	145.420000
460.739838	145.220000
460.833527	145.680000
460.927246	145.240000
461.020905	145.080000
461.114655	144.860000
461.208313	145.180000
461.302032	144.600000
461.395691	145.180000
461.489441	145.140000
461.583099	145.260000
461.676819	145.040000
461.770477	145.760000
461.864197	145.340000
461.957916	145.200000
462.051605	144.680000
462.145294	145.800000
462.238983	145.400000
462.332703	146.440000
462.426392	147.200000
462.520081	147.580000
462.613770	146.460000
462.707489	146.580000
462.801178	145.740000
462.894867	145.260000
462.988556	145.240000
463.082275	145.340000
463.175964	144.960000
463.269684	145.440000
463.363342	145.340000
463.457092	144.840000
463.550751	145.140000
463.644470	145.280000
463.738129	144.720000
463.831879	145.060000
463.925537	145.800000
464.019257	145.640000
464.112946	145.800000
464.206665	145.840000
464.300323	145.520000
464.394043	145.100000
464.487762	145.140000
464.581451	145.540000
464.675140	145.520000
464.768829	145.860000
464.862549	146.120000
464.956238	146.040000
465.049927	145.600000
465.143646	145.900000
465.237335	145.260000
465.331024	145.900000
465.424713	145.900000
465.518433	146.160000
465.612152	145.920000
465.705811	146.680000
465.799561	145.980000
465.893219	145.960000
465.986938	145.820000
466.080597	145.560000
466.174347	145.480000
466.268005	145.760000
466.361725	145.580000
466.455414	145.340000
466.549133	145.460000
466.642792	145.460000
466.736542	144.980000
466.830231	145.320000
466.923920	145.340000
467.017609	145.500000
467.111328	145.180000
467.205017	145.480000
467.298706	145.260000
467.392426	145.700000
467.486115	146.100000
467.579803	145.660000
467.673523	146.220000
467.767212	146.360000
467.860901	146.320000
467.954651	146.420000
468.048309	147.060000
468.142029	146.640000
468.235718	146.460000
468.329437	145.880000
468.423096	145.440000
468.516846	145.220000
468.610504	144.920000
468.704224	144.880000
468.797913	145.220000
468.891632	145.520000
468.985291	145.680000
469.079010	145.680000
469.172729	145.380000
469.266418	145.600000
469.360107	145.420000
469.453827	145.140000
469.547516	145.380000
469.641205	146.100000
469.734924	146.260000
469.828613	146.780000
469.922302	146.920000
470.016022	146.940000
470.109711	146.520000
470.203430	145.860000
470.297150	144.780000
470.390808	145.180000
470.484558	144.780000
470.578217	145.140000
470.671936	145.820000
470.765625	146.520000
470.859344	146.040000
470.953003	146.720000
471.046753	146.600000
471.140411	145.880000
471.234131	146.060000
471.327820	147.040000
471.421539	146.940000
471.515228	146.580000
471.608948	146.960000
471.702637	146.460000
471.796326	145.760000
471.890045	146.040000
471.983734	145.880000
472.077423	145.560000
472.171143	145.980000
472.264832	145.900000
472.358521	145.360000
472.452240	145.700000
472.545929	146.420000
472.639648	146.640000
472.733337	147.160000
472.827057	147.220000
472.920746	147.320000
473.014465	147.260000
473.108124	147.240000
473.201874	146.940000
473.295532	146.740000
473.389252	146.900000
473.482941	146.920000
473.576660	146.300000
473.670319	146.100000
473.764069	146.560000
473.857727	146.660000
473.951477	146.920000
474.045166	147.520000
474.138855	147.560000
474.232574	147.220000
474.326263	147.080000
474.419952	146.840000
474.513672	146.740000
474.607361	146.480000
474.701050	146.800000
474.794769	146.980000
474.888458	146.920000
474.982178	146.660000
475.075867	147.040000
475.169586	146.600000
475.263275	146.600000
475.356995	146.300000
475.450653	146.020000
475.544403	145.500000
475.638062	146.400000
475.731812	145.920000
475.825470	146.100000
475.919189	146.240000
476.012878	146.800000
476.106598	146.040000
476.200256	146.400000
476.294006	146.480000
476.387695	146.800000
476.481384	146.660000
476.575104	146.620000
476.668793	146.060000
476.762512	145.620000
476.856201	146.160000
476.949890	146.020000
477.043610	145.620000
477.137299	145.860000
477.230988	146.420000
477.324707	145.480000
477.418396	145.700000
477.512146	146.020000
477.605804	145.860000
477.699524	145.720000
477.793213	145.620000
477.886932	145.340000
477.980591	145.100000
478.074341	145.120000
478.167999	144.340000
478.261749	144.620000
478.355408	144.580000
478.449127	145.280000
478.542816	146.280000
478.636536	147.300000
478.730225	147.460000
478.823944	147.660000
478.917633	147.500000
479.011322	147.120000
479.105042	146.780000
479.198730	147.020000
479.292450	146.900000
479.386139	146.960000
479.479828	147.060000
479.573547	147.440000
479.667267	146.980000
479.760925	147.160000
479.854675	147.340000
479.948334	147.000000
480.042084	146.440000
480.135742	146.580000
480.229462	146.220000
480.323151	146.120000
480.416870	145.600000
480.510529	145.500000
480.604279	144.920000
480.697937	145.360000
480.791656	144.900000
480.885345	145.040000
480.979065	145.360000
481.072754	146.240000
481.166473	146.620000
481.260132	146.620000
481.353882	147.000000
481.447540	146.860000
481.541260	146.860000
481.635010	145.860000
481.728668	145.980000
481.822388	145.760000
481.916077	145.800000
482.009796	145.320000
482.103485	145.980000
482.197205	145.800000
482.290863	146.020000
482.384613	145.800000
482.478271	145.420000
482.571991	145.280000
482.665680	145.360000
482.759399	145.960000
482.853058	146.520000
482.946808	146.920000
483.040466	146.880000
483.134216	147.060000
483.227875	146.120000
483.321594	146.060000
483.415283	146.020000
483.509003	145.700000
483.602661	145.540000
483.696411	145.840000
483.790070	145.640000
483.883789	145.820000
483.977478	146.260000
484.071198	146.340000
484.164917	146.000000
484.258606	145.800000
484.352325	145.900000
484.445984	145.820000
484.539734	145.780000
484.633392	145.440000
484.727142	145.700000
484.820801	145.580000
484.914520	145.320000
485.008209	145.280000
485.101929	146.020000
485.195587	145.820000
485.289337	145.760000
485.382996	146.140000
485.476715	146.200000
485.570404	146.420000
485.664124	146.540000
485.757782	147.240000
485.851532	146.800000
485.945190	146.920000
486.038910	146.720000
486.132599	146.960000
486.226318	145.800000
486.319977	146.000000
486.413727	146.360000
486.507446	146.000000
486.601105	145.460000
486.694855	145.760000
486.788513	145.640000
486.882233	145.260000
486.975922	145.480000
487.069641	145.520000
487.163300	145.740000
487.257050	146.840000
487.350708	146.460000
487.444427	146.140000
487.538116	146.200000
487.631836	145.740000
487.725494	145.120000
487.819214	145.640000
487.912903	145.740000
488.006622	146.160000
488.100281	146.560000
488.194031	146.220000
488.287689	146.480000
488.381409	147.120000
488.475098	146.920000
488.568817	147.240000
488.662476	147.160000
488.756226	146.140000
488.849945	145.100000
488.943604	144.800000
489.037354	144.720000
489.131012	144.860000
489.224731	145.340000
489.318390	145.800000
489.412140	145.780000
489.505798	145.440000
489.599518	145.020000
489.693207	145.440000
489.786926	145.180000
489.880585	145.440000
489.974335	145.680000
490.067993	146.920000
490.161713	146.780000
490.255371	147.760000
490.349121	147.840000
490.442780	147.440000
490.536499	146.120000
490.630188	146.160000
490.723907	145.360000
490.817566	145.260000
490.911285	145.700000
491.004974	145.860000
491.098694	145.440000
491.192413	145.980000
491.286102	146.020000
491.379822	146.040000
491.473480	146.380000
491.567200	146.620000
491.660889	145.940000
491.754608	145.860000
491.848267	145.500000
491.941986	145.320000
492.035675	145.260000
492.129395	145.600000
492.223053	145.320000
492.316772	145.680000
492.410461	145.880000
492.504181	145.880000
492.597839	145.820000
492.691559	146.020000
492.785248	145.780000
492.878967	145.660000
492.972626	145.500000
493.066345	145.640000
493.160034	145.380000
493.253754	145.480000
493.347412	145.280000
493.441132	145.480000
493.534882	145.740000
493.628540	146.160000
493.722260	146.260000
493.815918	146.560000
493.909668	146.780000
494.003326	147.200000
494.097046	146.940000
494.190704	146.560000
494.284454	146.380000
494.378113	146.320000
494.471832	145.400000
494.565491	145.320000
494.659210	145.900000
494.752899	145.840000
494.846619	145.460000
494.940277	145.840000
495.033997	145.860000
495.127686	145.300000
495.221405	145.320000
495.315063	145.520000
495.408783	145.360000
495.502441	145.720000
495.596191	145.840000
495.689850	146.160000
495.783569	146.400000
495.877228	146.220000
495.970947	145.960000
496.064697	145.760000
496.158356	145.980000
496.252075	145.720000
496.345734	146.000000
496.439453	146.820000
496.533142	147.000000
496.626862	147.280000
496.720520	147.400000
496.814240	147.460000
496.907898	146.760000
497.001617	146.920000
497.095306	145.780000
497.189026	145.740000
497.282684	145.560000
497.376404	145.800000
497.470062	145.480000
497.563782	145.920000
497.657471	145.820000
497.751190	145.620000
497.844849	145.600000
497.938568	145.840000
498.032227	145.860000
498.125946	145.960000
498.219635	145.900000
498.313354	145.920000
498.407074	145.700000
498.500732	146.040000
498.594452	146.160000
498.688110	145.980000
498.781830	145.560000
498.875519	145.860000
498.969238	145.320000
499.062897	145.060000
499.156616	145.620000
499.250275	145.760000
499.343994	145.140000
499.437653	145.600000
499.531372	145.980000
499.625061	146.220000
499.718781	146.580000
499.812439	147.180000
499.906158	146.880000
499.999817	146.400000
500.093536	145.720000
500.187195	145.740000
500.280914	145.720000
500.374573	145.900000
500.468323	145.780000
500.561981	146.300000
500.655701	146.060000
500.749420	146.060000
500.843079	146.160000
500.936798	146.320000
501.030457	146.480000
501.124176	146.720000
501.217834	146.700000
501.311554	146.780000
501.405212	146.760000
501.498962	145.900000
501.592621	145.480000
501.686340	145.640000
501.779999	145.620000
501.873718	146.020000
501.967377	146.680000
502.061096	147.220000
502.154755	146.900000
502.248474	146.840000
502.342133	146.760000
502.435852	146.680000
502.529510	147.000000
502.623230	147.540000
502.716888	146.940000
502.810608	146.920000
502.904266	147.240000
502.997986	146.640000
503.091705	146.000000
503.185364	146.000000
503.279083	145.980000
503.372772	145.580000
503.466492	144.900000
503.560150	145.300000
503.653870	145.760000
503.747528	145.800000
503.841248	145.820000
503.934906	146.420000
504.028625	146.160000
504.122284	146.420000
504.216003	146.820000
504.309662	146.720000
504.403381	146.960000
504.497040	147.020000
504.590759	146.340000
504.684418	146.280000
504.778137	146.660000
504.871796	146.600000
504.965515	146.420000
505.059174	146.880000
505.152893	146.360000
505.246521	145.660000
505.340240	145.300000
505.433899	145.440000
505.527618	145.500000
505.621338	145.940000
505.714996	145.900000
505.808716	145.920000
505.902374	146.300000
505.996094	146.280000
506.089752	145.820000
506.183472	146.440000
506.277130	146.700000
506.370850	146.500000
506.464508	146.120000
506.558228	146.140000
506.651886	145.640000
506.745605	145.780000
506.839264	145.820000
506.932983	145.860000
507.026611	146.000000
507.120331	146.420000
507.213989	145.600000
507.307709	145.620000
507.401367	146.020000
507.495087	146.940000
507.588745	146.720000
507.682465	147.820000
507.776123	147.560000
507.869843	147.200000
507.963531	146.360000
508.057190	146.680000
508.150909	145.920000
508.244568	146.160000
508.338287	146.180000
508.431946	145.780000
508.525665	145.320000
508.619324	145.080000
508.713013	145.220000
508.806671	145.620000
508.900391	146.580000
508.994049	146.860000
509.087769	147.000000
509.181427	146.820000
509.275146	146.480000
509.368774	145.680000
509.462494	145.560000
509.556152	145.700000
509.649872	146.100000
509.743530	146.140000
509.837250	146.320000
509.930878	146.260000
510.024597	145.960000
510.118256	145.440000
510.211975	145.380000
510.305695	145.300000
510.399353	145.880000
510.493042	146.760000
510.586700	146.620000
510.680420	146.820000
510.774078	146.760000
510.867798	146.520000
510.961426	145.600000
511.055145	145.820000
511.148804	145.780000
511.242523	146.220000
511.336151	146.240000
511.429871	146.700000
511.523529	146.520000
511.617249	146.200000
511.710876	145.740000
511.804596	145.620000
511.898254	145.480000
511.991974	145.880000
512.085632	145.660000
512.179321	145.780000
512.272949	145.920000
512.366699	146.120000
512.460327	145.880000
512.554077	146.920000
512.647766	146.840000
512.741394	146.900000
512.835144	147.300000
512.928772	147.080000
513.022461	146.800000
513.116150	146.580000
513.209839	146.860000
513.303467	146.200000
513.397217	145.740000
513.490845	145.380000
513.584595	145.360000
513.678223	144.420000
513.771912	144.200000
513.865601	144.820000
513.959290	144.580000
514.052917	144.880000
514.146667	145.860000
514.240295	146.400000
514.333984	146.940000
514.427673	147.120000
514.521362	147.580000
514.614990	146.700000
514.708740	146.900000
514.802368	146.560000
514.896057	146.940000
514.989746	147.020000
515.083435	147.180000
515.177124	147.060000
515.270752	146.740000
515.364502	146.460000
515.458130	146.400000
515.551819	146.360000
515.645508	146.160000
515.739197	146.240000
515.832825	146.120000
515.926575	145.380000
516.020203	145.720000
516.113892	146.060000
516.207520	146.060000
516.301270	146.320000
516.394897	146.720000
516.488586	146.940000
516.582275	146.840000
516.675964	146.400000
516.769592	146.020000
516.863281	146.380000
516.956970	146.440000
517.050659	146.360000
517.144287	146.480000
517.238037	146.720000
517.331665	146.060000
517.425354	145.780000
517.519043	145.320000
517.612732	145.920000
517.706421	146.060000
517.800049	146.020000
517.893738	145.800000
517.987427	146.120000
518.081116	146.040000
518.174744	145.640000
518.268433	146.160000
518.362122	146.400000
518.455811	146.500000
518.549438	146.820000
518.643127	148.020000
518.736816	147.380000
518.830505	147.180000
518.924133	146.840000
519.017822	146.760000
519.111511	146.120000
519.205200	146.820000
519.298828	146.700000
519.392517	146.600000
519.486206	146.640000
519.579895	146.460000
519.673523	146.240000
519.767212	146.300000
519.860901	146.720000
519.954590	146.380000
520.048279	146.020000
520.141907	145.940000
520.235596	146.980000
520.329224	147.260000
520.422974	147.160000
520.516602	147.160000
520.610291	146.860000
520.703918	146.380000
520.797607	146.020000
520.891296	146.220000
520.984985	146.480000
521.078613	147.060000
521.172302	146.460000
521.265930	147.380000
521.359680	147.840000
521.453308	147.700000
521.546997	147.580000
521.640625	148.000000
521.734314	146.860000
521.827942	146.440000
521.921692	146.880000
522.015320	146.780000
522.109009	146.320000
522.202698	146.340000
522.296326	146.280000
522.390015	146.520000
522.483704	146.420000
522.577393	146.720000
522.671021	146.900000
522.764709	146.680000
522.858337	146.620000
522.952026	146.680000
523.045654	147.200000
523.139404	147.580000
523.233032	147.380000
523.326721	147.100000
523.420349	147.040000
523.514038	146.520000
523.607666	146.660000
523.701355	146.520000
523.795044	146.360000
523.888733	146.520000
523.982361	146.580000
524.076050	146.020000
524.169678	146.720000
524.263367	146.720000
524.356995	146.400000
524.450684	146.280000
524.544373	146.320000
524.638062	146.020000
524.731750	146.020000
524.825378	146.180000
524.919067	145.700000
525.012695	145.560000
525.106384	145.200000
525.200012	145.280000
525.293701	145.300000
525.387329	145.740000
525.481018	146.200000
525.574646	146.560000
525.668396	146.620000
525.762024	146.900000
525.855713	147.160000
525.949341	146.560000
526.043030	146.520000
526.136658	146.340000
526.230347	145.900000
526.323975	145.700000
526.417664	145.980000
526.511292	146.160000
526.604980	146.460000
526.698608	146.400000
526.792297	146.200000
526.885925	146.340000
526.979614	146.520000
527.073303	146.200000
527.166931	146.640000
527.260620	146.860000
527.354309	147.300000
527.447998	146.760000
527.541626	146.620000
527.635315	146.420000
527.728943	146.980000
527.822632	146.960000
527.916260	147.280000
528.009949	147.480000
528.103577	147.140000
528.197266	146.200000
528.290894	145.880000
528.384583	145.980000
528.478210	146.060000
528.571899	146.460000
528.665527	147.000000
528.759216	146.840000
528.852844	146.960000
528.946533	147.060000
529.040161	146.940000
529.133850	146.420000
529.227478	146.820000
529.321167	146.840000
529.414856	146.940000
529.508484	147.660000
529.602173	147.380000
529.695801	147.060000
529.789490	146.640000
529.883057	146.320000
529.976746	146.160000
530.070374	146.980000
530.164062	146.860000
530.257690	147.280000
530.351379	147.480000
530.445007	147.120000
530.538696	146.300000
530.632324	146.840000
530.726013	146.920000
530.819641	147.060000
530.913330	147.180000
531.006958	147.380000
531.100647	147.160000
531.194275	146.740000
531.287964	146.340000
531.381592	145.980000
531.475220	146.620000
531.568848	146.440000
531.662537	146.220000
531.756226	146.780000
531.849854	146.780000
531.943542	146.560000
532.037170	146.060000
532.130859	146.900000
532.224487	146.300000
532.318176	146.340000
532.411804	146.760000
532.505432	147.140000
532.599060	146.660000
532.692749	146.760000
532.786377	147.320000
532.880066	146.700000
532.973694	146.400000
533.067383	146.440000
533.161011	146.440000
533.254639	145.960000
533.348267	145.840000
533.441956	146.140000
533.535583	145.800000
533.629272	145.900000
533.722900	145.760000
533.816589	145.920000
533.910156	146.500000
534.003845	146.220000
534.097534	146.560000
534.191162	146.920000
534.284851	147.340000
534.378479	146.680000
534.472107	147.040000
534.565735	146.840000
534.659424	146.960000
534.753052	146.820000
534.846741	146.540000
534.940369	147.020000
535.033997	146.940000
535.127625	146.900000
535.221313	147.360000
535.314941	147.560000
535.408630	146.880000
535.502197	147.060000
535.595886	146.600000
535.689514	145.760000
535.783203	146.160000
535.876831	146.860000
535.970459	146.660000
536.064087	146.560000
536.157776	146.720000
536.251404	146.680000
536.345093	146.380000
536.438721	146.600000
536.532349	147.060000
536.626038	146.980000
536.719666	147.300000
536.813293	146.920000
536.906921	146.600000
537.000610	146.500000
537.094238	146.620000
537.187866	146.340000
537.281494	146.520000
537.375183	147.120000
537.468811	146.860000
537.562439	146.780000
537.656067	146.600000
537.749756	146.800000
537.843384	146.900000
537.937012	147.220000
538.030640	146.760000
538.124329	146.800000
538.217896	146.920000
538.311584	146.600000
538.405212	146.180000
538.498901	146.660000
538.592468	147.080000
538.686157	146.540000
538.779785	145.880000
538.873413	146.260000
538.967102	146.020000
539.060730	145.480000
539.154358	146.160000
539.247986	146.880000
539.341675	146.900000
539.435242	146.920000
539.528931	147.200000
539.622559	146.480000
539.716187	146.780000
539.809814	146.720000
539.903503	146.860000
539.997070	146.880000
540.090759	147.300000
540.184387	146.860000
540.278015	147.420000
540.371643	147.700000
540.465332	147.540000
540.558899	147.300000
540.652588	147.420000
540.746216	146.880000
540.839844	147.060000
540.933472	146.880000
541.027100	147.100000
541.120728	146.800000
541.214417	146.820000
541.308044	147.180000
541.401672	147.260000
541.495300	146.820000
541.588928	146.660000
541.682617	146.480000
541.776184	145.800000
541.869873	146.080000
541.963440	146.540000
542.057129	146.800000
542.150757	147.160000
542.244385	146.940000
542.338013	146.460000
542.431641	146.400000
542.525269	146.240000
542.618958	146.480000
542.712524	146.680000
542.806213	146.780000
542.899780	146.860000
542.993469	146.680000
543.087036	146.020000
543.180725	145.620000
543.274292	145.800000
543.367981	145.960000
543.461548	146.720000
543.555237	146.560000
543.648926	147.380000
543.742493	147.780000
543.836182	147.600000
543.929749	146.840000
544.023437	147.060000
544.117004	146.880000
544.210693	146.860000
544.304260	146.880000
544.397949	147.000000
544.491516	147.460000
544.585205	147.140000
544.678772	146.660000
544.772461	146.960000
544.866028	146.940000
544.959717	146.860000
545.053284	146.800000
545.146973	146.900000
545.240540	146.880000
545.334229	147.540000
545.427795	147.700000
545.521423	148.100000
545.615051	148.400000
545.708679	148.760000
545.802307	148.280000
545.895935	148.440000
545.989624	149.000000
546.083191	148.880000
546.176880	148.680000
546.270447	148.620000
546.364136	148.540000
546.457703	147.760000
546.551331	147.580000
546.644958	147.440000
546.738586	147.700000
546.832214	147.040000
546.925842	146.760000
547.019409	146.960000
547.113098	146.500000
547.206665	145.960000
547.300354	146.320000
547.393921	146.820000
547.487549	147.200000
547.581177	147.160000
547.674805	147.500000
547.768433	146.800000
547.862061	146.680000
547.955627	145.740000
548.049316	146.480000
548.142883	146.620000
548.236572	147.360000
548.330139	147.560000
548.423767	147.620000
548.517456	147.340000
548.611023	147.560000
548.704651	146.820000
548.798279	146.540000
548.891907	147.120000
548.985474	146.780000
549.079163	146.600000
549.172729	146.640000
549.266357	146.160000
549.359985	145.940000
549.453613	145.780000
549.547180	145.520000
549.640869	146.000000
549.734436	146.360000
549.828064	146.820000
549.921631	146.620000
550.015320	146.240000
550.108887	146.360000
550.202515	146.520000
550.296143	145.980000
550.389771	146.540000
550.483337	146.760000
550.576965	146.700000
550.670593	146.760000
550.764221	147.020000
550.857849	146.600000
550.951477	146.240000
551.045105	145.760000
551.138672	145.600000
551.232300	145.140000
551.325928	145.640000
551.419556	146.420000
551.513123	146.600000
551.606750	146.440000
551.700378	146.680000
551.794006	146.120000
551.887573	145.540000
551.981201	146.160000
552.074768	146.020000
552.168457	145.380000
552.262024	146.340000
552.355652	146.420000
552.449219	146.660000
552.542847	146.980000
552.636475	147.220000
552.730103	146.240000
552.823669	146.240000
552.917297	145.460000
553.010864	145.380000
553.104553	145.680000
553.198181	145.780000
553.291748	146.460000
553.385376	146.900000
553.478943	146.880000
553.572571	146.820000
553.666199	147.200000
553.759827	146.640000
553.853394	145.760000
553.947021	145.800000
554.040588	145.820000
554.134216	145.600000
554.227783	146.200000
554.321411	146.780000
554.415039	146.240000
554.508667	146.220000
554.602234	146.640000
554.695862	145.960000
554.789429	146.080000
554.883057	146.400000
554.976624	146.320000
555.070251	146.140000
555.163818	146.140000
555.257507	146.200000
555.351074	146.340000
555.444702	147.360000
555.538330	146.940000
555.631897	147.140000
555.725525	146.840000
555.819092	146.800000
555.912720	145.760000
556.006287	146.100000
556.099915	145.960000
556.193481	145.980000
556.287109	146.180000
556.380676	145.900000
556.474304	146.060000
556.567871	146.320000
556.661499	145.860000
556.755066	145.740000
556.848694	146.300000
556.942261	145.960000
557.035889	145.720000
557.129517	146.240000
557.223145	146.580000
557.316711	146.340000
557.410339	146.480000
557.503906	146.200000
557.597473	146.340000
557.691040	145.960000
557.784668	146.160000
557.878296	146.460000
557.971863	147.020000
558.065491	147.100000
558.159058	147.140000
558.252686	147.720000
558.346252	147.960000
558.439880	147.440000
558.533447	146.960000
558.627075	146.460000
558.720642	145.720000
558.814270	145.220000
558.907837	145.440000
559.001465	145.320000
559.095032	146.380000
559.188660	146.480000
559.282227	145.880000
559.375854	146.200000
559.469360	146.220000
559.562988	146.360000
559.656555	146.380000
559.750183	146.740000
559.843750	146.760000
559.937378	147.220000
560.030945	146.720000
560.124573	0.000000
560.218140	0.000000
560.311707	0.000000
560.405334	0.000000
560.498901	0.000000
560.592529	0.000000
560.686096	0.000000
560.779724	0.000000
560.873291	0.000000
560.966858	0.000000
561.060425	0.000000
561.154053	0.000000
561.247620	0.000000
561.341248	0.000000
561.434814	0.000000
561.528381	0.000000
561.621948	0.000000
561.715576	0.000000
561.809143	0.000000
561.902771	0.000000
561.996277	0.000000
562.089905	0.000000
562.183472	0.000000
562.277100	0.000000
