Model Number: SPM-002-B   
Serial Number: 70087108
Firmware Version: 004.15.4
Exposure Time: 100000.000000us
Data Taken on: 11-12-2020 19:30:14.411
Wavelength	Amplitude
221.570786	0.000000
221.663406	0.000000
221.756027	0.000000
221.848648	0.000000
221.941269	0.000000
222.033905	0.000000
222.126526	0.000000
222.219162	0.000000
222.311798	0.000000
222.404419	0.000000
222.497055	0.000000
222.589676	0.000000
222.682312	0.000000
222.774933	0.000000
222.867569	0.000000
222.960205	0.000000
223.052841	0.000000
223.145462	0.000000
223.238098	0.000000
223.330734	0.000000
223.423386	0.000000
223.516022	0.000000
223.608658	0.000000
223.701309	0.000000
223.793945	0.000000
223.886581	0.000000
223.979218	0.000000
224.071869	0.000000
224.164505	0.000000
224.257156	0.000000
224.349792	0.000000
224.442444	0.000000
224.535095	0.000000
224.627747	0.000000
224.720398	0.000000
224.813034	0.000000
224.905685	0.000000
224.998337	145.700000
225.090988	145.240000
225.183640	145.260000
225.276291	145.320000
225.368942	145.800000
225.461594	146.420000
225.554245	146.640000
225.646912	146.800000
225.739578	147.000000
225.832230	147.440000
225.924896	146.720000
226.017548	147.300000
226.110199	147.680000
226.202866	146.980000
226.295532	146.520000
226.388184	146.460000
226.480850	145.760000
226.573517	145.340000
226.666168	145.600000
226.758835	145.880000
226.851501	146.480000
226.944183	146.820000
227.036850	146.340000
227.129517	146.340000
227.222183	146.340000
227.314850	146.020000
227.407516	146.120000
227.500198	146.680000
227.592865	146.380000
227.685532	146.160000
227.778214	145.980000
227.870880	146.000000
227.963562	146.660000
228.056229	146.860000
228.148926	146.580000
228.241592	147.240000
228.334274	146.780000
228.426956	146.400000
228.519638	146.560000
228.612305	146.360000
228.704987	146.180000
228.797668	146.560000
228.890350	146.300000
228.983032	146.000000
229.075714	146.540000
229.168396	146.240000
229.261108	145.860000
229.353790	145.880000
229.446472	145.900000
229.539169	145.660000
229.631851	145.340000
229.724533	145.500000
229.817230	145.800000
229.909912	146.920000
230.002609	146.980000
230.095306	146.960000
230.187988	147.120000
230.280685	146.600000
230.373383	145.260000
230.466095	145.260000
230.558792	145.440000
230.651474	145.320000
230.744171	145.440000
230.836868	145.640000
230.929581	145.720000
231.022278	146.080000
231.114975	145.920000
231.207672	145.820000
231.300369	146.440000
231.393082	146.440000
231.485779	146.120000
231.578506	146.420000
231.671204	146.540000
231.763916	146.240000
231.856613	146.060000
231.949326	146.420000
232.042023	146.000000
232.134735	146.060000
232.227448	145.940000
232.320160	146.220000
232.412872	145.860000
232.505585	146.800000
232.598297	147.100000
232.691010	146.720000
232.783722	146.280000
232.876450	146.900000
232.969162	146.080000
233.061874	145.500000
233.154587	145.420000
233.247314	145.680000
233.340027	145.260000
233.432739	145.980000
233.525467	145.980000
233.618179	146.500000
233.710907	146.380000
233.803635	146.660000
233.896347	145.980000
233.989090	146.620000
234.081818	146.520000
234.174545	146.800000
234.267258	146.180000
234.359985	146.620000
234.452713	146.300000
234.545441	146.120000
234.638168	145.880000
234.730896	146.540000
234.823639	146.480000
234.916367	147.040000
235.009094	147.080000
235.101822	146.880000
235.194580	146.600000
235.287308	146.340000
235.380051	145.480000
235.472778	145.700000
235.565521	146.080000
235.658249	145.740000
235.750992	145.580000
235.843719	145.760000
235.936462	145.920000
236.029205	145.620000
236.121948	145.660000
236.214691	146.160000
236.307449	146.720000
236.400192	146.440000
236.492935	146.220000
236.585678	146.380000
236.678421	146.260000
236.771164	146.000000
236.863907	146.620000
236.956665	147.020000
237.049408	148.540000
237.142151	148.180000
237.234909	148.560000
237.327652	148.320000
237.420410	148.140000
237.513153	146.980000
237.605927	146.960000
237.698669	146.400000
237.791428	145.720000
237.884186	146.160000
237.976944	146.040000
238.069702	146.460000
238.162445	146.160000
238.255203	146.280000
238.347961	146.420000
238.440720	146.220000
238.533478	146.000000
238.626266	146.020000
238.719025	146.200000
238.811783	145.960000
238.904541	145.680000
238.997314	145.680000
239.090073	145.420000
239.182831	145.740000
239.275604	146.080000
239.368362	145.920000
239.461136	146.040000
239.553909	146.200000
239.646667	145.960000
239.739441	145.820000
239.832214	146.140000
239.925003	146.180000
240.017761	146.920000
240.110535	147.280000
240.203308	146.620000
240.296082	146.680000
240.388855	146.480000
240.481628	146.140000
240.574417	146.100000
240.667191	146.480000
240.759964	146.260000
240.852737	146.360000
240.945526	146.060000
241.038315	145.760000
241.131088	145.680000
241.223877	145.960000
241.316650	145.780000
241.409439	146.320000
241.502228	146.040000
241.595001	146.460000
241.687790	146.420000
241.780579	146.440000
241.873367	146.440000
241.966141	146.680000
242.058929	146.200000
242.151718	146.280000
242.244507	146.560000
242.337311	145.800000
242.430099	146.140000
242.522903	146.120000
242.615692	145.680000
242.708481	145.480000
242.801270	146.120000
242.894073	145.880000
242.986862	146.140000
243.079651	146.600000
243.172455	146.480000
243.265244	146.420000
243.358063	145.940000
243.450867	146.260000
243.543655	146.080000
243.636459	146.340000
243.729263	146.580000
243.822067	147.440000
243.914856	147.480000
244.007660	147.680000
244.100464	147.580000
244.193268	147.140000
244.286072	146.660000
244.378876	146.180000
244.471680	146.180000
244.564499	146.400000
244.657318	147.080000
244.750122	147.300000
244.842926	146.940000
244.935745	146.900000
245.028549	146.440000
245.121368	146.080000
245.214172	145.820000
245.306992	146.320000
245.399796	146.120000
245.492615	146.340000
245.585434	146.060000
245.678253	146.340000
245.771072	146.080000
245.863892	146.460000
245.956711	146.760000
246.049530	146.820000
246.142349	146.400000
246.235168	146.420000
246.327988	146.620000
246.420807	146.460000
246.513626	146.340000
246.606445	146.500000
246.699280	146.620000
246.792099	146.340000
246.884918	145.920000
246.977753	145.880000
247.070587	146.100000
247.163422	146.140000
247.256241	145.860000
247.349075	146.060000
247.441895	145.940000
247.534729	145.660000
247.627563	145.440000
247.720383	146.220000
247.813217	146.040000
247.906052	145.940000
247.998886	146.120000
248.091736	146.120000
248.184570	145.540000
248.277405	145.760000
248.370239	146.980000
248.463074	147.840000
248.555908	148.040000
248.648743	148.020000
248.741592	148.180000
248.834427	147.440000
248.927261	146.140000
249.020111	146.540000
249.112946	147.140000
249.205795	146.640000
249.298630	146.740000
249.391495	147.060000
249.484344	146.620000
249.577179	146.120000
249.670029	146.500000
249.762878	146.660000
249.855728	146.720000
249.948563	146.880000
250.041412	146.460000
250.134262	146.580000
250.227112	146.360000
250.319962	146.560000
250.412827	146.540000
250.505692	146.380000
250.598541	146.180000
250.691391	146.140000
250.784241	145.860000
250.877106	145.900000
250.969955	146.020000
251.062805	146.520000
251.155670	147.000000
251.248520	147.060000
251.341385	147.300000
251.434235	147.520000
251.527100	147.340000
251.619965	146.860000
251.712814	147.380000
251.805695	147.240000
251.898560	147.200000
251.991425	147.040000
252.084290	147.300000
252.177155	146.600000
252.270020	146.100000
252.362885	146.140000
252.455750	146.360000
252.548615	146.000000
252.641479	146.040000
252.734360	146.000000
252.827240	145.960000
252.920105	145.680000
253.012970	145.680000
253.105850	145.680000
253.198715	145.720000
253.291595	145.900000
253.384460	145.900000
253.477341	146.000000
253.570221	146.220000
253.663086	146.420000
253.755966	146.960000
253.848846	147.000000
253.941727	147.260000
254.034592	147.340000
254.127472	146.620000
254.220367	146.400000
254.313248	146.560000
254.406128	146.060000
254.499008	146.380000
254.591904	147.600000
254.684784	147.960000
254.777664	147.780000
254.870544	147.680000
254.963440	147.260000
255.056335	147.040000
255.149216	146.340000
255.242111	146.800000
255.334991	147.320000
255.427887	147.300000
255.520767	147.480000
255.613663	147.620000
255.706558	146.920000
255.799438	146.420000
255.892334	146.460000
255.985229	146.040000
256.078125	146.140000
256.171021	146.520000
256.263916	147.120000
256.356812	147.400000
256.449707	147.660000
256.542603	147.460000
256.635498	147.940000
256.728394	147.720000
256.821289	147.320000
256.914215	147.380000
257.007080	147.440000
257.100006	146.980000
257.192932	147.280000
257.285828	147.240000
257.378723	146.720000
257.471619	146.500000
257.564545	146.000000
257.657440	145.620000
257.750336	146.220000
257.843262	146.300000
257.936157	147.500000
258.029053	147.880000
258.121979	148.060000
258.214874	147.760000
258.307800	147.700000
258.400696	146.280000
258.493622	146.420000
258.586517	145.400000
258.679443	145.640000
258.772339	145.380000
258.865265	145.640000
258.958160	145.000000
259.051086	146.300000
259.144012	145.840000
259.236938	146.840000
259.329834	147.100000
259.422791	147.180000
259.515717	146.100000
259.608612	146.040000
259.701538	145.680000
259.794464	145.660000
259.887390	146.020000
259.980316	146.240000
260.073212	146.260000
260.166138	144.960000
260.259064	144.920000
260.351990	145.160000
260.444916	145.520000
260.537842	145.760000
260.630768	147.020000
260.723694	146.960000
260.816620	146.940000
260.909546	146.580000
261.002472	146.000000
261.095398	145.740000
261.188354	145.840000
261.281281	145.340000
261.374207	145.820000
261.467133	146.680000
261.560089	146.480000
261.653015	146.300000
261.745972	147.020000
261.838867	147.220000
261.931824	146.900000
262.024780	146.660000
262.117706	146.940000
262.210663	146.980000
262.303589	146.680000
262.396515	146.680000
262.489471	147.700000
262.582397	147.420000
262.675354	146.740000
262.768280	146.600000
262.861237	146.580000
262.954163	146.280000
263.047119	146.300000
263.140045	146.140000
263.233002	146.360000
263.325958	146.260000
263.418884	145.740000
263.511841	145.840000
263.604797	146.020000
263.697723	145.680000
263.790680	145.720000
263.883636	145.980000
263.976593	145.540000
264.069550	145.520000
264.162476	145.560000
264.255463	145.660000
264.348419	145.460000
264.441376	145.980000
264.534332	145.740000
264.627289	145.920000
264.720245	146.120000
264.813202	146.020000
264.906158	146.020000
264.999115	146.760000
265.092072	146.580000
265.185028	146.980000
265.277985	147.280000
265.370941	147.400000
265.463898	146.960000
265.556854	146.720000
265.649811	145.680000
265.742798	145.580000
265.835754	145.360000
265.928711	146.020000
266.021667	146.380000
266.114655	146.620000
266.207611	146.980000
266.300568	146.480000
266.393585	146.020000
266.486511	146.380000
266.579498	145.940000
266.672485	145.860000
266.765442	145.860000
266.858429	146.120000
266.951385	145.460000
267.044342	145.820000
267.137329	145.460000
267.230316	145.940000
267.323273	145.580000
267.416260	146.500000
267.509216	146.580000
267.602203	146.740000
267.695160	147.160000
267.788147	147.260000
267.881134	146.500000
267.974091	146.780000
268.067078	146.640000
268.160065	146.120000
268.253052	146.020000
268.346008	146.160000
268.438995	145.840000
268.531982	146.000000
268.624969	145.940000
268.717987	146.400000
268.810944	146.480000
268.903961	146.620000
268.996948	146.620000
269.089905	147.400000
269.182892	147.220000
269.275879	147.380000
269.368866	146.820000
269.461853	146.660000
269.554871	146.260000
269.647858	146.020000
269.740845	146.100000
269.833832	146.780000
269.926819	146.780000
270.019806	146.460000
270.112793	146.280000
270.205811	146.560000
270.298798	146.220000
270.391785	147.020000
270.484772	146.860000
270.577789	147.140000
270.670776	146.460000
270.763763	146.740000
270.856750	146.320000
270.949768	146.120000
271.042786	146.280000
271.135773	146.260000
271.228790	146.320000
271.321808	145.880000
271.414795	145.880000
271.507782	145.400000
271.600800	145.440000
271.693817	145.460000
271.786804	145.940000
271.879822	146.600000
271.972809	146.780000
272.065826	147.220000
272.158844	146.480000
272.251831	146.740000
272.344849	146.440000
272.437866	145.980000
272.530853	145.780000
272.623871	146.560000
272.716888	145.580000
272.809906	145.720000
272.902893	145.860000
272.995911	145.220000
273.088928	144.900000
273.181946	145.340000
273.274963	144.840000
273.367981	145.060000
273.460999	145.480000
273.554047	145.920000
273.647003	146.420000
273.740051	146.680000
273.833069	147.040000
273.926086	147.100000
274.019135	146.540000
274.112152	145.860000
274.205170	145.920000
274.298187	145.980000
274.391205	145.720000
274.484222	145.940000
274.577240	146.200000
274.670258	146.160000
274.763306	145.760000
274.856323	146.260000
274.949341	146.180000
275.042358	146.500000
275.135406	146.340000
275.228424	146.300000
275.321442	146.180000
275.414490	145.880000
275.507507	145.880000
275.600525	146.400000
275.693573	146.380000
275.786591	146.020000
275.879669	146.620000
275.972656	146.280000
276.065735	146.000000
276.158752	146.480000
276.251801	147.200000
276.344818	146.980000
276.437866	147.440000
276.530884	147.320000
276.623932	146.560000
276.716980	146.240000
276.809998	146.380000
276.903046	146.220000
276.996094	147.020000
277.089111	147.640000
277.182159	148.240000
277.275208	147.800000
277.368256	147.560000
277.461304	147.020000
277.554321	146.340000
277.647369	145.720000
277.740417	145.800000
277.833466	145.740000
277.926514	145.200000
278.019562	146.060000
278.112610	145.540000
278.205688	145.900000
278.298706	146.180000
278.391785	146.460000
278.484833	145.940000
278.577881	146.000000
278.670929	146.440000
278.763977	146.220000
278.857025	146.600000
278.950073	146.540000
279.043121	146.440000
279.136169	146.120000
279.229248	145.740000
279.322296	145.680000
279.415344	145.540000
279.508392	145.880000
279.601440	145.540000
279.694519	145.820000
279.787567	145.540000
279.880615	145.460000
279.973694	145.480000
280.066742	145.600000
280.159790	145.760000
280.252869	145.600000
280.345917	145.960000
280.438995	145.720000
280.532074	145.800000
280.625122	145.800000
280.718201	146.840000
280.811279	146.880000
280.904327	147.120000
280.997406	146.980000
281.090454	147.080000
281.183533	146.400000
281.276581	146.240000
281.369659	146.060000
281.462738	146.500000
281.555786	146.620000
281.648865	146.440000
281.741943	146.480000
281.835022	147.440000
281.928070	147.040000
282.021149	146.900000
282.114227	146.980000
282.207306	147.120000
282.300385	146.680000
282.393433	147.160000
282.486511	147.140000
282.579590	147.620000
282.672668	147.800000
282.765747	147.500000
282.858856	146.880000
282.951904	146.860000
283.045013	146.920000
283.138062	147.200000
283.231171	147.080000
283.324249	147.380000
283.417328	147.500000
283.510406	147.080000
283.603485	146.660000
283.696564	146.760000
283.789642	146.720000
283.882751	146.280000
283.975830	146.620000
284.068909	146.340000
284.161987	146.920000
284.255066	146.560000
284.348175	146.680000
284.441254	146.440000
284.534332	146.920000
284.627441	146.300000
284.720520	146.200000
284.813599	146.560000
284.906708	146.360000
284.999786	145.600000
285.092896	145.480000
285.185974	146.240000
285.279053	145.460000
285.372192	145.480000
285.465240	146.420000
285.558380	146.340000
285.651459	146.000000
285.744568	147.220000
285.837677	147.360000
285.930756	147.100000
286.023865	147.580000
286.116943	147.120000
286.210052	147.040000
286.303162	146.700000
286.396240	146.540000
286.489349	146.100000
286.582458	146.400000
286.675568	145.980000
286.768646	146.340000
286.861755	146.700000
286.954865	147.360000
287.047974	147.140000
287.141083	146.860000
287.234161	146.460000
287.327271	146.060000
287.420380	146.200000
287.513519	146.040000
287.606598	146.300000
287.699738	146.820000
287.792816	146.920000
287.885956	146.600000
287.979034	146.600000
288.072174	146.700000
288.165283	146.260000
288.258392	146.440000
288.351501	145.700000
288.444611	146.280000
288.537720	146.380000
288.630859	146.320000
288.723969	146.240000
288.817078	146.760000
288.910187	146.580000
289.003296	145.960000
289.096436	145.920000
289.189545	145.620000
289.282654	145.240000
289.375763	145.480000
289.468903	145.960000
289.562012	146.180000
289.655121	146.440000
289.748260	146.740000
289.841400	147.140000
289.934509	147.160000
290.027649	147.260000
290.120728	147.060000
290.213898	147.040000
290.306976	146.340000
290.400146	145.920000
290.493256	145.560000
290.586395	145.640000
290.679535	146.120000
290.772644	145.880000
290.865784	145.460000
290.958893	145.440000
291.052032	145.320000
291.145172	145.160000
291.238281	145.100000
291.331421	145.460000
291.424561	146.000000
291.517670	145.800000
291.610809	145.680000
291.703949	145.920000
291.797089	146.280000
291.890228	145.620000
291.983337	145.880000
292.076477	145.600000
292.169617	145.760000
292.262756	145.700000
292.355927	145.760000
292.449036	145.340000
292.542206	145.740000
292.635315	145.900000
292.728485	146.180000
292.821625	146.060000
292.914764	147.380000
293.007904	147.280000
293.101044	147.140000
293.194183	146.740000
293.287323	147.120000
293.380463	146.380000
293.473602	146.220000
293.566742	146.300000
293.659882	146.660000
293.753021	147.120000
293.846191	146.940000
293.939331	146.740000
294.032471	146.620000
294.125610	146.300000
294.218781	146.340000
294.311920	146.900000
294.405060	146.960000
294.498230	147.040000
294.591370	146.960000
294.684540	146.160000
294.777679	145.520000
294.870850	146.120000
294.963959	145.900000
295.057159	146.080000
295.150299	146.600000
295.243469	146.520000
295.336609	145.740000
295.429779	145.700000
295.522919	145.860000
295.616089	145.920000
295.709229	146.540000
295.802399	146.780000
295.895569	146.960000
295.988708	146.860000
296.081879	146.740000
296.175018	145.980000
296.268188	146.220000
296.361359	146.460000
296.454529	146.360000
296.547668	146.140000
296.640839	146.620000
296.734009	146.120000
296.827179	145.860000
296.920319	146.280000
297.013519	146.300000
297.106659	146.520000
297.199860	146.700000
297.292999	146.720000
297.386200	146.100000
297.479309	145.840000
297.572510	145.820000
297.665680	145.760000
297.758850	145.900000
297.852020	146.220000
297.945190	146.280000
298.038361	145.740000
298.131531	146.500000
298.224701	146.200000
298.317871	145.700000
298.411072	145.560000
298.504242	145.560000
298.597412	145.020000
298.690582	145.540000
298.783752	145.820000
298.876923	146.360000
298.970093	146.480000
299.063293	146.740000
299.156464	146.680000
299.249634	146.860000
299.342834	146.540000
299.436005	146.920000
299.529205	146.600000
299.622345	146.740000
299.715576	146.200000
299.808716	146.080000
299.901917	146.040000
299.995117	146.680000
300.088287	146.660000
300.181488	146.680000
300.274658	146.820000
300.367828	146.600000
300.461029	146.120000
300.554199	146.260000
300.647400	146.080000
300.740601	146.840000
300.833771	146.720000
300.926971	147.060000
301.020142	146.380000
301.113342	146.660000
301.206512	145.940000
301.299713	146.120000
301.392914	146.020000
301.486084	146.560000
301.579285	146.680000
301.672516	147.280000
301.765686	147.220000
301.858887	146.900000
301.952057	146.420000
302.045288	146.720000
302.138458	146.500000
302.231659	146.260000
302.324860	146.540000
302.418060	146.320000
302.511261	145.920000
302.604462	146.120000
302.697662	146.000000
302.790863	145.900000
302.884064	145.980000
302.977264	146.160000
303.070465	146.200000
303.163666	147.020000
303.256866	146.940000
303.350067	146.800000
303.443268	146.680000
303.536469	146.640000
303.629669	146.200000
303.722870	146.120000
303.816071	146.280000
303.909271	146.420000
304.002472	145.720000
304.095673	145.520000
304.188934	144.960000
304.282104	145.800000
304.375336	145.840000
304.468506	145.940000
304.561768	146.000000
304.654968	146.740000
304.748169	146.360000
304.841370	146.120000
304.934601	146.620000
305.027802	146.160000
305.121002	146.000000
305.214233	145.720000
305.307434	145.760000
305.400665	145.880000
305.493866	146.020000
305.587097	146.220000
305.680298	146.160000
305.773499	146.840000
305.866730	146.500000
305.959930	147.180000
306.053162	147.440000
306.146393	147.320000
306.239594	146.160000
306.332825	146.000000
306.426025	146.000000
306.519287	145.400000
306.612488	145.740000
306.705719	145.940000
306.798920	146.060000
306.892181	145.240000
306.985352	144.920000
307.078613	144.560000
307.171844	145.020000
307.265045	144.660000
307.358276	144.560000
307.451508	145.320000
307.544739	145.580000
307.637970	145.260000
307.731201	145.520000
307.824402	146.380000
307.917633	146.440000
308.010864	146.880000
308.104095	147.460000
308.197327	147.380000
308.290558	147.420000
308.383789	146.840000
308.477020	146.440000
308.570251	145.400000
308.663483	145.180000
308.756714	144.840000
308.849976	145.140000
308.943176	145.380000
309.036438	145.640000
309.129639	145.460000
309.222900	145.280000
309.316101	144.920000
309.409393	144.360000
309.502625	144.280000
309.595856	144.740000
309.689087	144.960000
309.782318	145.340000
309.875580	145.500000
309.968811	146.000000
310.062042	145.700000
310.155273	145.540000
310.248535	145.660000
310.341766	145.860000
310.434998	145.480000
310.528259	145.420000
310.621490	145.580000
310.714722	144.960000
310.807983	144.680000
310.901215	144.920000
310.994476	145.260000
311.087708	144.980000
311.181000	145.420000
311.274200	144.980000
311.367462	145.060000
311.460693	145.060000
311.553986	145.920000
311.647186	146.200000
311.740479	147.200000
311.833710	146.620000
311.926971	146.500000
312.020203	145.640000
312.113464	145.300000
312.206726	144.760000
312.299957	145.360000
312.393219	145.900000
312.486481	146.160000
312.579712	146.120000
312.672974	146.200000
312.766235	146.060000
312.859497	145.880000
312.952759	145.700000
313.045990	146.320000
313.139252	145.660000
313.232513	146.080000
313.325775	145.880000
313.419037	146.060000
313.512299	145.060000
313.605530	145.940000
313.698822	145.540000
313.792053	146.000000
313.885345	145.520000
313.978577	146.180000
314.071869	145.540000
314.165131	145.920000
314.258392	145.900000
314.351654	146.280000
314.444916	145.520000
314.538177	146.340000
314.631439	146.480000
314.724701	145.860000
314.817993	145.840000
314.911255	146.440000
315.004517	145.680000
315.097778	145.160000
315.191040	145.620000
315.284302	145.800000
315.377594	145.620000
315.470856	145.800000
315.564117	145.620000
315.657379	144.820000
315.750671	144.440000
315.843933	144.700000
315.937195	144.420000
316.030518	144.680000
316.123749	145.140000
316.217041	145.960000
316.310303	145.640000
316.403595	145.860000
316.496857	146.140000
316.590149	146.300000
316.683411	145.360000
316.776703	145.680000
316.869965	145.740000
316.963257	145.280000
317.056519	144.700000
317.149811	145.060000
317.243073	144.820000
317.336365	145.160000
317.429626	145.720000
317.522919	146.640000
317.616180	146.700000
317.709473	146.520000
317.802765	146.260000
317.896027	146.120000
317.989319	146.320000
318.082611	146.140000
318.175873	145.980000
318.269165	146.140000
318.362488	146.040000
318.455750	145.520000
318.549042	146.240000
318.642303	146.920000
318.735626	146.520000
318.828888	146.620000
318.922211	146.060000
319.015472	146.160000
319.108765	145.440000
319.202057	145.540000
319.295349	145.540000
319.388641	145.880000
319.481934	145.380000
319.575226	145.400000
319.668518	145.780000
319.761810	145.800000
319.855103	145.900000
319.948395	145.740000
320.041687	145.840000
320.134979	145.640000
320.228271	145.560000
320.321564	145.500000
320.414856	145.720000
320.508148	145.660000
320.601440	145.640000
320.694763	145.380000
320.788025	146.120000
320.881348	146.100000
320.974640	146.080000
321.067963	145.480000
321.161224	145.720000
321.254547	144.640000
321.347839	145.240000
321.441162	145.260000
321.534454	145.680000
321.627747	145.420000
321.721069	146.300000
321.814362	146.060000
321.907654	146.220000
322.000946	146.120000
322.094269	146.760000
322.187561	146.400000
322.280884	146.380000
322.374176	146.740000
322.467468	147.300000
322.560791	147.000000
322.654083	147.320000
322.747406	147.420000
322.840698	147.560000
322.934021	147.440000
323.027344	147.740000
323.120636	147.300000
323.213959	146.960000
323.307251	146.300000
323.400574	146.140000
323.493866	145.700000
323.587219	145.760000
323.680511	146.000000
323.773834	146.160000
323.867157	146.200000
323.960449	146.280000
324.053772	146.420000
324.147095	146.100000
324.240387	146.920000
324.333710	147.080000
324.427032	147.200000
324.520355	146.940000
324.613647	146.640000
324.706970	146.100000
324.800293	146.040000
324.893616	146.220000
324.986938	146.320000
325.080231	146.520000
325.173553	146.460000
325.266876	146.660000
325.360199	146.260000
325.453522	145.860000
325.546875	145.700000
325.640167	146.020000
325.733521	146.140000
325.826813	146.760000
325.920166	146.800000
326.013489	146.740000
326.106812	145.820000
326.200134	145.100000
326.293457	144.060000
326.386780	144.220000
326.480103	144.180000
326.573425	144.280000
326.666748	144.560000
326.760071	145.340000
326.853424	145.460000
326.946747	145.560000
327.040070	146.500000
327.133392	146.080000
327.226715	145.340000
327.320068	144.860000
327.413391	145.200000
327.506714	144.320000
327.600037	144.520000
327.693390	144.880000
327.786713	145.100000
327.880066	144.800000
327.973358	145.140000
328.066742	145.840000
328.160034	145.920000
328.253418	146.280000
328.346710	146.360000
328.440063	146.320000
328.533417	145.920000
328.626740	146.060000
328.720093	145.920000
328.813416	145.820000
328.906769	145.680000
329.000092	145.820000
329.093445	145.560000
329.186768	145.500000
329.280121	145.800000
329.373444	146.260000
329.466797	146.300000
329.560120	146.380000
329.653473	146.380000
329.746796	146.060000
329.840149	145.680000
329.933502	145.500000
330.026825	145.420000
330.120178	145.100000
330.213562	145.040000
330.306854	145.300000
330.400238	145.340000
330.493561	145.020000
330.586945	146.080000
330.680237	146.760000
330.773621	146.500000
330.866974	146.420000
330.960327	146.980000
331.053680	146.280000
331.147003	146.120000
331.240356	146.500000
331.333710	146.540000
331.427063	145.920000
331.520416	146.020000
331.613770	145.720000
331.707123	145.480000
331.800476	145.500000
331.893829	146.560000
331.987152	146.760000
332.080505	146.980000
332.173859	146.900000
332.267212	146.640000
332.360565	145.900000
332.453918	145.480000
332.547333	145.240000
332.640656	145.320000
332.734039	145.240000
332.827362	145.380000
332.920746	145.980000
333.014069	146.180000
333.107452	146.500000
333.200806	146.960000
333.294159	146.900000
333.387543	146.400000
333.480896	145.920000
333.574249	145.320000
333.667603	144.900000
333.760956	145.180000
333.854340	145.240000
333.947693	145.540000
334.041046	145.660000
334.134430	146.060000
334.227783	145.460000
334.321136	145.460000
334.414520	145.140000
334.507874	145.680000
334.601227	145.640000
334.694611	145.840000
334.787964	145.800000
334.881348	145.920000
334.974701	145.480000
335.068085	145.020000
335.161438	145.500000
335.254822	145.640000
335.348175	145.760000
335.441559	145.220000
335.534943	145.960000
335.628296	145.760000
335.721680	145.620000
335.815033	146.060000
335.908417	146.600000
336.001770	146.280000
336.095154	145.880000
336.188538	145.420000
336.281891	144.720000
336.375275	144.540000
336.468658	144.400000
336.562012	144.780000
336.655396	145.440000
336.748779	146.080000
336.842133	146.240000
336.935516	146.660000
337.028900	146.200000
337.122284	146.000000
337.215637	145.700000
337.309021	145.620000
337.402435	145.120000
337.495789	145.220000
337.589203	145.200000
337.682526	145.000000
337.775940	145.240000
337.869324	145.420000
337.962708	145.120000
338.056091	145.440000
338.149475	145.220000
338.242859	145.260000
338.336243	145.080000
338.429626	145.500000
338.523010	145.380000
338.616394	145.560000
338.709778	145.840000
338.803162	145.800000
338.896545	145.840000
338.989929	145.320000
339.083313	145.640000
339.176697	145.300000
339.270081	145.200000
339.363464	145.480000
339.456848	146.000000
339.550232	145.360000
339.643616	144.920000
339.737030	145.300000
339.830383	145.200000
339.923828	145.020000
340.017181	145.400000
340.110596	145.520000
340.203949	145.280000
340.297363	144.660000
340.390778	144.620000
340.484161	144.560000
340.577545	144.560000
340.670959	144.620000
340.764343	145.060000
340.857727	145.120000
340.951111	144.680000
341.044525	144.900000
341.137909	144.500000
341.231293	144.280000
341.324707	144.240000
341.418091	145.400000
341.511505	145.420000
341.604889	145.820000
341.698303	145.820000
341.791687	145.980000
341.885071	145.240000
341.978485	144.860000
342.071899	145.160000
342.165283	145.780000
342.258698	146.040000
342.352081	146.300000
342.445496	147.200000
342.538879	147.020000
342.632324	146.500000
342.725708	146.140000
342.819122	145.820000
342.912506	145.280000
343.005920	145.360000
343.099335	146.260000
343.192719	146.360000
343.286133	146.440000
343.379547	146.720000
343.472931	146.620000
343.566345	145.740000
343.659760	145.820000
343.753143	145.660000
343.846558	145.140000
343.939972	144.940000
344.033386	145.620000
344.126770	145.500000
344.220184	145.660000
344.313599	146.120000
344.407043	146.560000
344.500427	145.900000
344.593872	146.280000
344.687225	146.080000
344.780670	145.900000
344.874054	145.360000
344.967499	145.840000
345.060913	145.440000
345.154327	145.680000
345.247742	145.140000
345.341156	145.120000
345.434570	144.840000
345.527985	144.840000
345.621399	144.920000
345.714813	145.060000
345.808228	145.320000
345.901642	145.120000
345.995056	144.900000
346.088470	144.940000
346.181885	145.020000
346.275299	144.900000
346.368713	144.940000
346.462128	144.740000
346.555573	144.460000
346.648987	144.940000
346.742401	144.960000
346.835815	145.200000
346.929260	145.240000
347.022644	145.300000
347.116119	145.280000
347.209503	145.600000
347.302948	146.620000
347.396362	147.220000
347.489807	147.300000
347.583221	147.580000
347.676636	147.240000
347.770050	145.740000
347.863495	145.400000
347.956909	145.500000
348.050323	144.940000
348.143768	144.900000
348.237183	145.040000
348.330597	145.460000
348.424042	145.660000
348.517456	146.180000
348.610901	146.460000
348.704315	146.640000
348.797760	145.780000
348.891174	144.880000
348.984619	144.260000
349.078033	144.540000
349.171448	144.980000
349.264923	145.580000
349.358337	145.960000
349.451782	146.200000
349.545197	145.560000
349.638641	144.760000
349.732086	144.180000
349.825500	144.620000
349.918945	144.500000
350.012390	145.120000
350.105804	145.740000
350.199249	146.000000
350.292664	146.440000
350.386108	146.440000
350.479553	146.840000
350.572968	146.740000
350.666412	147.040000
350.759857	146.900000
350.853302	147.500000
350.946716	146.620000
351.040161	146.700000
351.133606	146.500000
351.227081	146.120000
351.320465	146.480000
351.413940	146.540000
351.507355	146.700000
351.600830	147.020000
351.694244	146.900000
351.787720	146.440000
351.881104	146.460000
351.974579	146.020000
352.067993	146.520000
352.161469	146.360000
352.254883	145.520000
352.348358	145.600000
352.441803	145.800000
352.535248	145.480000
352.628693	146.180000
352.722137	146.540000
352.815582	146.840000
352.909027	146.760000
353.002472	146.320000
353.095917	146.280000
353.189362	146.700000
353.282806	146.420000
353.376251	146.360000
353.469696	146.040000
353.563141	146.240000
353.656586	145.760000
353.750061	145.160000
353.843475	145.180000
353.936981	145.940000
354.030396	145.240000
354.123871	145.480000
354.217285	146.620000
354.310760	146.760000
354.404175	146.540000
354.497681	146.420000
354.591095	146.420000
354.684570	145.300000
354.777985	145.400000
354.871490	144.980000
354.964935	145.620000
355.058380	145.580000
355.151855	145.660000
355.245300	145.640000
355.338745	145.980000
355.432220	145.480000
355.525665	145.000000
355.619110	145.920000
355.712585	145.760000
355.806030	145.520000
355.899475	145.260000
355.992950	145.900000
356.086426	145.800000
356.179871	145.760000
356.273346	146.040000
356.366791	146.480000
356.460266	146.420000
356.553711	145.800000
356.647186	146.000000
356.740631	145.580000
356.834106	145.500000
356.927551	145.700000
357.021027	146.080000
357.114471	146.020000
357.207947	146.540000
357.301422	146.860000
357.394867	146.760000
357.488342	146.660000
357.581818	146.520000
357.675262	146.400000
357.768738	145.660000
357.862213	145.040000
357.955658	145.180000
358.049133	145.320000
358.142609	145.680000
358.236053	145.780000
358.329529	145.980000
358.423035	146.160000
358.516449	145.760000
358.609955	146.200000
358.703400	146.780000
358.796906	147.260000
358.890350	146.720000
358.983826	147.260000
359.077271	145.960000
359.170776	145.720000
359.264221	145.400000
359.357727	145.740000
359.451172	145.880000
359.544647	146.500000
359.638123	146.200000
359.731598	146.400000
359.825073	146.540000
359.918549	146.160000
360.012024	146.080000
360.105499	146.060000
360.198975	145.940000
360.292450	145.640000
360.385925	145.540000
360.479401	145.140000
360.572876	145.520000
360.666351	145.740000
360.759857	145.740000
360.853302	146.000000
360.946808	145.680000
361.040253	145.660000
361.133759	145.140000
361.227203	145.420000
361.320709	144.920000
361.414154	145.580000
361.507660	145.800000
361.601105	146.200000
361.694641	146.440000
361.788086	146.860000
361.881592	147.100000
361.975067	146.660000
362.068542	146.620000
362.162018	146.400000
362.255524	145.860000
362.348999	145.620000
362.442474	146.080000
362.535950	145.720000
362.629456	145.580000
362.722931	145.620000
362.816406	146.060000
362.909882	146.280000
363.003387	146.280000
363.096863	146.620000
363.190338	146.600000
363.283875	146.140000
363.377319	145.520000
363.470825	146.020000
363.564301	145.540000
363.657806	146.100000
363.751282	146.020000
363.844788	146.580000
363.938232	146.100000
364.031769	146.720000
364.125214	146.620000
364.218750	147.220000
364.312225	146.500000
364.405731	146.860000
364.499207	146.200000
364.592712	145.740000
364.686188	145.240000
364.779694	145.500000
364.873169	145.360000
364.966675	145.400000
365.060150	145.480000
365.153656	145.640000
365.247131	145.620000
365.340637	145.660000
365.434143	145.920000
365.527618	146.100000
365.621155	145.380000
365.714600	145.500000
365.808136	145.880000
365.901611	145.140000
365.995117	144.880000
366.088593	145.220000
366.182129	145.080000
366.275604	144.780000
366.369110	145.220000
366.462585	145.580000
366.556122	146.320000
366.649567	146.100000
366.743103	146.080000
366.836609	145.960000
366.930115	146.180000
367.023590	145.860000
367.117096	145.820000
367.210602	145.900000
367.304108	146.360000
367.397614	146.620000
367.491119	146.700000
367.584595	146.960000
367.678101	147.000000
367.771606	146.500000
367.865112	146.120000
367.958649	145.400000
368.052124	145.260000
368.145660	145.060000
368.239136	145.740000
368.332672	145.580000
368.426147	146.040000
368.519684	145.760000
368.613159	146.100000
368.706696	145.660000
368.800171	145.580000
368.893707	145.440000
368.987183	146.000000
369.080719	146.020000
369.174225	145.900000
369.267731	146.220000
369.361237	146.560000
369.454742	146.420000
369.548248	146.760000
369.641754	146.600000
369.735260	146.460000
369.828766	145.580000
369.922272	146.000000
370.015808	145.380000
370.109314	145.460000
370.202820	145.340000
370.296356	146.680000
370.389832	146.560000
370.483368	146.240000
370.576874	145.920000
370.670410	145.940000
370.763885	144.880000
370.857422	144.600000
370.950928	144.920000
371.044464	145.860000
371.137939	146.000000
371.231476	146.420000
371.324982	147.160000
371.418518	147.160000
371.512024	146.820000
371.605560	146.720000
371.699066	146.700000
371.792572	145.880000
371.886108	146.140000
371.979614	145.960000
372.073120	146.480000
372.166656	146.220000
372.260162	146.480000
372.353668	146.260000
372.447205	146.420000
372.540710	146.140000
372.634277	146.260000
372.727753	146.300000
372.821320	146.320000
372.914795	145.880000
373.008362	145.820000
373.101837	145.880000
373.195404	145.520000
373.288879	145.420000
373.382446	146.300000
373.475922	146.160000
373.569489	146.760000
373.662964	147.280000
373.756531	147.320000
373.850037	146.740000
373.943573	146.740000
374.037109	145.600000
374.130615	145.540000
374.224152	145.660000
374.317657	145.780000
374.411194	146.520000
374.504730	147.000000
374.598236	146.540000
374.691772	145.920000
374.785309	145.820000
374.878815	144.740000
374.972351	145.160000
375.065887	145.180000
375.159454	146.040000
375.252930	145.860000
375.346497	146.540000
375.440002	146.820000
375.533569	146.880000
375.627045	146.380000
375.720612	146.680000
375.814117	146.640000
375.907684	145.800000
376.001160	145.680000
376.094727	145.260000
376.188232	145.540000
376.281799	145.560000
376.375336	145.680000
376.468872	146.260000
376.562408	146.420000
376.655914	146.020000
376.749451	145.740000
376.842987	146.020000
376.936523	145.600000
377.030060	145.700000
377.123596	146.000000
377.217133	145.580000
377.310669	145.640000
377.404205	145.720000
377.497772	146.160000
377.591278	145.940000
377.684845	146.880000
377.778351	147.080000
377.871918	147.180000
377.965424	146.640000
378.058990	146.460000
378.152496	145.940000
378.246063	145.940000
378.339569	146.260000
378.433136	146.400000
378.526642	146.420000
378.620209	146.460000
378.713745	145.840000
378.807312	145.860000
378.900848	145.640000
378.994385	146.140000
379.087921	145.480000
379.181458	146.040000
379.274994	145.280000
379.368530	145.480000
379.462097	145.320000
379.555634	146.260000
379.649170	145.360000
379.742706	145.440000
379.836273	145.560000
379.929810	145.000000
380.023376	144.500000
380.116882	144.720000
380.210449	145.080000
380.303986	144.600000
380.397552	144.720000
380.491058	145.120000
380.584656	145.360000
380.678162	145.340000
380.771729	145.980000
380.865265	146.460000
380.958832	146.340000
381.052368	146.700000
381.145935	146.980000
381.239471	147.260000
381.333008	147.100000
381.426575	147.020000
381.520111	147.040000
381.613647	146.960000
381.707214	146.760000
381.800751	146.460000
381.894318	146.520000
381.987854	145.800000
382.081421	145.480000
382.174988	145.580000
382.268524	145.780000
382.362091	145.880000
382.455627	147.160000
382.549194	147.100000
382.642731	146.340000
382.736298	145.880000
382.829834	145.640000
382.923401	145.120000
383.016937	145.520000
383.110504	145.860000
383.204041	146.280000
383.297607	146.440000
383.391174	145.760000
383.484741	145.920000
383.578278	145.680000
383.671844	145.440000
383.765411	144.880000
383.858948	145.380000
383.952515	144.980000
384.046051	145.460000
384.139618	145.840000
384.233185	146.120000
384.326721	145.980000
384.420288	146.540000
384.513855	146.380000
384.607422	146.480000
384.700989	146.680000
384.794525	146.280000
384.888123	146.280000
384.981659	146.540000
385.075226	146.180000
385.168762	146.020000
385.262360	146.300000
385.355896	145.200000
385.449463	145.000000
385.542999	145.120000
385.636597	145.740000
385.730164	146.040000
385.823730	146.040000
385.917267	145.660000
386.010834	145.780000
386.104401	145.700000
386.197968	146.040000
386.291534	146.880000
386.385101	147.100000
386.478668	147.340000
386.572235	146.900000
386.665802	146.060000
386.759338	145.740000
386.852905	145.740000
386.946472	145.540000
387.040070	145.600000
387.133606	145.860000
387.227203	145.300000
387.320740	145.420000
387.414337	145.000000
387.507874	144.960000
387.601471	145.180000
387.695007	145.500000
387.788605	145.360000
387.882141	145.620000
387.975739	145.860000
388.069275	145.600000
388.162872	146.000000
388.256439	146.120000
388.350037	146.060000
388.443604	145.680000
388.537170	145.620000
388.630737	145.760000
388.724304	145.940000
388.817871	145.600000
388.911438	146.140000
389.005005	146.640000
389.098602	146.600000
389.192169	146.140000
389.285736	146.860000
389.379333	146.600000
389.472870	145.960000
389.566467	146.040000
389.660034	146.240000
389.753632	145.840000
389.847168	146.080000
389.940765	146.260000
390.034332	146.080000
390.127930	145.700000
390.221466	145.460000
390.315063	144.800000
390.408630	144.400000
390.502228	143.700000
390.595795	144.000000
390.689362	143.920000
390.782959	144.220000
390.876526	144.820000
390.970093	145.340000
391.063690	145.940000
391.157257	146.300000
391.250824	146.680000
391.344421	146.660000
391.437988	146.880000
391.531555	146.520000
391.625153	146.600000
391.718750	146.640000
391.812317	146.360000
391.905914	145.960000
391.999481	146.160000
392.093079	146.240000
392.186615	146.420000
392.280243	146.480000
392.373779	146.900000
392.467407	146.940000
392.560944	146.640000
392.654572	146.100000
392.748108	145.980000
392.841736	145.720000
392.935303	145.460000
393.028900	145.580000
393.122467	145.820000
393.216064	145.900000
393.309631	145.600000
393.403229	145.360000
393.496796	145.280000
393.590393	144.700000
393.683990	144.980000
393.777557	145.520000
393.871155	145.620000
393.964722	146.040000
394.058350	146.520000
394.151917	146.380000
394.245514	146.200000
394.339081	146.700000
394.432678	146.800000
394.526245	146.740000
394.619873	146.420000
394.713409	146.440000
394.807037	145.960000
394.900604	145.840000
394.994202	145.780000
395.087769	146.320000
395.181396	145.880000
395.274994	146.840000
395.368561	146.120000
395.462158	146.120000
395.555756	145.560000
395.649353	145.920000
395.742920	145.000000
395.836517	145.680000
395.930115	145.100000
396.023712	145.440000
396.117279	145.860000
396.210876	145.680000
396.304474	145.680000
396.398071	145.900000
396.491669	146.400000
396.585266	145.980000
396.678833	145.900000
396.772461	146.020000
396.866028	146.100000
396.959656	145.740000
397.053223	146.220000
397.146851	146.340000
397.240417	146.860000
397.334015	148.360000
397.427582	149.080000
397.521210	149.960000
397.614807	152.120000
397.708405	153.920000
397.802002	155.740000
397.895599	159.340000
397.989197	163.380000
398.082794	167.600000
398.176392	173.480000
398.269989	179.840000
398.363586	187.480000
398.457184	196.460000
398.550781	207.060000
398.644379	216.280000
398.737976	227.000000
398.831573	236.980000
398.925201	245.960000
399.018768	254.720000
399.112396	264.340000
399.205963	273.600000
399.299591	283.760000
399.393158	294.220000
399.486786	304.560000
399.580353	313.520000
399.673981	321.040000
399.767578	325.620000
399.861206	328.280000
399.954773	327.400000
400.048401	322.620000
400.141998	313.780000
400.235596	303.120000
400.329193	288.900000
400.422791	274.200000
400.516418	260.360000
400.610016	248.220000
400.703613	236.800000
400.797211	226.220000
400.890808	217.140000
400.984436	209.200000
401.078033	201.340000
401.171631	193.860000
401.265259	188.160000
401.358826	182.380000
401.452484	177.220000
401.546051	172.840000
401.639679	168.680000
401.733246	165.560000
401.826904	162.320000
401.920471	158.860000
402.014099	156.820000
402.107697	155.260000
402.201324	153.620000
402.294891	152.540000
402.388550	151.980000
402.482147	151.000000
402.575745	149.680000
402.669373	148.200000
402.762970	147.500000
402.856567	147.160000
402.950195	147.120000
403.043793	146.880000
403.137390	147.820000
403.231018	147.080000
403.324615	147.620000
403.418243	146.640000
403.511841	147.020000
403.605469	146.560000
403.699066	147.120000
403.792694	146.840000
403.886292	147.120000
403.979919	146.800000
404.073517	146.320000
404.167145	146.440000
404.260712	146.100000
404.354370	145.920000
404.447937	146.020000
404.541595	146.380000
404.635162	146.240000
404.728821	146.480000
404.822418	146.360000
404.916046	146.220000
405.009644	146.460000
405.103271	146.800000
405.196899	146.380000
405.290497	146.560000
405.384125	146.740000
405.477722	146.220000
405.571350	145.480000
405.664948	145.640000
405.758575	145.340000
405.852203	144.740000
405.945801	144.940000
406.039429	145.380000
406.133057	145.120000
406.226654	145.380000
406.320312	145.700000
406.413879	145.780000
406.507538	145.860000
406.601135	145.820000
406.694763	146.000000
406.788361	145.740000
406.882019	145.160000
406.975586	145.180000
407.069244	145.680000
407.162872	145.760000
407.256470	145.860000
407.350098	146.260000
407.443726	145.880000
407.537323	145.640000
407.630951	146.000000
407.724579	145.720000
407.818207	146.280000
407.911804	145.980000
408.005432	145.700000
408.099060	145.480000
408.192688	146.220000
408.286285	145.720000
408.379913	145.820000
408.473572	146.220000
408.567169	145.740000
408.660828	145.620000
408.754395	145.360000
408.848053	145.340000
408.941650	145.000000
409.035309	144.660000
409.128906	144.540000
409.222565	144.740000
409.316132	144.920000
409.409790	144.980000
409.503387	145.180000
409.597046	145.040000
409.690674	145.120000
409.784302	145.200000
409.877930	144.820000
409.971558	144.900000
410.065186	144.920000
410.158783	144.660000
410.252411	144.500000
410.346039	145.100000
410.439667	145.220000
410.533295	145.420000
410.626923	145.860000
410.720551	145.520000
410.814209	145.740000
410.907806	146.160000
411.001465	145.780000
411.095062	145.720000
411.188721	146.180000
411.282318	145.780000
411.375977	145.060000
411.469574	145.420000
411.563232	145.180000
411.656830	145.060000
411.750488	145.040000
411.844086	144.820000
411.937744	144.860000
412.031372	144.560000
412.125000	144.420000
412.218628	144.540000
412.312256	145.560000
412.405884	145.880000
412.499512	145.820000
412.593170	146.280000
412.686798	146.500000
412.780426	145.920000
412.874054	145.740000
412.967682	145.940000
413.061310	146.180000
413.154968	146.100000
413.248566	146.100000
413.342224	145.660000
413.435852	146.000000
413.529510	145.420000
413.623108	144.820000
413.716766	144.880000
413.810364	145.540000
413.904022	145.160000
413.997650	145.140000
414.091309	146.180000
414.184906	146.220000
414.278564	145.660000
414.372192	146.020000
414.465851	146.420000
414.559479	145.480000
414.653107	146.120000
414.746735	146.200000
414.840393	146.200000
414.934021	146.060000
415.027649	146.300000
415.121277	145.940000
415.214935	146.400000
415.308563	146.580000
415.402191	146.040000
415.495850	145.680000
415.589478	145.500000
415.683136	145.320000
415.776733	145.360000
415.870422	146.260000
415.964020	146.020000
416.057678	145.860000
416.151306	145.520000
416.244965	145.260000
416.338562	144.580000
416.432251	145.240000
416.525848	146.040000
416.619507	146.340000
416.713165	146.640000
416.806793	146.820000
416.900421	146.920000
416.994080	146.060000
417.087708	146.060000
417.181366	145.360000
417.274994	145.540000
417.368622	145.680000
417.462280	146.380000
417.555908	146.120000
417.649567	146.420000
417.743195	146.360000
417.836853	146.280000
417.930481	146.220000
418.024170	146.420000
418.117767	146.660000
418.211426	146.780000
418.305054	146.980000
418.398712	146.420000
418.492340	146.420000
418.585999	146.520000
418.679626	146.700000
418.773285	146.720000
418.866913	147.260000
418.960571	147.520000
419.054230	147.680000
419.147858	147.600000
419.241516	147.280000
419.335144	146.900000
419.428802	146.560000
419.522461	145.980000
419.616089	145.420000
419.709747	145.600000
419.803375	145.600000
419.897034	145.500000
419.990662	145.380000
420.084320	145.840000
420.177979	146.280000
420.271606	146.300000
420.365295	146.980000
420.458893	147.400000
420.552582	147.560000
420.646210	147.480000
420.739868	147.540000
420.833496	146.920000
420.927155	146.480000
421.020782	146.340000
421.114471	145.620000
421.208069	145.480000
421.301758	145.680000
421.395386	146.260000
421.489044	145.880000
421.582703	146.160000
421.676361	146.640000
421.769989	146.340000
421.863647	146.460000
421.957306	146.800000
422.050934	146.960000
422.144592	146.700000
422.238251	146.540000
422.331909	145.900000
422.425537	145.760000
422.519196	145.720000
422.612854	145.300000
422.706543	145.200000
422.800140	145.620000
422.893829	145.340000
422.987457	144.840000
423.081146	145.120000
423.174744	145.800000
423.268433	145.440000
423.362061	145.300000
423.455750	145.360000
423.549347	145.300000
423.643036	144.460000
423.736664	145.080000
423.830353	145.560000
423.924011	146.220000
424.017639	146.020000
424.111298	146.300000
424.204956	145.880000
424.298615	146.180000
424.392273	145.540000
424.485931	145.760000
424.579559	146.140000
424.673218	145.860000
424.766876	145.400000
424.860535	145.280000
424.954193	145.060000
425.047882	145.100000
425.141510	145.560000
425.235199	145.740000
425.328796	145.840000
425.422485	145.700000
425.516113	145.100000
425.609802	144.740000
425.703430	144.600000
425.797119	144.640000
425.890747	144.700000
425.984436	144.880000
426.078064	145.380000
426.171753	145.480000
426.265411	145.180000
426.359070	145.520000
426.452728	145.900000
426.546356	145.580000
426.640015	145.260000
426.733673	145.740000
426.827332	145.600000
426.920990	146.020000
427.014648	145.800000
427.108307	146.180000
427.201965	146.500000
427.295624	146.680000
427.389282	145.760000
427.482941	146.220000
427.576630	145.880000
427.670258	144.980000
427.763947	144.800000
427.857574	145.320000
427.951263	144.900000
428.044922	144.880000
428.138611	145.300000
428.232239	145.880000
428.325928	146.020000
428.419556	146.700000
428.513245	146.420000
428.606903	146.540000
428.700562	146.000000
428.794220	145.460000
428.887878	144.800000
428.981537	145.560000
429.075195	145.500000
429.168854	145.900000
429.262512	146.080000
429.356201	146.220000
429.449860	145.860000
429.543518	146.040000
429.637177	145.980000
429.730835	145.840000
429.824493	145.680000
429.918182	145.780000
430.011810	145.180000
430.105530	144.600000
430.199158	145.100000
430.292847	145.240000
430.386475	145.120000
430.480164	145.080000
430.573792	145.020000
430.667511	144.500000
430.761139	144.500000
430.854828	144.780000
430.948456	145.180000
431.042145	146.000000
431.135834	145.700000
431.229492	145.560000
431.323151	145.740000
431.416809	145.740000
431.510468	145.260000
431.604156	145.480000
431.697815	145.900000
431.791473	145.120000
431.885132	144.660000
431.978821	144.900000
432.072479	145.240000
432.166138	145.400000
432.259827	145.620000
432.353485	146.120000
432.447174	146.120000
432.540802	145.800000
432.634491	145.900000
432.728149	146.360000
432.821838	146.960000
432.915466	146.720000
433.009186	147.060000
433.102814	146.320000
433.196503	146.140000
433.290131	145.500000
433.383850	145.840000
433.477509	146.000000
433.571167	146.720000
433.664856	146.820000
433.758514	147.300000
433.852173	146.820000
433.945862	146.540000
434.039520	146.180000
434.133179	145.800000
434.226868	145.220000
434.320526	144.940000
434.414185	145.340000
434.507874	145.200000
434.601562	145.560000
434.695221	145.680000
434.788910	146.520000
434.882538	146.500000
434.976257	145.960000
435.069885	146.100000
435.163574	146.180000
435.257233	145.340000
435.350922	145.100000
435.444580	145.540000
435.538269	145.300000
435.631897	145.380000
435.725616	146.220000
435.819275	146.800000
435.912964	147.420000
436.006622	147.720000
436.100311	147.640000
436.193970	146.720000
436.287628	146.160000
436.381317	145.520000
436.474976	144.960000
436.568665	144.880000
436.662323	145.340000
436.756012	145.320000
436.849670	145.220000
436.943390	145.220000
437.037018	144.840000
437.130737	144.880000
437.224365	144.660000
437.318085	144.740000
437.411713	145.240000
437.505432	146.000000
437.599060	146.540000
437.692780	147.320000
437.786407	147.620000
437.880127	147.520000
437.973755	147.260000
438.067474	146.640000
438.161133	146.280000
438.254822	146.420000
438.348480	146.220000
438.442169	146.580000
438.535828	147.080000
438.629517	146.960000
438.723175	146.120000
438.816864	146.520000
438.910553	145.840000
439.004211	145.320000
439.097900	145.080000
439.191559	145.560000
439.285248	144.860000
439.378906	145.560000
439.472626	145.440000
439.566284	145.100000
439.659973	145.300000
439.753632	145.300000
439.847321	145.400000
439.940979	145.500000
440.034698	145.840000
440.128326	145.480000
440.222046	145.520000
440.315674	144.700000
440.409393	144.760000
440.503082	144.580000
440.596741	145.020000
440.690430	145.440000
440.784088	145.580000
440.877777	145.140000
440.971466	145.360000
441.065125	145.120000
441.158813	144.620000
441.252502	144.660000
441.346161	145.220000
441.439850	145.460000
441.533539	145.100000
441.627197	145.560000
441.720886	145.400000
441.814606	145.540000
441.908234	145.500000
442.001953	145.720000
442.095612	145.500000
442.189301	145.800000
442.282959	145.620000
442.376678	145.160000
442.470306	145.880000
442.564026	145.760000
442.657684	146.100000
442.751404	146.420000
442.845032	147.200000
442.938751	146.360000
443.032440	146.580000
443.126099	145.980000
443.219788	145.980000
443.313477	145.660000
443.407166	146.080000
443.500824	145.960000
443.594513	146.260000
443.688202	146.040000
443.781891	145.680000
443.875549	145.460000
443.969238	145.480000
444.062927	145.620000
444.156647	145.560000
444.250275	146.040000
444.343994	145.960000
444.437653	146.080000
444.531372	145.840000
444.625031	145.740000
444.718719	145.280000
444.812378	145.400000
444.906097	145.400000
444.999756	144.980000
445.093445	145.080000
445.187103	145.340000
445.280823	145.680000
445.374512	145.280000
445.468201	145.680000
445.561859	145.560000
445.655548	145.620000
445.749237	145.120000
445.842926	145.520000
445.936615	145.860000
446.030304	145.460000
446.123962	145.500000
446.217651	145.480000
446.311340	145.700000
446.405029	145.100000
446.498749	145.380000
446.592407	145.120000
446.686096	145.460000
446.779755	145.360000
446.873474	145.780000
446.967133	146.120000
447.060852	146.000000
447.154510	145.680000
447.248230	145.600000
447.341858	145.560000
447.435577	144.880000
447.529236	144.680000
447.622955	144.760000
447.716644	144.860000
447.810333	144.680000
447.904022	145.320000
447.997711	145.360000
448.091400	145.580000
448.185059	145.340000
448.278748	145.840000
448.372437	145.560000
448.466125	146.060000
448.559814	145.820000
448.653503	146.280000
448.747192	146.220000
448.840912	146.940000
448.934570	146.700000
449.028290	147.080000
449.121948	146.820000
449.215637	146.280000
449.309296	145.420000
449.403015	145.400000
449.496674	145.340000
449.590393	145.140000
449.684052	145.180000
449.777771	146.180000
449.871429	145.880000
449.965149	145.600000
450.058838	145.740000
450.152527	146.420000
450.246216	146.180000
450.339905	146.580000
450.433594	146.380000
450.527283	147.180000
450.620972	146.700000
450.714661	146.520000
450.808350	146.600000
450.902039	146.880000
450.995728	146.020000
451.089417	145.760000
451.183105	145.800000
451.276794	146.140000
451.370514	145.460000
451.464172	145.020000
451.557892	145.080000
451.651550	144.860000
451.745270	144.080000
451.838928	144.000000
451.932648	144.360000
452.026306	144.800000
452.120026	144.500000
452.213684	144.900000
452.307404	145.320000
452.401062	145.680000
452.494781	145.480000
452.588470	145.720000
452.682159	145.560000
452.775848	145.860000
452.869537	145.140000
452.963226	144.860000
453.056915	145.120000
453.150604	145.380000
453.244293	145.520000
453.337982	146.360000
453.431671	146.800000
453.525360	146.820000
453.619049	146.740000
453.712769	146.500000
453.806427	146.020000
453.900146	145.560000
453.993805	145.120000
454.087555	145.360000
454.181213	145.860000
454.274933	145.800000
454.368591	145.900000
454.462311	145.800000
454.555969	145.280000
454.649689	145.700000
454.743347	145.440000
454.837067	146.060000
454.930756	146.700000
455.024445	146.960000
455.118134	146.220000
455.211853	146.820000
455.305542	146.340000
455.399231	145.960000
455.492920	145.800000
455.586609	145.860000
455.680298	145.920000
455.773987	145.660000
455.867676	145.780000
455.961365	146.240000
456.055084	146.120000
456.148773	145.880000
456.242493	146.320000
456.336151	146.220000
456.429871	146.280000
456.523529	146.420000
456.617249	146.020000
456.710907	146.280000
456.804626	145.980000
456.898315	145.420000
456.992035	145.380000
457.085693	145.320000
457.179413	144.620000
457.273102	145.760000
457.366791	145.920000
457.460480	146.200000
457.554199	147.020000
457.647888	147.280000
457.741577	146.600000
457.835266	146.460000
457.928955	146.160000
458.022644	146.040000
458.116364	146.280000
458.210052	145.920000
458.303741	146.220000
458.397461	145.800000
458.491119	145.280000
458.584839	145.140000
458.678528	145.080000
458.772247	144.560000
458.865906	145.080000
458.959625	146.060000
459.053284	145.920000
459.147003	145.960000
459.240692	146.800000
459.334412	146.520000
459.428070	145.740000
459.521790	145.720000
459.615479	145.960000
459.709198	146.000000
459.802887	145.940000
459.896576	145.820000
459.990265	145.860000
460.083954	146.120000
460.177673	145.340000
460.271362	145.280000
460.365051	145.640000
460.458740	145.320000
460.552429	144.680000
460.646149	144.800000
460.739838	144.740000
460.833527	144.720000
460.927246	144.660000
461.020905	144.900000
461.114655	144.880000
461.208313	145.220000
461.302032	144.680000
461.395691	145.240000
461.489441	145.080000
461.583099	145.260000
461.676819	144.940000
461.770477	145.420000
461.864197	144.900000
461.957916	145.040000
462.051605	144.600000
462.145294	145.620000
462.238983	145.340000
462.332703	146.060000
462.426392	146.620000
462.520081	146.740000
462.613770	145.860000
462.707489	146.320000
462.801178	145.780000
462.894867	145.320000
462.988556	145.660000
463.082275	146.000000
463.175964	145.380000
463.269684	145.640000
463.363342	145.560000
463.457092	145.040000
463.550751	145.040000
463.644470	145.200000
463.738129	144.980000
463.831879	144.920000
463.925537	145.620000
464.019257	145.560000
464.112946	145.480000
464.206665	145.080000
464.300323	145.040000
464.394043	144.840000
464.487762	144.900000
464.581451	145.480000
464.675140	145.980000
464.768829	146.700000
464.862549	146.700000
464.956238	146.820000
465.049927	146.740000
465.143646	146.940000
465.237335	146.380000
465.331024	146.540000
465.424713	146.440000
465.518433	146.440000
465.612152	145.980000
465.705811	145.940000
465.799561	145.760000
465.893219	145.480000
465.986938	145.200000
466.080597	145.480000
466.174347	145.760000
466.268005	145.840000
466.361725	145.760000
466.455414	145.580000
466.549133	145.200000
466.642792	145.160000
466.736542	144.840000
466.830231	145.020000
466.923920	145.180000
467.017609	145.280000
467.111328	144.780000
467.205017	144.980000
467.298706	144.900000
467.392426	144.960000
467.486115	145.460000
467.579803	145.400000
467.673523	145.660000
467.767212	145.680000
467.860901	145.580000
467.954651	145.340000
468.048309	145.960000
468.142029	145.680000
468.235718	145.780000
468.329437	145.680000
468.423096	145.600000
468.516846	145.540000
468.610504	145.280000
468.704224	144.860000
468.797913	145.000000
468.891632	145.160000
468.985291	145.060000
469.079010	145.400000
469.172729	145.340000
469.266418	145.680000
469.360107	145.580000
469.453827	145.500000
469.547516	145.400000
469.641205	146.040000
469.734924	146.200000
469.828613	146.580000
469.922302	146.440000
470.016022	146.440000
470.109711	146.040000
470.203430	145.240000
470.297150	144.480000
470.390808	145.100000
470.484558	145.040000
470.578217	145.480000
470.671936	146.140000
470.765625	146.860000
470.859344	146.220000
470.953003	146.560000
471.046753	146.340000
471.140411	145.620000
471.234131	145.560000
471.327820	146.080000
471.421539	146.100000
471.515228	145.740000
471.608948	146.280000
471.702637	145.700000
471.796326	145.160000
471.890045	145.160000
471.983734	145.280000
472.077423	144.800000
472.171143	144.980000
472.264832	145.120000
472.358521	144.800000
472.452240	144.720000
472.545929	145.300000
472.639648	145.620000
472.733337	145.980000
472.827057	146.180000
472.920746	146.500000
473.014465	146.840000
473.108124	146.760000
473.201874	146.700000
473.295532	146.860000
473.389252	147.160000
473.482941	146.980000
473.576660	146.760000
473.670319	146.560000
473.764069	146.500000
473.857727	146.380000
473.951477	146.520000
474.045166	147.340000
474.138855	146.940000
474.232574	146.740000
474.326263	146.620000
474.419952	146.520000
474.513672	145.940000
474.607361	146.120000
474.701050	146.420000
474.794769	146.780000
474.888458	146.840000
474.982178	147.040000
475.075867	147.300000
475.169586	147.320000
475.263275	146.740000
475.356995	146.480000
475.450653	146.420000
475.544403	146.000000
475.638062	146.640000
475.731812	146.520000
475.825470	146.020000
475.919189	146.040000
476.012878	146.680000
476.106598	145.860000
476.200256	146.400000
476.294006	147.060000
476.387695	147.020000
476.481384	146.940000
476.575104	146.720000
476.668793	146.200000
476.762512	145.700000
476.856201	146.220000
476.949890	146.000000
477.043610	145.740000
477.137299	145.840000
477.230988	146.160000
477.324707	145.400000
477.418396	145.720000
477.512146	145.800000
477.605804	145.760000
477.699524	145.920000
477.793213	146.120000
477.886932	145.480000
477.980591	145.480000
478.074341	145.540000
478.167999	144.600000
478.261749	144.420000
478.355408	144.760000
478.449127	145.220000
478.542816	146.240000
478.636536	147.360000
478.730225	147.720000
478.823944	148.060000
478.917633	147.780000
479.011322	147.240000
479.105042	146.820000
479.198730	146.660000
479.292450	146.460000
479.386139	146.900000
479.479828	146.760000
479.573547	147.280000
479.667267	147.120000
479.760925	146.800000
479.854675	146.500000
479.948334	146.580000
480.042084	145.760000
480.135742	146.060000
480.229462	145.700000
480.323151	145.860000
480.416870	145.220000
480.510529	145.640000
480.604279	145.140000
480.697937	145.980000
480.791656	145.520000
480.885345	145.580000
480.979065	145.140000
481.072754	145.820000
481.166473	145.740000
481.260132	145.800000
481.353882	145.920000
481.447540	145.880000
481.541260	145.660000
481.635010	145.280000
481.728668	145.180000
481.822388	145.180000
481.916077	145.480000
482.009796	145.260000
482.103485	145.720000
482.197205	146.060000
482.290863	146.520000
482.384613	146.140000
482.478271	145.580000
482.571991	145.320000
482.665680	145.100000
482.759399	145.540000
482.853058	146.360000
482.946808	146.780000
483.040466	146.640000
483.134216	146.680000
483.227875	145.900000
483.321594	146.060000
483.415283	145.920000
483.509003	145.980000
483.602661	145.880000
483.696411	146.200000
483.790070	145.720000
483.883789	146.100000
483.977478	146.240000
484.071198	146.460000
484.164917	145.760000
484.258606	145.500000
484.352325	145.360000
484.445984	145.440000
484.539734	145.280000
484.633392	145.140000
484.727142	145.480000
484.820801	145.440000
484.914520	145.400000
485.008209	145.480000
485.101929	146.320000
485.195587	146.180000
485.289337	146.060000
485.382996	146.080000
485.476715	146.320000
485.570404	146.620000
485.664124	146.460000
485.757782	147.100000
485.851532	146.720000
485.945190	146.420000
486.038910	146.140000
486.132599	146.600000
486.226318	145.840000
486.319977	145.840000
486.413727	146.300000
486.507446	145.820000
486.601105	145.300000
486.694855	145.420000
486.788513	145.540000
486.882233	145.380000
486.975922	145.700000
487.069641	145.520000
487.163300	145.400000
487.257050	146.340000
487.350708	145.960000
487.444427	145.500000
487.538116	145.560000
487.631836	145.380000
487.725494	144.840000
487.819214	144.900000
487.912903	145.240000
488.006622	145.740000
488.100281	145.960000
488.194031	145.660000
488.287689	146.240000
488.381409	146.780000
488.475098	146.660000
488.568817	147.140000
488.662476	146.940000
488.756226	146.320000
488.849945	145.240000
488.943604	145.120000
489.037354	145.020000
489.131012	145.200000
489.224731	145.100000
489.318390	145.120000
489.412140	145.160000
489.505798	144.980000
489.599518	144.620000
489.693207	144.980000
489.786926	145.300000
489.880585	145.100000
489.974335	145.680000
490.067993	146.860000
490.161713	146.940000
490.255371	147.640000
490.349121	147.920000
490.442780	147.280000
490.536499	146.320000
490.630188	146.420000
490.723907	145.660000
490.817566	145.780000
490.911285	145.800000
491.004974	145.820000
491.098694	145.180000
491.192413	145.800000
491.286102	145.520000
491.379822	145.740000
491.473480	145.940000
491.567200	146.160000
491.660889	145.700000
491.754608	145.740000
491.848267	145.500000
491.941986	145.140000
492.035675	145.140000
492.129395	145.200000
492.223053	145.000000
492.316772	145.260000
492.410461	145.560000
492.504181	145.360000
492.597839	145.440000
492.691559	145.700000
492.785248	145.620000
492.878967	145.600000
492.972626	145.680000
493.066345	145.460000
493.160034	145.200000
493.253754	145.060000
493.347412	144.600000
493.441132	144.960000
493.534882	145.260000
493.628540	145.520000
493.722260	145.820000
493.815918	146.300000
493.909668	146.540000
494.003326	146.920000
494.097046	146.720000
494.190704	146.020000
494.284454	146.260000
494.378113	146.100000
494.471832	145.660000
494.565491	145.620000
494.659210	146.220000
494.752899	145.900000
494.846619	145.640000
494.940277	145.700000
495.033997	145.800000
495.127686	145.600000
495.221405	145.520000
495.315063	145.780000
495.408783	145.620000
495.502441	145.460000
495.596191	145.720000
495.689850	145.560000
495.783569	145.800000
495.877228	145.960000
495.970947	145.860000
496.064697	145.660000
496.158356	146.500000
496.252075	146.240000
496.345734	146.180000
496.439453	147.380000
496.533142	147.360000
496.626862	147.460000
496.720520	147.520000
496.814240	147.540000
496.907898	146.660000
497.001617	146.860000
497.095306	145.980000
497.189026	145.800000
497.282684	146.000000
497.376404	145.940000
497.470062	145.520000
497.563782	145.840000
497.657471	145.700000
497.751190	145.400000
497.844849	145.400000
497.938568	145.960000
498.032227	145.720000
498.125946	145.800000
498.219635	145.680000
498.313354	145.780000
498.407074	145.180000
498.500732	145.700000
498.594452	145.900000
498.688110	145.580000
498.781830	145.380000
498.875519	145.160000
498.969238	144.580000
499.062897	144.320000
499.156616	144.900000
499.250275	145.260000
499.343994	145.400000
499.437653	145.640000
499.531372	145.740000
499.625061	146.160000
499.718781	146.260000
499.812439	147.040000
499.906158	147.060000
499.999817	146.640000
500.093536	146.000000
500.187195	146.060000
500.280914	145.440000
500.374573	145.520000
500.468323	145.540000
500.561981	145.680000
500.655701	144.840000
500.749420	144.960000
500.843079	145.100000
500.936798	145.520000
501.030457	146.040000
501.124176	146.860000
501.217834	146.900000
501.311554	146.780000
501.405212	146.800000
501.498962	145.960000
501.592621	145.720000
501.686340	146.000000
501.779999	146.180000
501.873718	146.080000
501.967377	146.580000
502.061096	146.740000
502.154755	146.200000
502.248474	145.940000
502.342133	146.200000
502.435852	145.820000
502.529510	146.260000
502.623230	147.060000
502.716888	146.740000
502.810608	146.420000
502.904266	147.100000
502.997986	146.340000
503.091705	145.680000
503.185364	145.620000
503.279083	145.900000
503.372772	145.520000
503.466492	145.320000
503.560150	145.260000
503.653870	145.660000
503.747528	145.620000
503.841248	145.360000
503.934906	145.820000
504.028625	145.700000
504.122284	145.860000
504.216003	146.580000
504.309662	146.500000
504.403381	146.160000
504.497040	146.440000
504.590759	146.160000
504.684418	145.720000
504.778137	146.060000
504.871796	146.560000
504.965515	146.300000
505.059174	146.280000
505.152893	145.740000
505.246521	145.380000
505.340240	145.060000
505.433899	145.220000
505.527618	145.340000
505.621338	145.860000
505.714996	145.900000
505.808716	145.820000
505.902374	146.600000
505.996094	146.540000
506.089752	145.940000
506.183472	146.220000
506.277130	146.600000
506.370850	146.100000
506.464508	145.900000
506.558228	146.160000
506.651886	145.780000
506.745605	145.800000
506.839264	145.400000
506.932983	145.560000
507.026611	145.420000
507.120331	146.040000
507.213989	145.220000
507.307709	145.440000
507.401367	145.780000
507.495087	146.680000
507.588745	145.980000
507.682465	147.080000
507.776123	146.940000
507.869843	146.560000
507.963531	146.180000
508.057190	146.920000
508.150909	146.280000
508.244568	146.780000
508.338287	146.660000
508.431946	146.240000
508.525665	146.040000
508.619324	146.100000
508.713013	146.160000
508.806671	146.860000
508.900391	147.640000
508.994049	147.780000
509.087769	147.420000
509.181427	147.340000
509.275146	146.860000
509.368774	145.820000
509.462494	145.720000
509.556152	145.820000
509.649872	145.960000
509.743530	146.000000
509.837250	146.360000
509.930878	146.260000
510.024597	146.380000
510.118256	146.020000
510.211975	145.880000
510.305695	145.940000
510.399353	145.940000
510.493042	146.100000
510.586700	146.320000
510.680420	146.940000
510.774078	146.640000
510.867798	147.020000
510.961426	146.620000
511.055145	146.540000
511.148804	146.000000
511.242523	146.580000
511.336151	146.240000
511.429871	147.120000
511.523529	146.920000
511.617249	146.560000
511.710876	146.080000
511.804596	145.700000
511.898254	145.060000
511.991974	145.420000
512.085632	145.520000
512.179321	145.780000
512.272949	146.340000
512.366699	146.840000
512.460327	146.840000
512.554077	147.880000
512.647766	147.660000
512.741394	147.420000
512.835144	147.620000
512.928772	147.160000
513.022461	146.680000
513.116150	146.560000
513.209839	146.920000
513.303467	146.360000
513.397217	145.840000
513.490845	145.500000
513.584595	145.460000
513.678223	144.820000
513.771912	144.380000
513.865601	145.100000
513.959290	145.100000
514.052917	145.280000
514.146667	146.160000
514.240295	146.740000
514.333984	146.960000
514.427673	147.000000
514.521362	147.380000
514.614990	146.720000
514.708740	146.880000
514.802368	146.840000
514.896057	146.740000
514.989746	147.420000
515.083435	147.220000
515.177124	147.040000
515.270752	146.840000
515.364502	147.260000
515.458130	146.860000
515.551819	146.640000
515.645508	146.500000
515.739197	146.600000
515.832825	146.400000
515.926575	145.780000
516.020203	146.320000
516.113892	146.880000
516.207520	146.620000
516.301270	146.460000
516.394897	146.600000
516.488586	147.040000
516.582275	146.700000
516.675964	146.000000
516.769592	146.260000
516.863281	146.800000
516.956970	146.720000
517.050659	146.580000
517.144287	147.280000
517.238037	146.860000
517.331665	146.060000
517.425354	145.660000
517.519043	145.400000
517.612732	145.760000
517.706421	145.880000
517.800049	145.700000
517.893738	145.480000
517.987427	145.740000
518.081116	145.300000
518.174744	144.820000
518.268433	145.540000
518.362122	146.180000
518.455811	146.080000
518.549438	146.660000
518.643127	147.980000
518.736816	147.760000
518.830505	147.380000
518.924133	147.440000
519.017822	147.520000
519.111511	146.940000
519.205200	147.600000
519.298828	147.220000
519.392517	147.040000
519.486206	146.920000
519.579895	147.000000
519.673523	146.120000
519.767212	146.220000
519.860901	146.680000
519.954590	146.180000
520.048279	145.680000
520.141907	145.840000
520.235596	146.880000
520.329224	146.780000
520.422974	146.860000
520.516602	147.060000
520.610291	146.440000
520.703918	145.960000
520.797607	145.600000
520.891296	145.640000
520.984985	145.960000
521.078613	147.060000
521.172302	146.420000
521.265930	147.160000
521.359680	147.860000
521.453308	147.180000
521.546997	146.620000
521.640625	146.800000
521.734314	146.240000
521.827942	145.580000
521.921692	146.220000
522.015320	146.380000
522.109009	146.180000
522.202698	146.200000
522.296326	146.140000
522.390015	146.080000
522.483704	146.080000
522.577393	146.140000
522.671021	145.940000
522.764709	145.520000
522.858337	146.120000
522.952026	145.760000
523.045654	146.380000
523.139404	146.960000
523.233032	147.520000
523.326721	146.660000
523.420349	146.960000
523.514038	146.600000
523.607666	146.940000
523.701355	146.400000
523.795044	146.660000
523.888733	146.720000
523.982361	146.620000
524.076050	145.960000
524.169678	146.440000
524.263367	146.100000
524.356995	145.780000
524.450684	145.840000
524.544373	145.480000
524.638062	145.580000
524.731750	145.780000
524.825378	145.860000
524.919067	145.600000
525.012695	146.060000
525.106384	145.560000
525.200012	145.760000
525.293701	145.760000
525.387329	146.200000
525.481018	146.400000
525.574646	146.940000
525.668396	146.820000
525.762024	147.160000
525.855713	147.300000
525.949341	146.640000
526.043030	146.620000
526.136658	146.380000
526.230347	146.060000
526.323975	145.420000
526.417664	145.640000
526.511292	145.720000
526.604980	146.120000
526.698608	146.280000
526.792297	146.660000
526.885925	146.780000
526.979614	146.700000
527.073303	146.260000
527.166931	146.020000
527.260620	145.960000
527.354309	146.360000
527.447998	145.940000
527.541626	145.820000
527.635315	146.000000
527.728943	146.480000
527.822632	146.480000
527.916260	146.680000
528.009949	147.500000
528.103577	147.340000
528.197266	146.760000
528.290894	146.640000
528.384583	146.600000
528.478210	146.280000
528.571899	146.800000
528.665527	147.100000
528.759216	147.020000
528.852844	147.400000
528.946533	147.220000
529.040161	146.600000
529.133850	146.320000
529.227478	146.660000
529.321167	146.860000
529.414856	147.180000
529.508484	147.800000
529.602173	147.500000
529.695801	147.060000
529.789490	146.840000
529.883057	146.500000
529.976746	146.480000
530.070374	147.240000
530.164062	147.260000
530.257690	147.360000
530.351379	147.440000
530.445007	147.140000
530.538696	146.500000
530.632324	146.700000
530.726013	146.460000
530.819641	146.580000
530.913330	146.680000
531.006958	146.760000
531.100647	146.820000
531.194275	146.840000
531.287964	146.360000
531.381592	146.060000
531.475220	146.600000
531.568848	146.500000
531.662537	146.320000
531.756226	147.000000
531.849854	147.340000
531.943542	147.020000
532.037170	146.500000
532.130859	146.980000
532.224487	146.540000
532.318176	146.000000
532.411804	146.580000
532.505432	146.860000
532.599060	146.440000
532.692749	146.300000
532.786377	146.820000
532.880066	146.100000
532.973694	145.780000
533.067383	145.960000
533.161011	146.120000
533.254639	145.900000
533.348267	145.860000
533.441956	146.140000
533.535583	145.880000
533.629272	145.920000
533.722900	145.580000
533.816589	145.600000
533.910156	146.000000
534.003845	145.520000
534.097534	145.780000
534.191162	146.640000
534.284851	146.700000
534.378479	146.280000
534.472107	146.640000
534.565735	146.140000
534.659424	146.140000
534.753052	146.360000
534.846741	146.120000
534.940369	146.760000
535.033997	147.020000
535.127625	146.860000
535.221313	147.220000
535.314941	147.140000
535.408630	146.500000
535.502197	146.600000
535.595886	146.120000
535.689514	145.580000
535.783203	146.260000
535.876831	146.760000
535.970459	146.980000
536.064087	146.740000
536.157776	147.000000
536.251404	146.720000
536.345093	146.180000
536.438721	145.920000
536.532349	146.400000
536.626038	146.000000
536.719666	145.960000
536.813293	145.960000
536.906921	145.980000
537.000610	146.200000
537.094238	146.340000
537.187866	146.180000
537.281494	146.200000
537.375183	146.220000
537.468811	145.640000
537.562439	145.840000
537.656067	146.240000
537.749756	146.320000
537.843384	146.780000
537.937012	147.320000
538.030640	146.840000
538.124329	146.620000
538.217896	146.800000
538.311584	146.660000
538.405212	146.580000
538.498901	146.960000
538.592468	147.680000
538.686157	147.620000
538.779785	146.780000
538.873413	146.720000
538.967102	146.340000
539.060730	145.360000
539.154358	145.660000
539.247986	146.200000
539.341675	146.300000
539.435242	146.300000
539.528931	146.720000
539.622559	146.600000
539.716187	146.920000
539.809814	146.960000
539.903503	146.980000
539.997070	146.880000
540.090759	146.480000
540.184387	146.320000
540.278015	146.500000
540.371643	146.760000
540.465332	146.920000
540.558899	146.940000
540.652588	146.900000
540.746216	146.340000
540.839844	146.660000
540.933472	146.420000
541.027100	146.480000
541.120728	146.360000
541.214417	146.840000
541.308044	147.000000
541.401672	147.020000
541.495300	147.000000
541.588928	146.760000
541.682617	146.400000
541.776184	145.780000
541.869873	146.020000
541.963440	146.520000
542.057129	146.920000
542.150757	147.040000
542.244385	146.900000
542.338013	146.300000
542.431641	145.940000
542.525269	145.780000
542.618958	146.040000
542.712524	146.560000
542.806213	146.520000
542.899780	146.540000
542.993469	146.100000
543.087036	145.740000
543.180725	145.020000
543.274292	145.620000
543.367981	145.780000
543.461548	146.520000
543.555237	146.620000
543.648926	147.500000
543.742493	148.100000
543.836182	148.200000
543.929749	147.900000
544.023437	147.620000
544.117004	147.500000
544.210693	147.100000
544.304260	146.820000
544.397949	146.720000
544.491516	147.300000
544.585205	147.060000
544.678772	146.540000
544.772461	147.040000
544.866028	147.020000
544.959717	147.240000
545.053284	147.300000
545.146973	147.720000
545.240540	147.560000
545.334229	148.120000
545.427795	147.920000
545.521423	147.860000
545.615051	147.940000
545.708679	148.360000
545.802307	148.120000
545.895935	148.320000
545.989624	149.200000
546.083191	149.100000
546.176880	148.900000
546.270447	148.640000
546.364136	148.920000
546.457703	148.220000
546.551331	147.900000
546.644958	147.780000
546.738586	147.980000
546.832214	147.420000
546.925842	147.040000
547.019409	147.240000
547.113098	146.720000
547.206665	146.280000
547.300354	146.240000
547.393921	146.740000
547.487549	147.180000
547.581177	147.040000
547.674805	147.220000
547.768433	146.380000
547.862061	146.060000
547.955627	145.020000
548.049316	145.600000
548.142883	145.660000
548.236572	146.640000
548.330139	146.780000
548.423767	146.900000
548.517456	146.820000
548.611023	146.900000
548.704651	146.080000
548.798279	145.760000
548.891907	146.520000
548.985474	146.500000
549.079163	146.900000
549.172729	146.980000
549.266357	146.820000
549.359985	146.380000
549.453613	145.860000
549.547180	145.300000
549.640869	145.860000
549.734436	146.200000
549.828064	146.660000
549.921631	146.680000
550.015320	146.240000
550.108887	146.080000
550.202515	145.840000
550.296143	145.500000
550.389771	145.840000
550.483337	146.400000
550.576965	146.200000
550.670593	146.720000
550.764221	146.620000
550.857849	146.580000
550.951477	146.220000
551.045105	146.180000
551.138672	146.160000
551.232300	145.860000
551.325928	146.200000
551.419556	146.720000
551.513123	146.860000
551.606750	146.200000
551.700378	146.560000
551.794006	146.040000
551.887573	145.680000
551.981201	146.060000
552.074768	146.180000
552.168457	146.040000
552.262024	146.800000
552.355652	146.800000
552.449219	147.020000
552.542847	147.320000
552.636475	146.760000
552.730103	145.780000
552.823669	145.820000
552.917297	144.960000
553.010864	144.800000
553.104553	145.380000
553.198181	145.460000
553.291748	145.860000
553.385376	146.480000
553.478943	146.460000
553.572571	146.300000
553.666199	146.500000
553.759827	145.860000
553.853394	145.060000
553.947021	145.140000
554.040588	145.140000
554.134216	145.540000
554.227783	146.420000
554.321411	147.400000
554.415039	146.900000
554.508667	147.120000
554.602234	146.960000
554.695862	146.100000
554.789429	145.760000
554.883057	146.140000
554.976624	145.960000
555.070251	145.900000
555.163818	145.720000
555.257507	145.680000
555.351074	145.940000
555.444702	146.940000
555.538330	146.760000
555.631897	147.500000
555.725525	147.240000
555.819092	147.200000
555.912720	146.200000
556.006287	146.520000
556.099915	146.080000
556.193481	146.140000
556.287109	145.980000
556.380676	145.880000
556.474304	145.920000
556.567871	146.320000
556.661499	145.960000
556.755066	146.000000
556.848694	146.200000
556.942261	145.580000
557.035889	145.540000
557.129517	146.100000
557.223145	146.500000
557.316711	146.520000
557.410339	146.780000
557.503906	146.540000
557.597473	146.680000
557.691040	145.920000
557.784668	145.860000
557.878296	146.120000
557.971863	146.360000
558.065491	146.220000
558.159058	146.520000
558.252686	147.180000
558.346252	147.680000
558.439880	147.220000
558.533447	146.740000
558.627075	146.360000
558.720642	145.720000
558.814270	145.220000
558.907837	145.360000
559.001465	145.500000
559.095032	146.540000
559.188660	146.780000
559.282227	146.300000
559.375854	147.020000
559.469360	147.180000
559.562988	147.020000
559.656555	146.980000
559.750183	147.260000
559.843750	146.940000
559.937378	146.720000
560.030945	146.540000
560.124573	0.000000
560.218140	0.000000
560.311707	0.000000
560.405334	0.000000
560.498901	0.000000
560.592529	0.000000
560.686096	0.000000
560.779724	0.000000
560.873291	0.000000
560.966858	0.000000
561.060425	0.000000
561.154053	0.000000
561.247620	0.000000
561.341248	0.000000
561.434814	0.000000
561.528381	0.000000
561.621948	0.000000
561.715576	0.000000
561.809143	0.000000
561.902771	0.000000
561.996277	0.000000
562.089905	0.000000
562.183472	0.000000
562.277100	0.000000
