Model Number: SPM-002-B   
Serial Number: 70087108
Firmware Version: 004.15.4
Exposure Time: 100000.000000us
Data Taken on: 11-12-2020 19:30:21.080
Wavelength	Amplitude
221.570786	0.000000
221.663406	0.000000
221.756027	0.000000
221.848648	0.000000
221.941269	0.000000
222.033905	0.000000
222.126526	0.000000
222.219162	0.000000
222.311798	0.000000
222.404419	0.000000
222.497055	0.000000
222.589676	0.000000
222.682312	0.000000
222.774933	0.000000
222.867569	0.000000
222.960205	0.000000
223.052841	0.000000
223.145462	0.000000
223.238098	0.000000
223.330734	0.000000
223.423386	0.000000
223.516022	0.000000
223.608658	0.000000
223.701309	0.000000
223.793945	0.000000
223.886581	0.000000
223.979218	0.000000
224.071869	0.000000
224.164505	0.000000
224.257156	0.000000
224.349792	0.000000
224.442444	0.000000
224.535095	0.000000
224.627747	0.000000
224.720398	0.000000
224.813034	0.000000
224.905685	0.000000
224.998337	145.680000
225.090988	145.220000
225.183640	145.260000
225.276291	144.820000
225.368942	145.320000
225.461594	145.760000
225.554245	145.940000
225.646912	145.900000
225.739578	146.460000
225.832230	146.560000
225.924896	145.880000
226.017548	146.160000
226.110199	146.540000
226.202866	145.920000
226.295532	145.660000
226.388184	145.620000
226.480850	145.180000
226.573517	144.560000
226.666168	144.900000
226.758835	145.460000
226.851501	145.860000
226.944183	146.080000
227.036850	145.860000
227.129517	145.760000
227.222183	145.880000
227.314850	145.780000
227.407516	145.880000
227.500198	146.860000
227.592865	146.720000
227.685532	146.260000
227.778214	146.000000
227.870880	146.300000
227.963562	146.560000
228.056229	147.000000
228.148926	146.900000
228.241592	147.900000
228.334274	147.300000
228.426956	146.720000
228.519638	146.600000
228.612305	146.520000
228.704987	146.160000
228.797668	146.300000
228.890350	145.940000
228.983032	145.500000
229.075714	146.100000
229.168396	145.760000
229.261108	145.320000
229.353790	145.600000
229.446472	145.840000
229.539169	145.400000
229.631851	144.900000
229.724533	145.240000
229.817230	145.280000
229.909912	146.080000
230.002609	146.360000
230.095306	146.760000
230.187988	146.880000
230.280685	147.020000
230.373383	146.100000
230.466095	145.780000
230.558792	146.020000
230.651474	146.140000
230.744171	145.800000
230.836868	145.720000
230.929581	146.340000
231.022278	146.180000
231.114975	146.240000
231.207672	146.120000
231.300369	146.460000
231.393082	146.200000
231.485779	146.440000
231.578506	146.340000
231.671204	146.540000
231.763916	146.700000
231.856613	146.600000
231.949326	146.460000
232.042023	146.260000
232.134735	146.060000
232.227448	145.580000
232.320160	145.880000
232.412872	145.880000
232.505585	146.620000
232.598297	147.300000
232.691010	147.320000
232.783722	146.560000
232.876450	147.200000
232.969162	146.520000
233.061874	145.920000
233.154587	145.640000
233.247314	146.200000
233.340027	145.600000
233.432739	146.100000
233.525467	146.060000
233.618179	146.780000
233.710907	146.340000
233.803635	146.620000
233.896347	146.480000
233.989090	147.120000
234.081818	146.920000
234.174545	147.580000
234.267258	146.900000
234.359985	147.080000
234.452713	146.600000
234.545441	146.540000
234.638168	145.820000
234.730896	146.440000
234.823639	146.120000
234.916367	146.840000
235.009094	147.000000
235.101822	147.220000
235.194580	147.040000
235.287308	147.080000
235.380051	146.380000
235.472778	146.380000
235.565521	146.840000
235.658249	146.640000
235.750992	146.840000
235.843719	146.680000
235.936462	146.940000
236.029205	146.320000
236.121948	146.080000
236.214691	146.340000
236.307449	147.040000
236.400192	146.440000
236.492935	146.500000
236.585678	146.660000
236.678421	146.240000
236.771164	145.980000
236.863907	146.660000
236.956665	146.880000
237.049408	148.440000
237.142151	147.820000
237.234909	148.240000
237.327652	147.880000
237.420410	147.420000
237.513153	146.340000
237.605927	146.680000
237.698669	146.060000
237.791428	145.500000
237.884186	146.340000
237.976944	145.500000
238.069702	146.060000
238.162445	145.780000
238.255203	146.220000
238.347961	146.180000
238.440720	146.860000
238.533478	146.260000
238.626266	146.140000
238.719025	146.220000
238.811783	145.800000
238.904541	145.600000
238.997314	145.780000
239.090073	145.740000
239.182831	145.960000
239.275604	146.840000
239.368362	146.420000
239.461136	146.260000
239.553909	146.480000
239.646667	146.100000
239.739441	145.540000
239.832214	145.920000
239.925003	146.080000
240.017761	146.600000
240.110535	147.220000
240.203308	146.660000
240.296082	146.720000
240.388855	146.660000
240.481628	146.380000
240.574417	146.320000
240.667191	146.560000
240.759964	146.320000
240.852737	146.480000
240.945526	146.200000
241.038315	145.560000
241.131088	145.760000
241.223877	146.220000
241.316650	145.980000
241.409439	146.340000
241.502228	146.320000
241.595001	146.820000
241.687790	146.520000
241.780579	146.380000
241.873367	146.680000
241.966141	147.140000
242.058929	146.260000
242.151718	146.620000
242.244507	147.360000
242.337311	146.540000
242.430099	146.660000
242.522903	147.280000
242.615692	146.740000
242.708481	146.200000
242.801270	146.900000
242.894073	146.580000
242.986862	146.160000
243.079651	146.780000
243.172455	146.620000
243.265244	146.380000
243.358063	145.880000
243.450867	146.140000
243.543655	145.860000
243.636459	146.220000
243.729263	146.500000
243.822067	147.060000
243.914856	147.580000
244.007660	147.700000
244.100464	147.460000
244.193268	147.220000
244.286072	147.400000
244.378876	146.500000
244.471680	146.120000
244.564499	146.540000
244.657318	147.060000
244.750122	147.160000
244.842926	146.780000
244.935745	147.160000
245.028549	146.620000
245.121368	146.180000
245.214172	145.920000
245.306992	146.800000
245.399796	146.620000
245.492615	146.820000
245.585434	146.600000
245.678253	146.580000
245.771072	146.120000
245.863892	146.600000
245.956711	146.820000
246.049530	146.460000
246.142349	146.080000
246.235168	146.260000
246.327988	146.320000
246.420807	146.140000
246.513626	146.600000
246.606445	146.760000
246.699280	146.760000
246.792099	146.300000
246.884918	145.880000
246.977753	145.580000
247.070587	145.840000
247.163422	145.840000
247.256241	146.000000
247.349075	146.600000
247.441895	146.820000
247.534729	146.540000
247.627563	146.120000
247.720383	146.240000
247.813217	146.080000
247.906052	146.020000
247.998886	145.980000
248.091736	146.200000
248.184570	146.000000
248.277405	146.100000
248.370239	146.840000
248.463074	147.880000
248.555908	148.020000
248.648743	147.820000
248.741592	147.800000
248.834427	147.200000
248.927261	145.880000
249.020111	146.220000
249.112946	146.700000
249.205795	146.500000
249.298630	146.700000
249.391495	146.880000
249.484344	146.640000
249.577179	146.380000
249.670029	146.300000
249.762878	146.800000
249.855728	147.320000
249.948563	147.160000
250.041412	146.540000
250.134262	147.000000
250.227112	146.500000
250.319962	146.380000
250.412827	146.600000
250.505692	146.760000
250.598541	146.520000
250.691391	146.080000
250.784241	145.820000
250.877106	146.100000
250.969955	145.880000
251.062805	146.240000
251.155670	146.800000
251.248520	146.600000
251.341385	146.360000
251.434235	146.780000
251.527100	146.300000
251.619965	145.820000
251.712814	146.480000
251.805695	146.600000
251.898560	146.640000
251.991425	147.020000
252.084290	147.020000
252.177155	146.280000
252.270020	145.760000
252.362885	145.580000
252.455750	145.560000
252.548615	145.620000
252.641479	145.780000
252.734360	145.900000
252.827240	145.940000
252.920105	145.780000
253.012970	145.500000
253.105850	145.580000
253.198715	145.480000
253.291595	145.620000
253.384460	145.180000
253.477341	145.460000
253.570221	145.460000
253.663086	145.360000
253.755966	145.980000
253.848846	146.060000
253.941727	146.580000
254.034592	146.660000
254.127472	146.320000
254.220367	146.020000
254.313248	146.700000
254.406128	145.700000
254.499008	146.100000
254.591904	147.160000
254.684784	147.340000
254.777664	147.020000
254.870544	147.000000
254.963440	146.700000
255.056335	146.560000
255.149216	146.000000
255.242111	146.240000
255.334991	146.660000
255.427887	146.580000
255.520767	146.460000
255.613663	146.620000
255.706558	145.820000
255.799438	145.680000
255.892334	145.560000
255.985229	145.280000
256.078125	145.300000
256.171021	145.560000
256.263916	146.360000
256.356812	146.620000
256.449707	146.840000
256.542603	146.600000
256.635498	147.220000
256.728394	146.680000
256.821289	146.280000
256.914215	146.440000
257.007080	146.860000
257.100006	146.920000
257.192932	147.140000
257.285828	147.660000
257.378723	147.460000
257.471619	147.240000
257.564545	146.540000
257.657440	146.620000
257.750336	146.720000
257.843262	146.440000
257.936157	147.500000
258.029053	148.020000
258.121979	147.940000
258.214874	147.740000
258.307800	147.840000
258.400696	146.500000
258.493622	146.220000
258.586517	145.520000
258.679443	145.680000
258.772339	145.160000
258.865265	145.240000
258.958160	145.260000
259.051086	146.060000
259.144012	145.840000
259.236938	146.880000
259.329834	147.300000
259.422791	147.020000
259.515717	146.380000
259.608612	146.160000
259.701538	146.000000
259.794464	145.460000
259.887390	145.260000
259.980316	145.240000
260.073212	145.180000
260.166138	144.460000
260.259064	144.840000
260.351990	145.520000
260.444916	145.940000
260.537842	146.300000
260.630768	147.020000
260.723694	147.120000
260.816620	147.120000
260.909546	146.860000
261.002472	146.600000
261.095398	145.980000
261.188354	146.080000
261.281281	145.500000
261.374207	145.480000
261.467133	146.240000
261.560089	146.600000
261.653015	146.040000
261.745972	146.880000
261.838867	147.160000
261.931824	146.920000
262.024780	146.520000
262.117706	146.960000
262.210663	146.520000
262.303589	146.560000
262.396515	146.680000
262.489471	147.360000
262.582397	147.300000
262.675354	146.740000
262.768280	146.680000
262.861237	146.360000
262.954163	146.180000
263.047119	146.240000
263.140045	146.460000
263.233002	146.420000
263.325958	146.340000
263.418884	145.980000
263.511841	145.780000
263.604797	145.800000
263.697723	146.180000
263.790680	146.120000
263.883636	146.520000
263.976593	146.160000
264.069550	146.620000
264.162476	145.900000
264.255463	146.020000
264.348419	146.000000
264.441376	146.800000
264.534332	146.140000
264.627289	146.440000
264.720245	146.700000
264.813202	145.980000
264.906158	146.020000
264.999115	146.660000
265.092072	146.700000
265.185028	147.340000
265.277985	147.980000
265.370941	147.660000
265.463898	147.280000
265.556854	147.000000
265.649811	145.660000
265.742798	145.560000
265.835754	145.580000
265.928711	146.280000
266.021667	146.300000
266.114655	146.640000
266.207611	146.840000
266.300568	146.600000
266.393585	145.580000
266.486511	146.220000
266.579498	145.820000
266.672485	145.520000
266.765442	145.240000
266.858429	146.300000
266.951385	145.600000
267.044342	145.880000
267.137329	145.820000
267.230316	146.380000
267.323273	145.800000
267.416260	146.480000
267.509216	146.260000
267.602203	146.520000
267.695160	146.680000
267.788147	146.620000
267.881134	146.080000
267.974091	146.360000
268.067078	146.080000
268.160065	146.060000
268.253052	145.860000
268.346008	145.780000
268.438995	145.580000
268.531982	145.660000
268.624969	145.080000
268.717987	145.780000
268.810944	145.940000
268.903961	146.080000
268.996948	145.860000
269.089905	146.660000
269.182892	146.460000
269.275879	146.980000
269.368866	146.660000
269.461853	147.160000
269.554871	146.900000
269.647858	146.780000
269.740845	146.360000
269.833832	146.820000
269.926819	146.540000
270.019806	146.380000
270.112793	146.300000
270.205811	146.500000
270.298798	146.300000
270.391785	146.980000
270.484772	146.660000
270.577789	146.720000
270.670776	146.540000
270.763763	146.440000
270.856750	145.880000
270.949768	145.700000
271.042786	145.740000
271.135773	145.340000
271.228790	145.820000
271.321808	145.760000
271.414795	145.700000
271.507782	145.580000
271.600800	145.480000
271.693817	145.320000
271.786804	145.440000
271.879822	145.720000
271.972809	145.320000
272.065826	146.200000
272.158844	146.080000
272.251831	146.560000
272.344849	146.640000
272.437866	146.720000
272.530853	146.360000
272.623871	146.620000
272.716888	145.480000
272.809906	145.660000
272.902893	145.820000
272.995911	145.180000
273.088928	145.000000
273.181946	145.400000
273.274963	145.180000
273.367981	144.860000
273.460999	145.320000
273.554047	145.820000
273.647003	146.320000
273.740051	146.160000
273.833069	146.780000
273.926086	146.980000
274.019135	146.460000
274.112152	146.280000
274.205170	146.520000
274.298187	146.940000
274.391205	146.460000
274.484222	146.380000
274.577240	146.480000
274.670258	146.700000
274.763306	146.160000
274.856323	146.560000
274.949341	146.840000
275.042358	147.420000
275.135406	147.080000
275.228424	147.000000
275.321442	147.040000
275.414490	146.660000
275.507507	146.340000
275.600525	146.820000
275.693573	146.660000
275.786591	146.160000
275.879669	146.320000
275.972656	146.000000
276.065735	145.600000
276.158752	146.100000
276.251801	147.020000
276.344818	147.240000
276.437866	147.220000
276.530884	147.120000
276.623932	146.380000
276.716980	146.260000
276.809998	146.140000
276.903046	146.240000
276.996094	147.020000
277.089111	147.600000
277.182159	147.900000
277.275208	147.480000
277.368256	147.580000
277.461304	147.100000
277.554321	146.580000
277.647369	146.140000
277.740417	146.360000
277.833466	145.720000
277.926514	145.740000
278.019562	146.520000
278.112610	146.000000
278.205688	145.940000
278.298706	146.400000
278.391785	146.000000
278.484833	145.300000
278.577881	145.540000
278.670929	146.040000
278.763977	146.420000
278.857025	147.120000
278.950073	147.140000
279.043121	147.100000
279.136169	146.820000
279.229248	146.060000
279.322296	145.840000
279.415344	146.240000
279.508392	145.980000
279.601440	145.900000
279.694519	146.380000
279.787567	146.040000
279.880615	145.600000
279.973694	145.980000
280.066742	145.960000
280.159790	146.040000
280.252869	146.080000
280.345917	146.360000
280.438995	146.160000
280.532074	146.260000
280.625122	146.160000
280.718201	147.120000
280.811279	147.280000
280.904327	147.040000
280.997406	147.080000
281.090454	147.180000
281.183533	146.100000
281.276581	145.820000
281.369659	146.040000
281.462738	146.140000
281.555786	146.120000
281.648865	146.440000
281.741943	146.240000
281.835022	146.760000
281.928070	146.600000
282.021149	146.460000
282.114227	146.500000
282.207306	146.560000
282.300385	146.880000
282.393433	146.920000
282.486511	147.000000
282.579590	147.100000
282.672668	147.720000
282.765747	146.840000
282.858856	146.500000
282.951904	146.500000
283.045013	146.760000
283.138062	146.640000
283.231171	147.020000
283.324249	147.480000
283.417328	147.480000
283.510406	146.920000
283.603485	146.640000
283.696564	146.560000
283.789642	146.780000
283.882751	146.380000
283.975830	147.260000
284.068909	147.180000
284.161987	147.600000
284.255066	147.060000
284.348175	147.440000
284.441254	146.920000
284.534332	147.340000
284.627441	146.920000
284.720520	146.800000
284.813599	146.640000
284.906708	146.520000
284.999786	146.200000
285.092896	145.740000
285.185974	147.080000
285.279053	146.800000
285.372192	146.800000
285.465240	147.300000
285.558380	147.440000
285.651459	146.340000
285.744568	147.180000
285.837677	146.980000
285.930756	146.580000
286.023865	146.920000
286.116943	146.760000
286.210052	146.420000
286.303162	146.620000
286.396240	146.760000
286.489349	146.320000
286.582458	146.740000
286.675568	146.600000
286.768646	146.540000
286.861755	146.680000
286.954865	147.500000
287.047974	147.000000
287.141083	146.860000
287.234161	146.600000
287.327271	146.280000
287.420380	146.380000
287.513519	146.540000
287.606598	146.860000
287.699738	147.200000
287.792816	147.060000
287.885956	146.600000
287.979034	146.660000
288.072174	146.540000
288.165283	146.500000
288.258392	146.880000
288.351501	146.680000
288.444611	146.860000
288.537720	147.220000
288.630859	146.840000
288.723969	146.660000
288.817078	146.920000
288.910187	146.820000
289.003296	146.160000
289.096436	145.980000
289.189545	145.720000
289.282654	145.220000
289.375763	145.660000
289.468903	146.140000
289.562012	146.860000
289.655121	147.320000
289.748260	147.520000
289.841400	147.500000
289.934509	147.420000
290.027649	147.520000
290.120728	147.100000
290.213898	147.380000
290.306976	146.980000
290.400146	147.120000
290.493256	146.620000
290.586395	146.580000
290.679535	146.880000
290.772644	146.880000
290.865784	145.920000
290.958893	145.660000
291.052032	145.660000
291.145172	145.140000
291.238281	144.680000
291.331421	145.460000
291.424561	146.160000
291.517670	146.380000
291.610809	146.480000
291.703949	146.580000
291.797089	146.620000
291.890228	146.180000
291.983337	146.240000
292.076477	146.140000
292.169617	146.640000
292.262756	146.500000
292.355927	146.160000
292.449036	145.740000
292.542206	146.000000
292.635315	145.980000
292.728485	146.120000
292.821625	146.000000
292.914764	147.300000
293.007904	147.300000
293.101044	146.960000
293.194183	146.760000
293.287323	147.260000
293.380463	146.320000
293.473602	145.980000
293.566742	146.420000
293.659882	146.960000
293.753021	147.340000
293.846191	147.640000
293.939331	147.720000
294.032471	147.700000
294.125610	146.980000
294.218781	147.120000
294.311920	147.300000
294.405060	147.620000
294.498230	147.500000
294.591370	148.000000
294.684540	147.300000
294.777679	146.660000
294.870850	146.680000
294.963959	146.540000
295.057159	146.160000
295.150299	146.500000
295.243469	146.680000
295.336609	146.220000
295.429779	146.140000
295.522919	146.660000
295.616089	146.360000
295.709229	147.100000
295.802399	147.700000
295.895569	147.580000
295.988708	147.360000
296.081879	147.760000
296.175018	146.800000
296.268188	146.240000
296.361359	146.820000
296.454529	146.800000
296.547668	146.400000
296.640839	146.960000
296.734009	147.000000
296.827179	146.880000
296.920319	147.060000
297.013519	147.200000
297.106659	147.000000
297.199860	147.020000
297.292999	146.900000
297.386200	146.560000
297.479309	146.360000
297.572510	146.240000
297.665680	145.960000
297.758850	145.960000
297.852020	145.920000
297.945190	145.880000
298.038361	145.680000
298.131531	147.020000
298.224701	146.780000
298.317871	146.760000
298.411072	146.660000
298.504242	146.440000
298.597412	145.460000
298.690582	145.880000
298.783752	145.760000
298.876923	146.200000
298.970093	146.540000
299.063293	146.740000
299.156464	146.920000
299.249634	147.560000
299.342834	147.660000
299.436005	148.040000
299.529205	148.080000
299.622345	147.940000
299.715576	147.140000
299.808716	146.860000
299.901917	146.500000
299.995117	146.680000
300.088287	146.840000
300.181488	146.680000
300.274658	146.640000
300.367828	146.780000
300.461029	146.300000
300.554199	146.260000
300.647400	146.400000
300.740601	146.920000
300.833771	146.880000
300.926971	147.060000
301.020142	146.620000
301.113342	146.740000
301.206512	146.420000
301.299713	146.540000
301.392914	146.340000
301.486084	146.580000
301.579285	146.560000
301.672516	147.220000
301.765686	147.180000
301.858887	147.320000
301.952057	147.260000
302.045288	147.280000
302.138458	146.400000
302.231659	145.980000
302.324860	146.120000
302.418060	145.680000
302.511261	145.760000
302.604462	146.420000
302.697662	146.500000
302.790863	146.080000
302.884064	146.100000
302.977264	146.100000
303.070465	145.860000
303.163666	146.420000
303.256866	146.880000
303.350067	146.740000
303.443268	146.680000
303.536469	146.840000
303.629669	146.420000
303.722870	146.640000
303.816071	146.680000
303.909271	146.640000
304.002472	146.000000
304.095673	145.800000
304.188934	144.960000
304.282104	145.800000
304.375336	145.780000
304.468506	145.840000
304.561768	145.680000
304.654968	146.600000
304.748169	146.360000
304.841370	146.400000
304.934601	146.640000
305.027802	146.720000
305.121002	146.080000
305.214233	145.900000
305.307434	145.780000
305.400665	146.220000
305.493866	146.140000
305.587097	146.640000
305.680298	146.400000
305.773499	147.460000
305.866730	147.160000
305.959930	147.500000
306.053162	147.280000
306.146393	147.360000
306.239594	146.240000
306.332825	146.240000
306.426025	146.660000
306.519287	146.140000
306.612488	146.240000
306.705719	146.320000
306.798920	146.240000
306.892181	145.500000
306.985352	145.640000
307.078613	145.220000
307.171844	145.520000
307.265045	145.020000
307.358276	144.980000
307.451508	145.280000
307.544739	145.840000
307.637970	145.560000
307.731201	145.780000
307.824402	146.320000
307.917633	146.520000
308.010864	146.760000
308.104095	147.280000
308.197327	147.340000
308.290558	147.360000
308.383789	146.780000
308.477020	146.480000
308.570251	145.760000
308.663483	145.700000
308.756714	145.440000
308.849976	145.460000
308.943176	145.980000
309.036438	145.800000
309.129639	145.540000
309.222900	145.520000
309.316101	145.500000
309.409393	144.360000
309.502625	144.600000
309.595856	144.680000
309.689087	144.680000
309.782318	144.920000
309.875580	145.360000
309.968811	145.560000
310.062042	145.900000
310.155273	146.060000
310.248535	146.440000
310.341766	146.440000
310.434998	146.200000
310.528259	145.940000
310.621490	146.120000
310.714722	145.220000
310.807983	145.280000
310.901215	145.600000
310.994476	145.800000
311.087708	145.320000
311.181000	146.000000
311.274200	145.580000
311.367462	145.260000
311.460693	145.100000
311.553986	145.900000
311.647186	145.860000
311.740479	146.540000
311.833710	146.620000
311.926971	146.740000
312.020203	146.040000
312.113464	146.100000
312.206726	145.460000
312.299957	145.980000
312.393219	146.200000
312.486481	146.360000
312.579712	146.200000
312.672974	146.320000
312.766235	145.960000
312.859497	145.700000
312.952759	145.780000
313.045990	146.420000
313.139252	146.280000
313.232513	146.560000
313.325775	146.920000
313.419037	146.740000
313.512299	146.180000
313.605530	147.100000
313.698822	146.980000
313.792053	146.920000
313.885345	146.400000
313.978577	146.320000
314.071869	145.300000
314.165131	145.360000
314.258392	145.160000
314.351654	145.760000
314.444916	145.100000
314.538177	145.980000
314.631439	146.360000
314.724701	146.320000
314.817993	146.060000
314.911255	146.760000
315.004517	146.360000
315.097778	145.780000
315.191040	146.140000
315.284302	146.520000
315.377594	146.140000
315.470856	145.960000
315.564117	145.840000
315.657379	145.400000
315.750671	144.960000
315.843933	145.600000
315.937195	145.320000
316.030518	144.980000
316.123749	145.000000
316.217041	145.920000
316.310303	145.820000
316.403595	146.320000
316.496857	146.940000
316.590149	147.220000
316.683411	146.580000
316.776703	146.320000
316.869965	146.080000
316.963257	145.720000
317.056519	145.240000
317.149811	144.920000
317.243073	144.860000
317.336365	144.920000
317.429626	145.440000
317.522919	145.860000
317.616180	146.040000
317.709473	145.860000
317.802765	145.640000
317.896027	145.580000
317.989319	145.940000
318.082611	145.760000
318.175873	145.960000
318.269165	146.120000
318.362488	145.940000
318.455750	145.300000
318.549042	145.880000
318.642303	146.020000
318.735626	146.120000
318.828888	146.240000
318.922211	146.140000
319.015472	146.460000
319.108765	146.100000
319.202057	145.520000
319.295349	145.580000
319.388641	145.840000
319.481934	145.160000
319.575226	145.560000
319.668518	146.340000
319.761810	146.320000
319.855103	146.300000
319.948395	146.720000
320.041687	146.480000
320.134979	146.300000
320.228271	146.160000
320.321564	145.920000
320.414856	145.840000
320.508148	145.700000
320.601440	145.440000
320.694763	145.140000
320.788025	145.980000
320.881348	145.820000
320.974640	146.120000
321.067963	145.980000
321.161224	146.120000
321.254547	145.400000
321.347839	146.000000
321.441162	145.460000
321.534454	145.600000
321.627747	145.280000
321.721069	146.040000
321.814362	145.840000
321.907654	146.340000
322.000946	146.560000
322.094269	147.420000
322.187561	146.720000
322.280884	146.940000
322.374176	146.840000
322.467468	147.380000
322.560791	147.240000
322.654083	147.580000
322.747406	147.540000
322.840698	147.900000
322.934021	147.880000
323.027344	147.860000
323.120636	147.480000
323.213959	147.000000
323.307251	146.280000
323.400574	145.480000
323.493866	144.960000
323.587219	145.220000
323.680511	145.500000
323.773834	146.060000
323.867157	146.300000
323.960449	146.520000
324.053772	146.340000
324.147095	146.380000
324.240387	146.700000
324.333710	146.800000
324.427032	146.920000
324.520355	147.080000
324.613647	146.340000
324.706970	145.720000
324.800293	145.840000
324.893616	146.060000
324.986938	146.280000
325.080231	146.440000
325.173553	147.000000
325.266876	147.360000
325.360199	147.220000
325.453522	146.620000
325.546875	146.640000
325.640167	146.420000
325.733521	146.560000
325.826813	146.780000
325.920166	146.800000
326.013489	146.780000
326.106812	146.040000
326.200134	145.240000
326.293457	144.780000
326.386780	144.900000
326.480103	144.920000
326.573425	145.000000
326.666748	145.280000
326.760071	145.560000
326.853424	145.840000
326.946747	145.920000
327.040070	146.720000
327.133392	146.520000
327.226715	145.900000
327.320068	145.220000
327.413391	145.600000
327.506714	145.100000
327.600037	145.040000
327.693390	145.520000
327.786713	145.360000
327.880066	145.060000
327.973358	145.600000
328.066742	145.800000
328.160034	145.560000
328.253418	146.340000
328.346710	146.100000
328.440063	145.100000
328.533417	145.060000
328.626740	145.660000
328.720093	145.340000
328.813416	145.200000
328.906769	145.820000
329.000092	145.920000
329.093445	145.580000
329.186768	145.680000
329.280121	146.580000
329.373444	146.780000
329.466797	146.740000
329.560120	146.760000
329.653473	147.200000
329.746796	146.380000
329.840149	146.060000
329.933502	146.160000
330.026825	145.980000
330.120178	145.480000
330.213562	145.780000
330.306854	145.700000
330.400238	145.380000
330.493561	145.500000
330.586945	146.120000
330.680237	146.120000
330.773621	146.540000
330.866974	146.740000
330.960327	146.860000
331.053680	146.300000
331.147003	146.360000
331.240356	146.240000
331.333710	146.000000
331.427063	145.640000
331.520416	145.820000
331.613770	145.640000
331.707123	145.820000
331.800476	146.140000
331.893829	147.020000
331.987152	146.880000
332.080505	146.800000
332.173859	146.560000
332.267212	146.280000
332.360565	145.680000
332.453918	145.780000
332.547333	145.820000
332.640656	146.120000
332.734039	146.280000
332.827362	146.120000
332.920746	146.340000
333.014069	146.660000
333.107452	146.720000
333.200806	146.840000
333.294159	147.100000
333.387543	146.600000
333.480896	145.920000
333.574249	145.560000
333.667603	145.280000
333.760956	145.420000
333.854340	145.480000
333.947693	145.820000
334.041046	145.800000
334.134430	146.100000
334.227783	145.620000
334.321136	145.780000
334.414520	145.460000
334.507874	145.520000
334.601227	145.340000
334.694611	145.240000
334.787964	145.340000
334.881348	145.920000
334.974701	146.080000
335.068085	145.600000
335.161438	145.840000
335.254822	145.760000
335.348175	145.600000
335.441559	145.100000
335.534943	146.200000
335.628296	146.160000
335.721680	146.040000
335.815033	146.340000
335.908417	146.920000
336.001770	146.460000
336.095154	146.320000
336.188538	145.960000
336.281891	145.340000
336.375275	144.760000
336.468658	144.620000
336.562012	144.900000
336.655396	145.640000
336.748779	146.260000
336.842133	146.660000
336.935516	146.840000
337.028900	146.600000
337.122284	146.280000
337.215637	146.160000
337.309021	146.000000
337.402435	145.540000
337.495789	145.660000
337.589203	145.560000
337.682526	145.300000
337.775940	145.680000
337.869324	145.980000
337.962708	145.560000
338.056091	146.060000
338.149475	145.880000
338.242859	145.560000
338.336243	145.380000
338.429626	146.040000
338.523010	145.600000
338.616394	145.880000
338.709778	146.340000
338.803162	146.920000
338.896545	146.600000
338.989929	146.260000
339.083313	146.140000
339.176697	145.540000
339.270081	145.260000
339.363464	145.340000
339.456848	145.820000
339.550232	145.600000
339.643616	145.260000
339.737030	145.140000
339.830383	145.000000
339.923828	145.000000
340.017181	145.240000
340.110596	145.980000
340.203949	145.920000
340.297363	145.840000
340.390778	145.940000
340.484161	146.160000
340.577545	146.120000
340.670959	146.400000
340.764343	146.600000
340.857727	146.820000
340.951111	146.240000
341.044525	146.200000
341.137909	145.700000
341.231293	145.360000
341.324707	144.580000
341.418091	145.380000
341.511505	145.180000
341.604889	145.200000
341.698303	145.640000
341.791687	146.160000
341.885071	145.460000
341.978485	145.200000
342.071899	145.840000
342.165283	145.880000
342.258698	146.080000
342.352081	146.480000
342.445496	147.040000
342.538879	146.740000
342.632324	146.580000
342.725708	146.140000
342.819122	145.760000
342.912506	145.540000
343.005920	145.340000
343.099335	146.280000
343.192719	146.040000
343.286133	146.160000
343.379547	146.140000
343.472931	146.340000
343.566345	145.300000
343.659760	145.900000
343.753143	145.660000
343.846558	145.360000
343.939972	145.180000
344.033386	145.700000
344.126770	145.300000
344.220184	145.700000
344.313599	146.320000
344.407043	146.640000
344.500427	145.960000
344.593872	146.540000
344.687225	146.420000
344.780670	145.760000
344.874054	145.400000
344.967499	145.960000
345.060913	145.580000
345.154327	145.580000
345.247742	145.460000
345.341156	145.560000
345.434570	145.120000
345.527985	145.160000
345.621399	145.440000
345.714813	145.720000
345.808228	145.760000
345.901642	145.860000
345.995056	145.560000
346.088470	145.300000
346.181885	145.580000
346.275299	145.320000
346.368713	145.520000
346.462128	145.660000
346.555573	145.560000
346.648987	145.560000
346.742401	145.620000
346.835815	145.900000
346.929260	145.440000
347.022644	145.720000
347.116119	146.140000
347.209503	146.440000
347.302948	147.060000
347.396362	148.100000
347.489807	148.040000
347.583221	148.040000
347.676636	147.800000
347.770050	146.240000
347.863495	145.700000
347.956909	145.940000
348.050323	145.560000
348.143768	145.580000
348.237183	146.120000
348.330597	146.640000
348.424042	146.800000
348.517456	147.060000
348.610901	147.240000
348.704315	147.060000
348.797760	146.140000
348.891174	145.240000
348.984619	144.760000
349.078033	145.240000
349.171448	145.640000
349.264923	145.880000
349.358337	146.440000
349.451782	146.540000
349.545197	145.500000
349.638641	145.220000
349.732086	145.100000
349.825500	145.240000
349.918945	145.060000
350.012390	145.720000
350.105804	146.080000
350.199249	146.440000
350.292664	146.560000
350.386108	146.580000
350.479553	146.980000
350.572968	146.780000
350.666412	146.700000
350.759857	146.480000
350.853302	147.260000
350.946716	146.700000
351.040161	146.780000
351.133606	146.840000
351.227081	146.900000
351.320465	147.020000
351.413940	147.060000
351.507355	147.200000
351.600830	147.400000
351.694244	147.080000
351.787720	146.800000
351.881104	146.800000
351.974579	146.700000
352.067993	147.180000
352.161469	147.260000
352.254883	146.500000
352.348358	146.540000
352.441803	146.340000
352.535248	145.620000
352.628693	145.880000
352.722137	146.100000
352.815582	146.460000
352.909027	146.820000
353.002472	146.680000
353.095917	146.680000
353.189362	146.960000
353.282806	146.700000
353.376251	146.060000
353.469696	145.820000
353.563141	146.400000
353.656586	145.920000
353.750061	145.540000
353.843475	145.880000
353.936981	146.480000
354.030396	145.720000
354.123871	145.940000
354.217285	146.600000
354.310760	146.920000
354.404175	146.980000
354.497681	146.600000
354.591095	146.580000
354.684570	145.800000
354.777985	145.160000
354.871490	144.800000
354.964935	145.540000
355.058380	145.720000
355.151855	145.860000
355.245300	146.540000
355.338745	146.800000
355.432220	146.440000
355.525665	146.000000
355.619110	146.500000
355.712585	145.840000
355.806030	145.780000
355.899475	145.440000
355.992950	145.740000
356.086426	145.720000
356.179871	146.120000
356.273346	146.000000
356.366791	146.460000
356.460266	146.580000
356.553711	146.220000
356.647186	146.180000
356.740631	146.180000
356.834106	145.820000
356.927551	146.120000
357.021027	146.120000
357.114471	146.420000
357.207947	146.520000
357.301422	146.960000
357.394867	146.340000
357.488342	146.700000
357.581818	146.240000
357.675262	146.300000
357.768738	145.900000
357.862213	145.600000
357.955658	145.500000
358.049133	145.480000
358.142609	145.380000
358.236053	145.260000
358.329529	145.700000
358.423035	146.000000
358.516449	145.920000
358.609955	146.440000
358.703400	147.280000
358.796906	147.180000
358.890350	146.280000
358.983826	146.600000
359.077271	145.680000
359.170776	145.020000
359.264221	144.760000
359.357727	145.220000
359.451172	145.480000
359.544647	145.700000
359.638123	145.760000
359.731598	146.640000
359.825073	146.540000
359.918549	146.260000
360.012024	146.580000
360.105499	146.060000
360.198975	145.660000
360.292450	146.040000
360.385925	145.820000
360.479401	145.440000
360.572876	145.960000
360.666351	146.040000
360.759857	145.640000
360.853302	145.780000
360.946808	145.280000
361.040253	145.220000
361.133759	145.060000
361.227203	145.400000
361.320709	145.120000
361.414154	146.080000
361.507660	146.480000
361.601105	147.100000
361.694641	147.440000
361.788086	147.620000
361.881592	147.760000
361.975067	147.440000
362.068542	147.520000
362.162018	147.240000
362.255524	146.920000
362.348999	146.640000
362.442474	146.900000
362.535950	146.220000
362.629456	145.760000
362.722931	146.140000
362.816406	146.520000
362.909882	146.680000
363.003387	146.560000
363.096863	147.240000
363.190338	146.940000
363.283875	146.440000
363.377319	145.940000
363.470825	146.360000
363.564301	145.840000
363.657806	146.040000
363.751282	145.640000
363.844788	146.640000
363.938232	146.120000
364.031769	146.660000
364.125214	146.720000
364.218750	147.560000
364.312225	146.380000
364.405731	146.840000
364.499207	146.120000
364.592712	146.100000
364.686188	145.840000
364.779694	146.200000
364.873169	145.900000
364.966675	145.940000
365.060150	146.020000
365.153656	146.560000
365.247131	146.660000
365.340637	147.180000
365.434143	147.580000
365.527618	147.620000
365.621155	146.260000
365.714600	145.980000
365.808136	145.740000
365.901611	145.040000
365.995117	144.740000
366.088593	145.360000
366.182129	145.400000
366.275604	145.320000
366.369110	145.860000
366.462585	146.020000
366.556122	146.600000
366.649567	146.700000
366.743103	146.840000
366.836609	146.120000
366.930115	146.180000
367.023590	145.940000
367.117096	145.840000
367.210602	145.720000
367.304108	146.720000
367.397614	147.260000
367.491119	147.300000
367.584595	147.700000
367.678101	147.800000
367.771606	147.180000
367.865112	146.620000
367.958649	146.260000
368.052124	145.700000
368.145660	145.780000
368.239136	146.300000
368.332672	146.200000
368.426147	146.460000
368.519684	146.560000
368.613159	146.820000
368.706696	146.500000
368.800171	146.640000
368.893707	146.180000
368.987183	146.420000
369.080719	145.980000
369.174225	145.900000
369.267731	146.040000
369.361237	146.280000
369.454742	146.220000
369.548248	146.800000
369.641754	146.600000
369.735260	146.340000
369.828766	145.580000
369.922272	145.980000
370.015808	145.540000
370.109314	145.640000
370.202820	145.200000
370.296356	146.440000
370.389832	145.860000
370.483368	145.500000
370.576874	145.460000
370.670410	145.880000
370.763885	144.660000
370.857422	144.700000
370.950928	144.580000
371.044464	145.280000
371.137939	145.560000
371.231476	146.440000
371.324982	147.260000
371.418518	147.640000
371.512024	147.300000
371.605560	147.000000
371.699066	146.920000
371.792572	145.960000
371.886108	146.020000
371.979614	145.800000
372.073120	146.440000
372.166656	146.160000
372.260162	146.640000
372.353668	146.680000
372.447205	146.660000
372.540710	146.400000
372.634277	146.580000
372.727753	146.620000
372.821320	146.380000
372.914795	146.320000
373.008362	146.120000
373.101837	146.080000
373.195404	145.660000
373.288879	145.760000
373.382446	146.700000
373.475922	146.680000
373.569489	147.440000
373.662964	148.080000
373.756531	148.060000
373.850037	147.480000
373.943573	147.380000
374.037109	146.280000
374.130615	146.200000
374.224152	146.420000
374.317657	146.560000
374.411194	147.540000
374.504730	147.500000
374.598236	147.100000
374.691772	146.340000
374.785309	146.280000
374.878815	145.040000
374.972351	145.680000
375.065887	145.740000
375.159454	147.020000
375.252930	146.740000
375.346497	147.280000
375.440002	147.800000
375.533569	147.720000
375.627045	146.660000
375.720612	146.720000
375.814117	146.900000
375.907684	146.040000
376.001160	145.840000
376.094727	145.620000
376.188232	146.400000
376.281799	146.380000
376.375336	146.560000
376.468872	147.300000
376.562408	147.740000
376.655914	147.020000
376.749451	146.980000
376.842987	147.120000
376.936523	146.460000
377.030060	146.740000
377.123596	147.000000
377.217133	146.120000
377.310669	145.860000
377.404205	146.760000
377.497772	146.820000
377.591278	146.520000
377.684845	147.700000
377.778351	148.080000
377.871918	147.520000
377.965424	146.940000
378.058990	146.580000
378.152496	146.040000
378.246063	146.080000
378.339569	146.120000
378.433136	146.240000
378.526642	146.660000
378.620209	146.600000
378.713745	146.160000
378.807312	146.500000
378.900848	146.180000
378.994385	146.160000
379.087921	145.540000
379.181458	145.900000
379.274994	144.820000
379.368530	145.080000
379.462097	145.480000
379.555634	146.120000
379.649170	145.620000
379.742706	146.440000
379.836273	146.660000
379.929810	146.020000
380.023376	145.680000
380.116882	145.840000
380.210449	145.420000
380.303986	145.000000
380.397552	145.020000
380.491058	145.360000
380.584656	145.120000
380.678162	145.360000
380.771729	145.400000
380.865265	145.960000
380.958832	146.060000
381.052368	146.120000
381.145935	146.360000
381.239471	146.900000
381.333008	146.580000
381.426575	146.360000
381.520111	147.000000
381.613647	146.880000
381.707214	146.820000
381.800751	146.200000
381.894318	146.540000
381.987854	145.700000
382.081421	145.660000
382.174988	145.480000
382.268524	145.360000
382.362091	145.100000
382.455627	146.220000
382.549194	145.900000
382.642731	145.440000
382.736298	145.960000
382.829834	145.760000
382.923401	145.620000
383.016937	145.900000
383.110504	146.660000
383.204041	146.760000
383.297607	147.400000
383.391174	146.720000
383.484741	147.340000
383.578278	146.700000
383.671844	146.020000
383.765411	145.220000
383.858948	145.760000
383.952515	145.120000
384.046051	145.880000
384.139618	146.740000
384.233185	146.900000
384.326721	146.720000
384.420288	147.380000
384.513855	146.740000
384.607422	146.840000
384.700989	147.200000
384.794525	146.540000
384.888123	146.100000
384.981659	146.780000
385.075226	146.420000
385.168762	146.260000
385.262360	146.860000
385.355896	146.080000
385.449463	145.540000
385.542999	145.640000
385.636597	146.400000
385.730164	146.480000
385.823730	146.260000
385.917267	145.980000
386.010834	145.860000
386.104401	145.340000
386.197968	145.360000
386.291534	146.320000
386.385101	146.840000
386.478668	146.980000
386.572235	146.920000
386.665802	146.480000
386.759338	146.020000
386.852905	145.600000
386.946472	145.120000
387.040070	145.260000
387.133606	145.500000
387.227203	145.280000
387.320740	145.480000
387.414337	145.880000
387.507874	145.680000
387.601471	145.680000
387.695007	145.760000
387.788605	145.600000
387.882141	145.780000
387.975739	145.740000
388.069275	145.680000
388.162872	146.100000
388.256439	146.080000
388.350037	145.840000
388.443604	145.840000
388.537170	145.740000
388.630737	146.180000
388.724304	146.480000
388.817871	146.300000
388.911438	146.300000
389.005005	146.500000
389.098602	146.480000
389.192169	146.200000
389.285736	146.800000
389.379333	146.680000
389.472870	146.460000
389.566467	146.300000
389.660034	146.480000
389.753632	145.920000
389.847168	146.300000
389.940765	146.560000
390.034332	146.620000
390.127930	146.020000
390.221466	146.040000
390.315063	145.360000
390.408630	144.440000
390.502228	143.620000
390.595795	144.400000
390.689362	144.600000
390.782959	145.360000
390.876526	146.160000
390.970093	146.380000
391.063690	146.540000
391.157257	146.640000
391.250824	146.760000
391.344421	146.740000
391.437988	147.020000
391.531555	146.920000
391.625153	146.900000
391.718750	146.940000
391.812317	146.620000
391.905914	146.520000
391.999481	146.600000
392.093079	146.520000
392.186615	146.640000
392.280243	146.960000
392.373779	147.040000
392.467407	147.380000
392.560944	147.560000
392.654572	146.860000
392.748108	146.720000
392.841736	147.040000
392.935303	146.280000
393.028900	145.880000
393.122467	146.400000
393.216064	146.040000
393.309631	145.460000
393.403229	145.400000
393.496796	145.440000
393.590393	144.620000
393.683990	145.240000
393.777557	145.520000
393.871155	146.060000
393.964722	146.560000
394.058350	146.680000
394.151917	146.500000
394.245514	146.140000
394.339081	145.880000
394.432678	146.020000
394.526245	146.240000
394.619873	145.800000
394.713409	146.140000
394.807037	145.920000
394.900604	146.020000
394.994202	146.200000
395.087769	146.600000
395.181396	146.100000
395.274994	146.820000
395.368561	145.940000
395.462158	146.060000
395.555756	145.940000
395.649353	146.600000
395.742920	145.940000
395.836517	146.760000
395.930115	146.140000
396.023712	146.440000
396.117279	146.560000
396.210876	146.200000
396.304474	145.880000
396.398071	146.680000
396.491669	146.740000
396.585266	146.340000
396.678833	146.640000
396.772461	146.880000
396.866028	146.160000
396.959656	146.520000
397.053223	147.000000
397.146851	147.140000
397.240417	147.640000
397.334015	149.020000
397.427582	149.420000
397.521210	150.940000
397.614807	153.440000
397.708405	155.840000
397.802002	159.040000
397.895599	164.260000
397.989197	169.520000
398.082794	176.240000
398.176392	185.580000
398.269989	195.340000
398.363586	207.300000
398.457184	220.720000
398.550781	235.080000
398.644379	248.360000
398.737976	263.440000
398.831573	277.660000
398.925201	292.260000
399.018768	307.420000
399.112396	324.400000
399.205963	341.740000
399.299591	360.860000
399.393158	380.340000
399.486786	400.640000
399.580353	418.440000
399.673981	432.840000
399.767578	444.600000
399.861206	451.960000
399.954773	453.080000
400.048401	448.520000
400.141998	439.660000
400.235596	425.160000
400.329193	407.720000
400.422791	388.580000
400.516418	368.860000
400.610016	350.260000
400.703613	332.000000
400.797211	312.440000
400.890808	293.640000
400.984436	276.500000
401.078033	258.860000
401.171631	242.700000
401.265259	229.140000
401.358826	216.760000
401.452484	205.400000
401.546051	196.340000
401.639679	187.040000
401.733246	179.720000
401.826904	173.220000
401.920471	167.460000
402.014099	162.800000
402.107697	159.660000
402.201324	157.040000
402.294891	154.980000
402.388550	153.580000
402.482147	152.340000
402.575745	150.940000
402.669373	149.340000
402.762970	148.520000
402.856567	147.960000
402.950195	147.860000
403.043793	147.440000
403.137390	148.160000
403.231018	147.240000
403.324615	147.840000
403.418243	147.140000
403.511841	147.600000
403.605469	146.980000
403.699066	147.440000
403.792694	146.740000
403.886292	146.580000
403.979919	146.240000
404.073517	146.240000
404.167145	146.660000
404.260712	146.960000
404.354370	147.040000
404.447937	147.220000
404.541595	147.320000
404.635162	147.380000
404.728821	147.360000
404.822418	147.120000
404.916046	146.840000
405.009644	146.920000
405.103271	146.920000
405.196899	146.660000
405.290497	146.740000
405.384125	146.900000
405.477722	146.380000
405.571350	145.980000
405.664948	146.240000
405.758575	146.280000
405.852203	145.820000
405.945801	145.980000
406.039429	146.120000
406.133057	145.840000
406.226654	145.800000
406.320312	145.980000
406.413879	146.460000
406.507538	146.520000
406.601135	146.260000
406.694763	146.780000
406.788361	146.800000
406.882019	146.380000
406.975586	146.580000
407.069244	147.420000
407.162872	147.280000
407.256470	147.240000
407.350098	147.160000
407.443726	147.020000
407.537323	146.000000
407.630951	146.180000
407.724579	145.940000
407.818207	146.360000
407.911804	146.000000
408.005432	146.260000
408.099060	146.160000
408.192688	146.700000
408.286285	146.300000
408.379913	146.020000
408.473572	146.320000
408.567169	145.560000
408.660828	145.260000
408.754395	145.060000
408.848053	145.060000
408.941650	144.800000
409.035309	144.900000
409.128906	144.980000
409.222565	144.900000
409.316132	145.300000
409.409790	145.180000
409.503387	145.540000
409.597046	145.420000
409.690674	145.880000
409.784302	146.060000
409.877930	146.120000
409.971558	146.100000
410.065186	146.200000
410.158783	146.020000
410.252411	145.700000
410.346039	145.840000
410.439667	145.620000
410.533295	146.240000
410.626923	146.140000
410.720551	145.900000
410.814209	146.380000
410.907806	146.620000
411.001465	145.420000
411.095062	146.000000
411.188721	146.300000
411.282318	145.900000
411.375977	145.540000
411.469574	145.820000
411.563232	145.100000
411.656830	145.120000
411.750488	144.700000
411.844086	144.580000
411.937744	145.160000
412.031372	145.240000
412.125000	145.340000
412.218628	145.700000
412.312256	146.560000
412.405884	146.920000
412.499512	147.000000
412.593170	146.800000
412.686798	147.000000
412.780426	146.420000
412.874054	146.040000
412.967682	146.020000
413.061310	146.680000
413.154968	146.440000
413.248566	146.620000
413.342224	146.600000
413.435852	146.820000
413.529510	146.220000
413.623108	146.100000
413.716766	145.920000
413.810364	146.180000
413.904022	145.840000
413.997650	145.480000
414.091309	146.260000
414.184906	146.200000
414.278564	145.460000
414.372192	145.900000
414.465851	146.400000
414.559479	145.460000
414.653107	146.260000
414.746735	146.360000
414.840393	146.300000
414.934021	146.380000
415.027649	146.560000
415.121277	146.100000
415.214935	146.380000
415.308563	146.120000
415.402191	145.560000
415.495850	145.540000
415.589478	145.440000
415.683136	145.240000
415.776733	145.260000
415.870422	145.920000
415.964020	145.400000
416.057678	145.420000
416.151306	145.320000
416.244965	145.580000
416.338562	145.300000
416.432251	146.240000
416.525848	146.800000
416.619507	147.160000
416.713165	147.320000
416.806793	146.980000
416.900421	147.280000
416.994080	146.420000
417.087708	146.400000
417.181366	145.880000
417.274994	146.100000
417.368622	145.680000
417.462280	146.320000
417.555908	146.140000
417.649567	146.100000
417.743195	146.260000
417.836853	146.340000
417.930481	146.500000
418.024170	146.580000
418.117767	147.320000
418.211426	147.680000
418.305054	147.840000
418.398712	146.940000
418.492340	147.040000
418.585999	146.940000
418.679626	146.880000
418.773285	146.520000
418.866913	147.080000
418.960571	147.340000
419.054230	147.480000
419.147858	147.360000
419.241516	147.500000
419.335144	147.220000
419.428802	147.060000
419.522461	146.840000
419.616089	146.340000
419.709747	146.460000
419.803375	147.020000
419.897034	146.700000
419.990662	146.320000
420.084320	147.000000
420.177979	147.040000
420.271606	146.640000
420.365295	147.040000
420.458893	147.560000
420.552582	147.580000
420.646210	147.760000
420.739868	147.500000
420.833496	146.940000
420.927155	146.460000
421.020782	146.140000
421.114471	145.680000
421.208069	146.220000
421.301758	146.720000
421.395386	147.000000
421.489044	146.920000
421.582703	146.780000
421.676361	146.800000
421.769989	146.720000
421.863647	146.940000
421.957306	146.860000
422.050934	147.360000
422.144592	147.120000
422.238251	146.700000
422.331909	146.160000
422.425537	146.100000
422.519196	146.220000
422.612854	146.180000
422.706543	145.940000
422.800140	146.380000
422.893829	146.060000
422.987457	145.200000
423.081146	144.980000
423.174744	145.880000
423.268433	145.140000
423.362061	145.240000
423.455750	145.320000
423.549347	145.400000
423.643036	144.440000
423.736664	145.160000
423.830353	145.360000
423.924011	146.100000
424.017639	145.740000
424.111298	145.760000
424.204956	145.420000
424.298615	145.720000
424.392273	145.160000
424.485931	145.680000
424.579559	146.400000
424.673218	146.480000
424.766876	146.380000
424.860535	146.180000
424.954193	145.860000
425.047882	146.220000
425.141510	146.020000
425.235199	145.860000
425.328796	145.840000
425.422485	145.960000
425.516113	145.040000
425.609802	145.120000
425.703430	145.340000
425.797119	145.340000
425.890747	145.340000
425.984436	145.780000
426.078064	145.760000
426.171753	145.780000
426.265411	145.580000
426.359070	145.700000
426.452728	145.680000
426.546356	145.820000
426.640015	145.600000
426.733673	145.780000
426.827332	145.580000
426.920990	146.160000
427.014648	145.980000
427.108307	146.260000
427.201965	146.880000
427.295624	147.320000
427.389282	146.360000
427.482941	146.480000
427.576630	146.580000
427.670258	145.700000
427.763947	145.060000
427.857574	145.640000
427.951263	145.640000
428.044922	145.240000
428.138611	145.660000
428.232239	146.440000
428.325928	146.580000
428.419556	147.020000
428.513245	146.660000
428.606903	146.880000
428.700562	146.040000
428.794220	145.260000
428.887878	144.480000
428.981537	144.860000
429.075195	144.680000
429.168854	145.160000
429.262512	145.480000
429.356201	146.040000
429.449860	146.020000
429.543518	146.020000
429.637177	146.400000
429.730835	146.200000
429.824493	146.040000
429.918182	146.420000
430.011810	145.920000
430.105530	145.340000
430.199158	145.760000
430.292847	145.480000
430.386475	145.200000
430.480164	145.400000
430.573792	145.160000
430.667511	144.800000
430.761139	145.160000
430.854828	145.540000
430.948456	145.640000
431.042145	146.260000
431.135834	146.140000
431.229492	145.980000
431.323151	146.000000
431.416809	146.200000
431.510468	145.980000
431.604156	146.140000
431.697815	146.100000
431.791473	145.540000
431.885132	145.340000
431.978821	145.700000
432.072479	145.800000
432.166138	146.440000
432.259827	146.200000
432.353485	146.380000
432.447174	146.480000
432.540802	146.020000
432.634491	145.880000
432.728149	146.280000
432.821838	146.620000
432.915466	145.920000
433.009186	146.400000
433.102814	145.460000
433.196503	145.220000
433.290131	145.160000
433.383850	145.360000
433.477509	145.440000
433.571167	146.360000
433.664856	146.820000
433.758514	146.880000
433.852173	146.820000
433.945862	146.580000
434.039520	146.520000
434.133179	145.980000
434.226868	145.640000
434.320526	145.220000
434.414185	145.760000
434.507874	144.920000
434.601562	145.220000
434.695221	144.940000
434.788910	145.480000
434.882538	145.580000
434.976257	145.640000
435.069885	145.380000
435.163574	145.580000
435.257233	145.020000
435.350922	144.620000
435.444580	144.460000
435.538269	144.720000
435.631897	145.040000
435.725616	145.800000
435.819275	146.220000
435.912964	146.920000
436.006622	147.280000
436.100311	147.220000
436.193970	146.220000
436.287628	145.560000
436.381317	145.540000
436.474976	144.800000
436.568665	144.480000
436.662323	145.160000
436.756012	145.200000
436.849670	145.060000
436.943390	145.180000
437.037018	145.240000
437.130737	145.040000
437.224365	145.040000
437.318085	145.020000
437.411713	145.060000
437.505432	145.460000
437.599060	146.120000
437.692780	146.840000
437.786407	146.800000
437.880127	146.940000
437.973755	146.660000
438.067474	146.240000
438.161133	145.920000
438.254822	146.220000
438.348480	146.080000
438.442169	146.460000
438.535828	146.780000
438.629517	146.520000
438.723175	146.160000
438.816864	146.780000
438.910553	146.280000
439.004211	146.080000
439.097900	145.900000
439.191559	146.120000
439.285248	145.460000
439.378906	145.840000
439.472626	145.600000
439.566284	145.600000
439.659973	145.860000
439.753632	145.740000
439.847321	145.800000
439.940979	146.240000
440.034698	146.220000
440.128326	145.360000
440.222046	145.360000
440.315674	144.580000
440.409393	144.580000
440.503082	144.640000
440.596741	145.300000
440.690430	145.720000
440.784088	146.020000
440.877777	145.020000
440.971466	145.160000
441.065125	145.120000
441.158813	144.760000
441.252502	144.760000
441.346161	145.760000
441.439850	145.940000
441.533539	145.540000
441.627197	145.880000
441.720886	145.780000
441.814606	146.000000
441.908234	146.240000
442.001953	146.220000
442.095612	146.240000
442.189301	146.520000
442.282959	146.520000
442.376678	145.580000
442.470306	146.220000
442.564026	145.920000
442.657684	146.140000
442.751404	145.740000
442.845032	146.900000
442.938751	146.480000
443.032440	146.980000
443.126099	146.480000
443.219788	146.740000
443.313477	146.240000
443.407166	146.360000
443.500824	145.860000
443.594513	146.240000
443.688202	145.920000
443.781891	145.480000
443.875549	145.060000
443.969238	145.380000
444.062927	145.380000
444.156647	145.440000
444.250275	146.160000
444.343994	146.500000
444.437653	146.640000
444.531372	146.580000
444.625031	146.420000
444.718719	145.940000
444.812378	146.020000
444.906097	145.840000
444.999756	145.300000
445.093445	145.280000
445.187103	145.240000
445.280823	145.640000
445.374512	145.020000
445.468201	145.220000
445.561859	145.140000
445.655548	145.040000
445.749237	144.240000
445.842926	144.480000
445.936615	145.180000
446.030304	145.160000
446.123962	145.560000
446.217651	145.720000
446.311340	145.840000
446.405029	145.040000
446.498749	145.100000
446.592407	144.840000
446.686096	145.080000
446.779755	145.220000
446.873474	145.820000
446.967133	146.340000
447.060852	146.380000
447.154510	146.220000
447.248230	146.240000
447.341858	146.060000
447.435577	145.300000
447.529236	144.840000
447.622955	144.860000
447.716644	144.600000
447.810333	144.540000
447.904022	145.020000
447.997711	145.320000
448.091400	145.840000
448.185059	146.000000
448.278748	146.060000
448.372437	145.580000
448.466125	146.000000
448.559814	145.620000
448.653503	146.020000
448.747192	146.400000
448.840912	146.900000
448.934570	146.720000
449.028290	146.840000
449.121948	146.320000
449.215637	145.420000
449.309296	144.780000
449.403015	144.660000
449.496674	144.480000
449.590393	144.800000
449.684052	145.080000
449.777771	145.940000
449.871429	145.520000
449.965149	145.560000
450.058838	145.760000
450.152527	146.080000
450.246216	145.580000
450.339905	146.000000
450.433594	145.820000
450.527283	146.360000
450.620972	146.160000
450.714661	146.220000
450.808350	146.040000
450.902039	146.300000
450.995728	145.580000
451.089417	145.040000
451.183105	144.960000
451.276794	145.520000
451.370514	144.920000
451.464172	144.140000
451.557892	144.340000
451.651550	144.880000
451.745270	144.060000
451.838928	144.040000
451.932648	144.660000
452.026306	145.440000
452.120026	144.680000
452.213684	145.240000
452.307404	145.500000
452.401062	145.640000
452.494781	145.500000
452.588470	145.800000
452.682159	145.260000
452.775848	145.400000
452.869537	144.900000
452.963226	144.420000
453.056915	144.420000
453.150604	144.760000
453.244293	144.980000
453.337982	145.700000
453.431671	146.140000
453.525360	146.560000
453.619049	146.520000
453.712769	146.300000
453.806427	145.800000
453.900146	145.480000
453.993805	145.040000
454.087555	145.560000
454.181213	145.660000
454.274933	145.500000
454.368591	145.460000
454.462311	145.340000
454.555969	144.660000
454.649689	145.160000
454.743347	145.120000
454.837067	145.540000
454.930756	146.240000
455.024445	146.500000
455.118134	146.180000
455.211853	146.600000
455.305542	146.420000
455.399231	146.040000
455.492920	146.180000
455.586609	146.160000
455.680298	146.420000
455.773987	146.240000
455.867676	146.240000
455.961365	146.440000
456.055084	146.420000
456.148773	145.980000
456.242493	146.020000
456.336151	146.120000
456.429871	145.900000
456.523529	145.780000
456.617249	145.660000
456.710907	146.140000
456.804626	145.780000
456.898315	145.580000
456.992035	145.500000
457.085693	145.260000
457.179413	144.600000
457.273102	145.580000
457.366791	145.620000
457.460480	146.020000
457.554199	146.880000
457.647888	147.180000
457.741577	146.460000
457.835266	146.420000
457.928955	146.560000
458.022644	146.520000
458.116364	146.800000
458.210052	146.500000
458.303741	146.580000
458.397461	145.840000
458.491119	145.360000
458.584839	145.180000
458.678528	145.320000
458.772247	145.140000
458.865906	145.260000
458.959625	145.920000
459.053284	145.700000
459.147003	145.480000
459.240692	146.000000
459.334412	146.260000
459.428070	145.740000
459.521790	145.780000
459.615479	146.000000
459.709198	146.260000
459.802887	145.880000
459.896576	145.860000
459.990265	146.020000
460.083954	146.020000
460.177673	145.480000
460.271362	145.520000
460.365051	145.320000
460.458740	145.120000
460.552429	144.920000
460.646149	144.880000
460.739838	144.900000
460.833527	145.200000
460.927246	145.120000
461.020905	145.100000
461.114655	145.200000
461.208313	145.320000
461.302032	144.760000
461.395691	144.960000
461.489441	145.120000
461.583099	144.980000
461.676819	144.940000
461.770477	145.620000
461.864197	145.340000
461.957916	145.140000
462.051605	144.680000
462.145294	145.580000
462.238983	145.020000
462.332703	145.440000
462.426392	145.960000
462.520081	146.260000
462.613770	145.600000
462.707489	146.140000
462.801178	145.600000
462.894867	145.400000
462.988556	145.420000
463.082275	145.320000
463.175964	144.560000
463.269684	145.160000
463.363342	145.040000
463.457092	144.420000
463.550751	144.440000
463.644470	144.720000
463.738129	144.000000
463.831879	144.240000
463.925537	145.300000
464.019257	145.380000
464.112946	145.720000
464.206665	146.200000
464.300323	145.980000
464.394043	145.520000
464.487762	145.320000
464.581451	145.220000
464.675140	145.160000
464.768829	145.100000
464.862549	145.100000
464.956238	145.440000
465.049927	145.580000
465.143646	145.520000
465.237335	145.460000
465.331024	146.000000
465.424713	145.940000
465.518433	145.980000
465.612152	145.980000
465.705811	146.140000
465.799561	145.800000
465.893219	145.580000
465.986938	145.560000
466.080597	145.440000
466.174347	145.760000
466.268005	146.000000
466.361725	146.040000
466.455414	146.000000
466.549133	146.000000
466.642792	146.180000
466.736542	145.500000
466.830231	145.660000
466.923920	145.480000
467.017609	145.780000
467.111328	145.140000
467.205017	145.700000
467.298706	145.480000
467.392426	145.700000
467.486115	145.840000
467.579803	145.500000
467.673523	145.560000
467.767212	145.840000
467.860901	145.700000
467.954651	145.760000
468.048309	146.380000
468.142029	146.160000
468.235718	146.180000
468.329437	146.080000
468.423096	145.840000
468.516846	145.540000
468.610504	145.240000
468.704224	144.760000
468.797913	144.720000
468.891632	144.940000
468.985291	145.040000
469.079010	145.600000
469.172729	145.400000
469.266418	145.840000
469.360107	145.440000
469.453827	145.340000
469.547516	145.100000
469.641205	145.680000
469.734924	145.680000
469.828613	146.300000
469.922302	146.480000
470.016022	146.460000
470.109711	146.160000
470.203430	145.460000
470.297150	144.540000
470.390808	144.720000
470.484558	144.560000
470.578217	145.140000
470.671936	146.060000
470.765625	146.900000
470.859344	146.460000
470.953003	147.020000
471.046753	146.420000
471.140411	145.520000
471.234131	145.500000
471.327820	146.400000
471.421539	146.320000
471.515228	146.300000
471.608948	146.680000
471.702637	145.820000
471.796326	145.100000
471.890045	145.060000
471.983734	145.220000
472.077423	144.860000
472.171143	145.160000
472.264832	144.980000
472.358521	144.700000
472.452240	144.420000
472.545929	145.400000
472.639648	145.960000
472.733337	146.380000
472.827057	146.440000
472.920746	146.500000
473.014465	146.200000
473.108124	146.040000
473.201874	145.860000
473.295532	145.700000
473.389252	145.940000
473.482941	145.860000
473.576660	145.340000
473.670319	145.380000
473.764069	145.780000
473.857727	146.020000
473.951477	146.340000
474.045166	147.140000
474.138855	147.180000
474.232574	146.700000
474.326263	146.620000
474.419952	146.520000
474.513672	146.080000
474.607361	145.960000
474.701050	146.400000
474.794769	146.760000
474.888458	146.960000
474.982178	147.060000
475.075867	147.180000
475.169586	146.860000
475.263275	146.360000
475.356995	146.040000
475.450653	145.760000
475.544403	145.440000
475.638062	146.340000
475.731812	146.140000
475.825470	145.820000
475.919189	146.400000
476.012878	146.800000
476.106598	145.840000
476.200256	146.340000
476.294006	146.520000
476.387695	145.860000
476.481384	145.760000
476.575104	146.040000
476.668793	145.360000
476.762512	144.720000
476.856201	145.520000
476.949890	145.160000
477.043610	144.660000
477.137299	144.860000
477.230988	145.720000
477.324707	145.340000
477.418396	146.140000
477.512146	146.500000
477.605804	146.400000
477.699524	146.260000
477.793213	145.860000
477.886932	145.580000
477.980591	145.360000
478.074341	145.320000
478.167999	144.740000
478.261749	145.020000
478.355408	144.580000
478.449127	145.060000
478.542816	145.980000
478.636536	146.840000
478.730225	147.100000
478.823944	147.700000
478.917633	147.360000
479.011322	147.140000
479.105042	146.880000
479.198730	146.540000
479.292450	146.120000
479.386139	146.320000
479.479828	146.460000
479.573547	146.840000
479.667267	146.900000
479.760925	146.740000
479.854675	147.160000
479.948334	146.800000
480.042084	146.160000
480.135742	146.440000
480.229462	146.160000
480.323151	145.900000
480.416870	145.300000
480.510529	145.380000
480.604279	144.680000
480.697937	145.300000
480.791656	144.860000
480.885345	144.920000
480.979065	144.660000
481.072754	145.380000
481.166473	145.600000
481.260132	145.640000
481.353882	145.860000
481.447540	146.000000
481.541260	145.800000
481.635010	145.560000
481.728668	145.620000
481.822388	145.440000
481.916077	145.760000
482.009796	145.640000
482.103485	145.960000
482.197205	146.260000
482.290863	146.620000
482.384613	146.100000
482.478271	145.680000
482.571991	145.280000
482.665680	144.620000
482.759399	145.140000
482.853058	145.940000
482.946808	146.120000
483.040466	146.000000
483.134216	146.200000
483.227875	145.440000
483.321594	145.500000
483.415283	145.640000
483.509003	145.400000
483.602661	145.500000
483.696411	145.940000
483.790070	145.620000
483.883789	145.680000
483.977478	146.200000
484.071198	146.240000
484.164917	145.700000
484.258606	145.080000
484.352325	145.380000
484.445984	145.360000
484.539734	145.420000
484.633392	145.420000
484.727142	146.360000
484.820801	146.060000
484.914520	146.120000
485.008209	146.220000
485.101929	146.780000
485.195587	146.060000
485.289337	145.940000
485.382996	145.780000
485.476715	145.820000
485.570404	146.100000
485.664124	146.120000
485.757782	146.760000
485.851532	146.500000
485.945190	146.280000
486.038910	146.140000
486.132599	146.660000
486.226318	145.480000
486.319977	145.640000
486.413727	145.880000
486.507446	145.200000
486.601105	144.480000
486.694855	144.720000
486.788513	144.320000
486.882233	144.460000
486.975922	144.480000
487.069641	144.640000
487.163300	144.740000
487.257050	146.220000
487.350708	145.380000
487.444427	145.560000
487.538116	145.540000
487.631836	145.440000
487.725494	144.680000
487.819214	144.920000
487.912903	144.640000
488.006622	145.100000
488.100281	145.640000
488.194031	145.400000
488.287689	146.200000
488.381409	147.060000
488.475098	146.540000
488.568817	146.580000
488.662476	146.400000
488.756226	145.520000
488.849945	144.540000
488.943604	144.780000
489.037354	144.640000
489.131012	144.580000
489.224731	144.740000
489.318390	145.040000
489.412140	145.100000
489.505798	145.120000
489.599518	144.900000
489.693207	145.380000
489.786926	145.320000
489.880585	145.300000
489.974335	145.460000
490.067993	146.780000
490.161713	146.780000
490.255371	147.580000
490.349121	147.520000
490.442780	147.240000
490.536499	146.420000
490.630188	146.120000
490.723907	145.220000
490.817566	145.200000
490.911285	145.320000
491.004974	145.040000
491.098694	144.620000
491.192413	145.760000
491.286102	145.660000
491.379822	145.860000
491.473480	146.280000
491.567200	146.880000
491.660889	145.760000
491.754608	146.000000
491.848267	145.500000
491.941986	145.220000
492.035675	144.980000
492.129395	145.320000
492.223053	145.480000
492.316772	145.960000
492.410461	145.960000
492.504181	146.040000
492.597839	145.720000
492.691559	145.600000
492.785248	145.640000
492.878967	145.920000
492.972626	145.560000
493.066345	145.820000
493.160034	145.260000
493.253754	144.780000
493.347412	144.620000
493.441132	145.300000
493.534882	145.800000
493.628540	146.520000
493.722260	146.800000
493.815918	146.740000
493.909668	146.940000
494.003326	147.080000
494.097046	146.520000
494.190704	146.500000
494.284454	146.640000
494.378113	146.440000
494.471832	146.000000
494.565491	146.200000
494.659210	146.340000
494.752899	146.440000
494.846619	146.100000
494.940277	146.280000
495.033997	146.400000
495.127686	145.900000
495.221405	145.700000
495.315063	145.740000
495.408783	145.580000
495.502441	145.440000
495.596191	145.880000
495.689850	145.600000
495.783569	146.080000
495.877228	146.000000
495.970947	145.840000
496.064697	145.760000
496.158356	146.880000
496.252075	146.260000
496.345734	146.200000
496.439453	147.500000
496.533142	147.500000
496.626862	147.240000
496.720520	147.400000
496.814240	147.620000
496.907898	146.720000
497.001617	146.860000
497.095306	145.800000
497.189026	145.760000
497.282684	145.980000
497.376404	146.340000
497.470062	145.840000
497.563782	146.320000
497.657471	146.540000
497.751190	146.100000
497.844849	145.760000
497.938568	146.160000
498.032227	146.100000
498.125946	146.140000
498.219635	145.840000
498.313354	145.940000
498.407074	146.000000
498.500732	146.160000
498.594452	146.100000
498.688110	146.120000
498.781830	145.860000
498.875519	145.540000
498.969238	145.380000
499.062897	145.020000
499.156616	145.540000
499.250275	145.500000
499.343994	145.160000
499.437653	145.100000
499.531372	145.600000
499.625061	146.040000
499.718781	146.700000
499.812439	147.380000
499.906158	147.220000
499.999817	146.760000
500.093536	146.320000
500.187195	145.940000
500.280914	145.820000
500.374573	146.180000
500.468323	146.420000
500.561981	146.300000
500.655701	145.600000
500.749420	145.760000
500.843079	145.800000
500.936798	145.860000
501.030457	146.220000
501.124176	147.000000
501.217834	146.700000
501.311554	146.440000
501.405212	146.300000
501.498962	145.680000
501.592621	145.280000
501.686340	145.840000
501.779999	146.220000
501.873718	146.460000
501.967377	146.720000
502.061096	146.960000
502.154755	146.320000
502.248474	146.240000
502.342133	146.300000
502.435852	146.360000
502.529510	147.120000
502.623230	147.840000
502.716888	147.360000
502.810608	146.940000
502.904266	147.500000
502.997986	146.560000
503.091705	145.940000
503.185364	146.060000
503.279083	146.500000
503.372772	145.860000
503.466492	145.820000
503.560150	146.160000
503.653870	146.280000
503.747528	146.120000
503.841248	145.840000
503.934906	145.880000
504.028625	145.300000
504.122284	145.740000
504.216003	145.960000
504.309662	146.000000
504.403381	146.300000
504.497040	146.460000
504.590759	145.940000
504.684418	146.300000
504.778137	146.760000
504.871796	147.240000
504.965515	147.340000
505.059174	147.580000
505.152893	146.720000
505.246521	146.300000
505.340240	145.580000
505.433899	145.660000
505.527618	145.680000
505.621338	145.840000
505.714996	145.820000
505.808716	145.860000
505.902374	146.200000
505.996094	146.420000
506.089752	146.360000
506.183472	146.600000
506.277130	146.660000
506.370850	146.280000
506.464508	146.060000
506.558228	146.060000
506.651886	145.900000
506.745605	145.880000
506.839264	145.780000
506.932983	145.520000
507.026611	145.300000
507.120331	145.680000
507.213989	145.460000
507.307709	145.540000
507.401367	146.200000
507.495087	147.260000
507.588745	146.520000
507.682465	147.200000
507.776123	147.300000
507.869843	146.720000
507.963531	146.120000
508.057190	146.780000
508.150909	146.020000
508.244568	146.140000
508.338287	146.100000
508.431946	145.960000
508.525665	145.640000
508.619324	145.480000
508.713013	145.240000
508.806671	145.580000
508.900391	146.380000
508.994049	146.760000
509.087769	146.920000
509.181427	147.220000
509.275146	146.860000
509.368774	145.880000
509.462494	145.800000
509.556152	145.800000
509.649872	146.000000
509.743530	146.200000
509.837250	146.440000
509.930878	146.160000
510.024597	146.260000
510.118256	145.940000
510.211975	145.900000
510.305695	145.680000
510.399353	146.080000
510.493042	146.560000
510.586700	146.660000
510.680420	146.920000
510.774078	147.100000
510.867798	147.100000
510.961426	146.280000
511.055145	146.140000
511.148804	145.800000
511.242523	146.120000
511.336151	146.100000
511.429871	146.820000
511.523529	146.780000
511.617249	146.620000
511.710876	146.180000
511.804596	145.640000
511.898254	145.240000
511.991974	145.680000
512.085632	145.540000
512.179321	145.900000
512.272949	146.440000
512.366699	146.880000
512.460327	146.580000
512.554077	147.780000
512.647766	147.520000
512.741394	147.420000
512.835144	147.800000
512.928772	147.460000
513.022461	147.020000
513.116150	146.660000
513.209839	146.640000
513.303467	145.860000
513.397217	146.040000
513.490845	145.640000
513.584595	145.740000
513.678223	145.240000
513.771912	144.700000
513.865601	144.740000
513.959290	144.500000
514.052917	144.740000
514.146667	145.720000
514.240295	146.640000
514.333984	146.780000
514.427673	146.740000
514.521362	147.300000
514.614990	145.980000
514.708740	145.740000
514.802368	145.880000
514.896057	146.280000
514.989746	146.580000
515.083435	147.240000
515.177124	147.480000
515.270752	147.180000
515.364502	147.260000
515.458130	146.940000
515.551819	146.780000
515.645508	146.580000
515.739197	146.480000
515.832825	146.440000
515.926575	145.980000
516.020203	146.220000
516.113892	146.580000
516.207520	146.680000
516.301270	146.580000
516.394897	146.860000
516.488586	147.120000
516.582275	146.660000
516.675964	146.320000
516.769592	145.820000
516.863281	146.200000
516.956970	146.480000
517.050659	146.580000
517.144287	146.600000
517.238037	147.080000
517.331665	146.360000
517.425354	145.720000
517.519043	145.620000
517.612732	146.400000
517.706421	146.280000
517.800049	146.340000
517.893738	146.280000
517.987427	146.380000
518.081116	145.840000
518.174744	145.960000
518.268433	145.840000
518.362122	146.560000
518.455811	146.500000
518.549438	146.940000
518.643127	147.520000
518.736816	147.380000
518.830505	146.540000
518.924133	146.300000
519.017822	146.200000
519.111511	145.460000
519.205200	145.980000
519.298828	146.340000
519.392517	146.140000
519.486206	146.220000
519.579895	146.340000
519.673523	145.920000
519.767212	145.860000
519.860901	146.640000
519.954590	146.180000
520.048279	145.800000
520.141907	145.920000
520.235596	146.580000
520.329224	146.660000
520.422974	146.880000
520.516602	147.140000
520.610291	147.020000
520.703918	146.780000
520.797607	146.240000
520.891296	146.040000
520.984985	146.460000
521.078613	146.680000
521.172302	146.120000
521.265930	147.240000
521.359680	147.560000
521.453308	147.380000
521.546997	147.640000
521.640625	147.660000
521.734314	146.640000
521.827942	146.700000
521.921692	146.620000
522.015320	146.480000
522.109009	146.460000
522.202698	146.560000
522.296326	146.320000
522.390015	146.540000
522.483704	146.580000
522.577393	146.540000
522.671021	146.340000
522.764709	145.960000
522.858337	146.160000
522.952026	145.840000
523.045654	146.360000
523.139404	147.100000
523.233032	147.500000
523.326721	147.120000
523.420349	147.020000
523.514038	146.680000
523.607666	146.540000
523.701355	145.900000
523.795044	146.040000
523.888733	146.240000
523.982361	146.460000
524.076050	146.100000
524.169678	146.700000
524.263367	146.320000
524.356995	146.040000
524.450684	145.520000
524.544373	145.260000
524.638062	145.360000
524.731750	145.380000
524.825378	145.680000
524.919067	145.380000
525.012695	145.500000
525.106384	145.120000
525.200012	145.460000
525.293701	145.140000
525.387329	145.880000
525.481018	146.440000
525.574646	147.060000
525.668396	146.940000
525.762024	147.400000
525.855713	147.420000
525.949341	146.420000
526.043030	146.160000
526.136658	146.000000
526.230347	145.880000
526.323975	145.520000
526.417664	145.640000
526.511292	145.600000
526.604980	146.000000
526.698608	145.760000
526.792297	145.900000
526.885925	146.560000
526.979614	146.680000
527.073303	146.240000
527.166931	146.200000
527.260620	146.460000
527.354309	146.640000
527.447998	146.600000
527.541626	146.420000
527.635315	146.740000
527.728943	146.900000
527.822632	146.540000
527.916260	146.440000
528.009949	147.020000
528.103577	146.680000
528.197266	145.940000
528.290894	146.180000
528.384583	146.140000
528.478210	145.880000
528.571899	146.320000
528.665527	146.840000
528.759216	146.700000
528.852844	147.120000
528.946533	147.040000
529.040161	146.860000
529.133850	146.620000
529.227478	146.680000
529.321167	146.680000
529.414856	147.360000
529.508484	147.720000
529.602173	147.380000
529.695801	147.180000
529.789490	147.200000
529.883057	146.640000
529.976746	146.720000
530.070374	147.280000
530.164062	147.400000
530.257690	147.240000
530.351379	147.220000
530.445007	147.080000
530.538696	146.540000
530.632324	146.460000
530.726013	146.360000
530.819641	146.840000
530.913330	146.680000
531.006958	146.800000
531.100647	146.860000
531.194275	146.860000
531.287964	146.440000
531.381592	146.180000
531.475220	146.420000
531.568848	146.360000
531.662537	145.980000
531.756226	146.100000
531.849854	146.200000
531.943542	146.360000
532.037170	145.900000
532.130859	146.500000
532.224487	146.280000
532.318176	146.160000
532.411804	146.680000
532.505432	147.120000
532.599060	146.540000
532.692749	146.460000
532.786377	146.800000
532.880066	145.740000
532.973694	145.300000
533.067383	145.660000
533.161011	145.720000
533.254639	145.760000
533.348267	145.700000
533.441956	146.160000
533.535583	145.820000
533.629272	146.100000
533.722900	145.500000
533.816589	145.900000
533.910156	146.240000
534.003845	145.900000
534.097534	146.140000
534.191162	147.000000
534.284851	147.160000
534.378479	146.720000
534.472107	147.220000
534.565735	146.740000
534.659424	146.780000
534.753052	147.020000
534.846741	146.700000
534.940369	147.420000
535.033997	147.500000
535.127625	147.180000
535.221313	147.520000
535.314941	147.860000
535.408630	146.980000
535.502197	147.360000
535.595886	147.080000
535.689514	146.320000
535.783203	146.580000
535.876831	147.140000
535.970459	146.920000
536.064087	146.640000
536.157776	146.500000
536.251404	146.320000
536.345093	146.200000
536.438721	146.160000
536.532349	146.580000
536.626038	146.680000
536.719666	146.880000
536.813293	146.320000
536.906921	146.240000
537.000610	146.740000
537.094238	146.960000
537.187866	146.520000
537.281494	146.720000
537.375183	146.880000
537.468811	146.480000
537.562439	146.480000
537.656067	146.400000
537.749756	146.240000
537.843384	146.500000
537.937012	146.360000
538.030640	146.060000
538.124329	146.400000
538.217896	146.980000
538.311584	146.620000
538.405212	146.580000
538.498901	147.120000
538.592468	147.740000
538.686157	147.140000
538.779785	146.560000
538.873413	146.860000
538.967102	146.140000
539.060730	145.140000
539.154358	145.700000
539.247986	146.380000
539.341675	146.160000
539.435242	146.460000
539.528931	146.840000
539.622559	146.140000
539.716187	146.680000
539.809814	146.640000
539.903503	146.520000
539.997070	146.420000
540.090759	146.800000
540.184387	146.080000
540.278015	146.440000
540.371643	146.640000
540.465332	146.760000
540.558899	146.700000
540.652588	146.740000
540.746216	146.140000
540.839844	146.520000
540.933472	146.560000
541.027100	146.580000
541.120728	146.580000
541.214417	147.120000
541.308044	146.960000
541.401672	146.740000
541.495300	146.700000
541.588928	146.540000
541.682617	146.020000
541.776184	145.660000
541.869873	145.940000
541.963440	146.080000
542.057129	146.420000
542.150757	146.740000
542.244385	146.860000
542.338013	146.500000
542.431641	146.420000
542.525269	146.160000
542.618958	146.520000
542.712524	146.500000
542.806213	146.360000
542.899780	146.800000
542.993469	146.300000
543.087036	146.180000
543.180725	145.560000
543.274292	146.360000
543.367981	146.300000
543.461548	147.200000
543.555237	146.860000
543.648926	147.920000
543.742493	148.040000
543.836182	147.700000
543.929749	147.560000
544.023437	147.440000
544.117004	147.100000
544.210693	147.040000
544.304260	147.240000
544.397949	146.780000
544.491516	147.500000
544.585205	147.380000
544.678772	146.640000
544.772461	146.840000
544.866028	147.160000
544.959717	146.720000
545.053284	146.740000
545.146973	147.360000
545.240540	147.320000
545.334229	147.700000
545.427795	147.860000
545.521423	148.060000
545.615051	147.920000
545.708679	148.320000
545.802307	147.980000
545.895935	148.580000
545.989624	149.140000
546.083191	148.880000
546.176880	148.620000
546.270447	148.360000
546.364136	148.340000
546.457703	147.880000
546.551331	148.160000
546.644958	148.040000
546.738586	148.580000
546.832214	147.840000
546.925842	147.540000
547.019409	147.600000
547.113098	147.020000
547.206665	146.640000
547.300354	146.640000
547.393921	146.820000
547.487549	146.820000
547.581177	146.980000
547.674805	147.020000
547.768433	146.240000
547.862061	146.120000
547.955627	145.480000
548.049316	145.860000
548.142883	145.940000
548.236572	146.740000
548.330139	146.900000
548.423767	146.960000
548.517456	146.520000
548.611023	146.400000
548.704651	145.620000
548.798279	145.420000
548.891907	145.920000
548.985474	145.980000
549.079163	146.140000
549.172729	146.040000
549.266357	145.820000
549.359985	145.680000
549.453613	144.840000
549.547180	144.440000
549.640869	145.400000
549.734436	145.200000
549.828064	145.140000
549.921631	145.820000
550.015320	145.740000
550.108887	145.680000
550.202515	145.940000
550.296143	145.460000
550.389771	145.500000
550.483337	145.760000
550.576965	145.480000
550.670593	145.760000
550.764221	146.280000
550.857849	146.200000
550.951477	145.980000
551.045105	145.720000
551.138672	145.580000
551.232300	144.920000
551.325928	145.320000
551.419556	145.480000
551.513123	145.660000
551.606750	145.440000
551.700378	145.960000
551.794006	145.900000
551.887573	146.040000
551.981201	146.520000
552.074768	146.680000
552.168457	146.420000
552.262024	147.280000
552.355652	147.180000
552.449219	147.560000
552.542847	147.480000
552.636475	147.460000
552.730103	146.300000
552.823669	146.240000
552.917297	145.640000
553.010864	145.720000
553.104553	145.760000
553.198181	145.720000
553.291748	146.100000
553.385376	146.160000
553.478943	145.940000
553.572571	146.380000
553.666199	146.760000
553.759827	146.000000
553.853394	145.340000
553.947021	145.300000
554.040588	145.180000
554.134216	145.160000
554.227783	146.280000
554.321411	147.300000
554.415039	146.880000
554.508667	146.740000
554.602234	146.820000
554.695862	145.820000
554.789429	145.700000
554.883057	146.400000
554.976624	146.480000
555.070251	146.180000
555.163818	146.220000
555.257507	146.000000
555.351074	145.840000
555.444702	146.460000
555.538330	146.300000
555.631897	146.640000
555.725525	146.540000
555.819092	146.380000
555.912720	145.400000
556.006287	146.040000
556.099915	146.020000
556.193481	146.040000
556.287109	146.460000
556.380676	146.540000
556.474304	146.480000
556.567871	146.640000
556.661499	146.180000
556.755066	146.060000
556.848694	146.340000
556.942261	146.160000
557.035889	146.120000
557.129517	146.580000
557.223145	147.120000
557.316711	147.160000
557.410339	147.380000
557.503906	147.060000
557.597473	147.200000
557.691040	147.100000
557.784668	147.140000
557.878296	146.880000
557.971863	147.320000
558.065491	147.180000
558.159058	146.660000
558.252686	147.180000
558.346252	147.640000
558.439880	146.960000
558.533447	146.620000
558.627075	146.420000
558.720642	145.700000
558.814270	145.300000
558.907837	145.660000
559.001465	145.500000
559.095032	146.200000
559.188660	146.360000
559.282227	145.900000
559.375854	146.360000
559.469360	146.420000
559.562988	146.540000
559.656555	146.560000
559.750183	147.240000
559.843750	146.860000
559.937378	147.220000
560.030945	146.980000
560.124573	0.000000
560.218140	0.000000
560.311707	0.000000
560.405334	0.000000
560.498901	0.000000
560.592529	0.000000
560.686096	0.000000
560.779724	0.000000
560.873291	0.000000
560.966858	0.000000
561.060425	0.000000
561.154053	0.000000
561.247620	0.000000
561.341248	0.000000
561.434814	0.000000
561.528381	0.000000
561.621948	0.000000
561.715576	0.000000
561.809143	0.000000
561.902771	0.000000
561.996277	0.000000
562.089905	0.000000
562.183472	0.000000
562.277100	0.000000
