Model Number: SPM-002-B   
Serial Number: 70087108
Firmware Version: 004.15.4
Exposure Time: 100000.000000us
Data Taken on: 11-12-2020 19:30:34.190
Wavelength	Amplitude
221.570786	0.000000
221.663406	0.000000
221.756027	0.000000
221.848648	0.000000
221.941269	0.000000
222.033905	0.000000
222.126526	0.000000
222.219162	0.000000
222.311798	0.000000
222.404419	0.000000
222.497055	0.000000
222.589676	0.000000
222.682312	0.000000
222.774933	0.000000
222.867569	0.000000
222.960205	0.000000
223.052841	0.000000
223.145462	0.000000
223.238098	0.000000
223.330734	0.000000
223.423386	0.000000
223.516022	0.000000
223.608658	0.000000
223.701309	0.000000
223.793945	0.000000
223.886581	0.000000
223.979218	0.000000
224.071869	0.000000
224.164505	0.000000
224.257156	0.000000
224.349792	0.000000
224.442444	0.000000
224.535095	0.000000
224.627747	0.000000
224.720398	0.000000
224.813034	0.000000
224.905685	0.000000
224.998337	145.140000
225.090988	144.880000
225.183640	144.720000
225.276291	144.460000
225.368942	144.900000
225.461594	145.000000
225.554245	145.140000
225.646912	145.180000
225.739578	145.580000
225.832230	146.180000
225.924896	145.500000
226.017548	146.180000
226.110199	146.620000
226.202866	146.220000
226.295532	145.820000
226.388184	145.940000
226.480850	145.040000
226.573517	144.720000
226.666168	144.900000
226.758835	145.060000
226.851501	145.700000
226.944183	146.000000
227.036850	145.800000
227.129517	145.760000
227.222183	145.700000
227.314850	145.520000
227.407516	145.860000
227.500198	146.760000
227.592865	146.460000
227.685532	146.100000
227.778214	145.920000
227.870880	146.000000
227.963562	146.220000
228.056229	146.760000
228.148926	146.860000
228.241592	147.540000
228.334274	147.260000
228.426956	146.640000
228.519638	146.460000
228.612305	146.280000
228.704987	146.020000
228.797668	145.980000
228.890350	145.680000
228.983032	145.220000
229.075714	145.900000
229.168396	145.540000
229.261108	145.500000
229.353790	145.580000
229.446472	145.760000
229.539169	145.220000
229.631851	144.880000
229.724533	144.720000
229.817230	145.220000
229.909912	146.280000
230.002609	146.160000
230.095306	146.320000
230.187988	146.620000
230.280685	145.940000
230.373383	144.580000
230.466095	144.760000
230.558792	145.080000
230.651474	145.120000
230.744171	145.340000
230.836868	145.460000
230.929581	145.520000
231.022278	145.500000
231.114975	145.400000
231.207672	145.200000
231.300369	145.580000
231.393082	145.760000
231.485779	145.520000
231.578506	145.280000
231.671204	145.480000
231.763916	145.240000
231.856613	145.140000
231.949326	145.620000
232.042023	145.660000
232.134735	145.480000
232.227448	145.500000
232.320160	145.720000
232.412872	145.540000
232.505585	146.160000
232.598297	146.680000
232.691010	146.560000
232.783722	146.380000
232.876450	146.680000
232.969162	146.180000
233.061874	145.440000
233.154587	145.320000
233.247314	145.300000
233.340027	144.780000
233.432739	145.040000
233.525467	145.160000
233.618179	145.740000
233.710907	145.460000
233.803635	146.300000
233.896347	146.180000
233.989090	147.000000
234.081818	146.780000
234.174545	147.280000
234.267258	146.360000
234.359985	146.580000
234.452713	146.280000
234.545441	145.960000
234.638168	145.600000
234.730896	146.180000
234.823639	146.080000
234.916367	146.240000
235.009094	146.460000
235.101822	146.500000
235.194580	146.280000
235.287308	146.100000
235.380051	145.400000
235.472778	145.720000
235.565521	146.120000
235.658249	145.600000
235.750992	145.700000
235.843719	145.600000
235.936462	145.700000
236.029205	145.220000
236.121948	144.940000
236.214691	145.220000
236.307449	146.140000
236.400192	145.600000
236.492935	145.460000
236.585678	146.180000
236.678421	145.900000
236.771164	145.440000
236.863907	146.020000
236.956665	146.140000
237.049408	147.320000
237.142151	146.820000
237.234909	147.420000
237.327652	147.220000
237.420410	147.120000
237.513153	146.280000
237.605927	146.580000
237.698669	145.900000
237.791428	145.300000
237.884186	145.800000
237.976944	144.940000
238.069702	145.120000
238.162445	144.880000
238.255203	145.140000
238.347961	145.280000
238.440720	145.640000
238.533478	145.380000
238.626266	145.400000
238.719025	145.840000
238.811783	145.660000
238.904541	145.560000
238.997314	145.520000
239.090073	145.440000
239.182831	145.420000
239.275604	145.900000
239.368362	145.760000
239.461136	146.220000
239.553909	146.100000
239.646667	145.740000
239.739441	144.980000
239.832214	145.420000
239.925003	145.200000
240.017761	145.660000
240.110535	146.240000
240.203308	146.060000
240.296082	146.040000
240.388855	146.100000
240.481628	146.480000
240.574417	146.480000
240.667191	146.760000
240.759964	146.320000
240.852737	146.240000
240.945526	145.880000
241.038315	145.420000
241.131088	145.380000
241.223877	146.000000
241.316650	145.380000
241.409439	145.440000
241.502228	145.240000
241.595001	145.620000
241.687790	144.940000
241.780579	145.280000
241.873367	145.360000
241.966141	145.960000
242.058929	145.440000
242.151718	145.900000
242.244507	146.420000
242.337311	145.740000
242.430099	145.640000
242.522903	146.020000
242.615692	145.540000
242.708481	145.500000
242.801270	146.180000
242.894073	146.260000
242.986862	146.100000
243.079651	146.620000
243.172455	146.200000
243.265244	146.140000
243.358063	145.440000
243.450867	145.860000
243.543655	145.980000
243.636459	146.240000
243.729263	146.580000
243.822067	147.180000
243.914856	147.260000
244.007660	146.960000
244.100464	146.740000
244.193268	145.980000
244.286072	145.580000
244.378876	144.880000
244.471680	144.600000
244.564499	145.080000
244.657318	145.780000
244.750122	146.040000
244.842926	145.460000
244.935745	146.200000
245.028549	145.400000
245.121368	145.000000
245.214172	144.940000
245.306992	145.600000
245.399796	144.920000
245.492615	145.360000
245.585434	145.320000
245.678253	145.260000
245.771072	145.160000
245.863892	145.600000
245.956711	145.740000
246.049530	145.700000
246.142349	145.760000
246.235168	145.960000
246.327988	146.460000
246.420807	146.300000
246.513626	146.420000
246.606445	146.160000
246.699280	146.280000
246.792099	145.560000
246.884918	145.220000
246.977753	144.840000
247.070587	145.200000
247.163422	144.840000
247.256241	144.960000
247.349075	145.440000
247.441895	145.700000
247.534729	145.420000
247.627563	145.320000
247.720383	145.720000
247.813217	145.560000
247.906052	145.520000
247.998886	145.380000
248.091736	145.740000
248.184570	145.420000
248.277405	145.420000
248.370239	146.440000
248.463074	147.540000
248.555908	147.540000
248.648743	147.420000
248.741592	147.760000
248.834427	146.940000
248.927261	145.700000
249.020111	146.000000
249.112946	146.700000
249.205795	146.080000
249.298630	145.980000
249.391495	146.360000
249.484344	146.220000
249.577179	145.900000
249.670029	146.220000
249.762878	146.900000
249.855728	146.900000
249.948563	146.600000
250.041412	146.280000
250.134262	146.460000
250.227112	146.240000
250.319962	146.420000
250.412827	146.580000
250.505692	146.240000
250.598541	146.220000
250.691391	145.680000
250.784241	145.700000
250.877106	145.680000
250.969955	145.680000
251.062805	146.000000
251.155670	146.840000
251.248520	146.580000
251.341385	146.720000
251.434235	146.860000
251.527100	146.300000
251.619965	145.620000
251.712814	146.160000
251.805695	146.260000
251.898560	146.620000
251.991425	146.940000
252.084290	147.560000
252.177155	146.960000
252.270020	146.880000
252.362885	146.620000
252.455750	146.680000
252.548615	145.860000
252.641479	145.940000
252.734360	145.600000
252.827240	145.520000
252.920105	145.580000
253.012970	145.800000
253.105850	145.840000
253.198715	145.800000
253.291595	146.080000
253.384460	145.800000
253.477341	145.860000
253.570221	145.760000
253.663086	145.440000
253.755966	145.720000
253.848846	145.560000
253.941727	145.620000
254.034592	145.640000
254.127472	145.620000
254.220367	145.520000
254.313248	146.040000
254.406128	145.460000
254.499008	145.820000
254.591904	146.520000
254.684784	146.760000
254.777664	146.380000
254.870544	146.400000
254.963440	145.960000
255.056335	146.020000
255.149216	145.740000
255.242111	146.420000
255.334991	146.720000
255.427887	146.920000
255.520767	146.560000
255.613663	146.380000
255.706558	145.620000
255.799438	145.640000
255.892334	145.340000
255.985229	145.420000
256.078125	145.580000
256.171021	145.700000
256.263916	145.800000
256.356812	145.960000
256.449707	146.100000
256.542603	145.660000
256.635498	146.020000
256.728394	145.980000
256.821289	145.700000
256.914215	145.760000
257.007080	146.140000
257.100006	146.000000
257.192932	146.440000
257.285828	147.020000
257.378723	146.620000
257.471619	146.240000
257.564545	145.780000
257.657440	145.640000
257.750336	146.120000
257.843262	146.060000
257.936157	147.080000
258.029053	147.460000
258.121979	147.200000
258.214874	146.360000
258.307800	146.420000
258.400696	145.320000
258.493622	145.360000
258.586517	144.740000
258.679443	145.000000
258.772339	144.780000
258.865265	144.620000
258.958160	144.160000
259.051086	145.020000
259.144012	145.200000
259.236938	146.020000
259.329834	146.740000
259.422791	146.800000
259.515717	146.220000
259.608612	145.780000
259.701538	145.460000
259.794464	145.060000
259.887390	145.020000
259.980316	145.120000
260.073212	144.920000
260.166138	144.120000
260.259064	144.340000
260.351990	144.840000
260.444916	144.800000
260.537842	145.360000
260.630768	146.260000
260.723694	146.180000
260.816620	146.100000
260.909546	146.320000
261.002472	145.740000
261.095398	145.200000
261.188354	145.180000
261.281281	144.760000
261.374207	145.020000
261.467133	145.860000
261.560089	146.080000
261.653015	145.940000
261.745972	146.620000
261.838867	146.640000
261.931824	146.700000
262.024780	146.060000
262.117706	146.200000
262.210663	145.980000
262.303589	145.840000
262.396515	145.680000
262.489471	146.760000
262.582397	146.640000
262.675354	146.300000
262.768280	146.060000
262.861237	146.060000
262.954163	145.800000
263.047119	145.960000
263.140045	146.000000
263.233002	146.060000
263.325958	146.040000
263.418884	145.760000
263.511841	145.780000
263.604797	145.640000
263.697723	145.780000
263.790680	145.500000
263.883636	146.220000
263.976593	146.100000
264.069550	145.940000
264.162476	145.600000
264.255463	145.500000
264.348419	144.800000
264.441376	144.840000
264.534332	144.860000
264.627289	145.200000
264.720245	145.920000
264.813202	145.880000
264.906158	146.240000
264.999115	146.760000
265.092072	146.540000
265.185028	146.660000
265.277985	146.520000
265.370941	146.240000
265.463898	146.000000
265.556854	145.780000
265.649811	144.660000
265.742798	144.860000
265.835754	144.660000
265.928711	144.940000
266.021667	145.060000
266.114655	145.460000
266.207611	145.720000
266.300568	145.220000
266.393585	144.760000
266.486511	144.980000
266.579498	144.280000
266.672485	144.140000
266.765442	144.300000
266.858429	144.620000
266.951385	144.160000
267.044342	144.620000
267.137329	144.720000
267.230316	145.280000
267.323273	145.000000
267.416260	146.120000
267.509216	146.060000
267.602203	145.980000
267.695160	146.300000
267.788147	146.500000
267.881134	145.560000
267.974091	145.800000
268.067078	145.720000
268.160065	145.480000
268.253052	145.220000
268.346008	145.500000
268.438995	145.300000
268.531982	145.560000
268.624969	145.100000
268.717987	145.620000
268.810944	145.240000
268.903961	145.480000
268.996948	144.920000
269.089905	145.320000
269.182892	145.200000
269.275879	145.720000
269.368866	144.960000
269.461853	145.260000
269.554871	145.420000
269.647858	145.200000
269.740845	145.300000
269.833832	146.000000
269.926819	146.020000
270.019806	145.980000
270.112793	145.600000
270.205811	145.500000
270.298798	145.400000
270.391785	145.740000
270.484772	145.360000
270.577789	145.720000
270.670776	145.320000
270.763763	145.240000
270.856750	145.000000
270.949768	144.700000
271.042786	144.660000
271.135773	144.820000
271.228790	145.060000
271.321808	144.760000
271.414795	144.580000
271.507782	144.360000
271.600800	144.060000
271.693817	144.220000
271.786804	144.760000
271.879822	145.440000
271.972809	145.520000
272.065826	146.040000
272.158844	145.540000
272.251831	145.740000
272.344849	145.760000
272.437866	145.500000
272.530853	145.700000
272.623871	145.900000
272.716888	144.940000
272.809906	144.740000
272.902893	144.980000
272.995911	144.400000
273.088928	144.520000
273.181946	144.900000
273.274963	144.660000
273.367981	144.880000
273.460999	144.940000
273.554047	145.100000
273.647003	145.760000
273.740051	146.160000
273.833069	146.400000
273.926086	146.560000
274.019135	146.240000
274.112152	145.700000
274.205170	145.740000
274.298187	145.820000
274.391205	145.460000
274.484222	145.660000
274.577240	145.720000
274.670258	145.300000
274.763306	145.060000
274.856323	145.640000
274.949341	145.560000
275.042358	145.940000
275.135406	146.140000
275.228424	145.880000
275.321442	145.560000
275.414490	145.440000
275.507507	145.560000
275.600525	145.840000
275.693573	145.820000
275.786591	145.720000
275.879669	146.020000
275.972656	145.320000
276.065735	145.380000
276.158752	146.060000
276.251801	147.020000
276.344818	146.740000
276.437866	147.000000
276.530884	146.540000
276.623932	145.720000
276.716980	145.140000
276.809998	145.340000
276.903046	145.640000
276.996094	146.680000
277.089111	147.520000
277.182159	147.880000
277.275208	147.560000
277.368256	147.340000
277.461304	146.500000
277.554321	145.580000
277.647369	145.440000
277.740417	145.540000
277.833466	145.320000
277.926514	145.240000
278.019562	145.960000
278.112610	145.420000
278.205688	145.600000
278.298706	146.140000
278.391785	146.120000
278.484833	145.640000
278.577881	145.460000
278.670929	145.480000
278.763977	145.120000
278.857025	145.400000
278.950073	145.500000
279.043121	145.540000
279.136169	145.580000
279.229248	145.400000
279.322296	145.320000
279.415344	145.160000
279.508392	145.240000
279.601440	144.840000
279.694519	144.640000
279.787567	144.360000
279.880615	143.940000
279.973694	143.840000
280.066742	144.160000
280.159790	144.240000
280.252869	144.120000
280.345917	144.840000
280.438995	145.000000
280.532074	145.220000
280.625122	145.700000
280.718201	146.760000
280.811279	146.620000
280.904327	146.640000
280.997406	146.620000
281.090454	146.700000
281.183533	146.020000
281.276581	146.000000
281.369659	145.620000
281.462738	145.680000
281.555786	145.500000
281.648865	145.720000
281.741943	145.860000
281.835022	146.660000
281.928070	146.260000
282.021149	145.960000
282.114227	145.360000
282.207306	145.200000
282.300385	145.200000
282.393433	145.480000
282.486511	145.700000
282.579590	146.700000
282.672668	146.860000
282.765747	146.360000
282.858856	146.040000
282.951904	145.900000
283.045013	145.560000
283.138062	145.660000
283.231171	146.200000
283.324249	146.420000
283.417328	146.540000
283.510406	146.220000
283.603485	145.880000
283.696564	145.520000
283.789642	145.660000
283.882751	145.560000
283.975830	146.040000
284.068909	146.040000
284.161987	146.460000
284.255066	145.780000
284.348175	146.100000
284.441254	145.740000
284.534332	146.240000
284.627441	145.660000
284.720520	145.760000
284.813599	145.520000
284.906708	145.100000
284.999786	144.300000
285.092896	144.220000
285.185974	145.140000
285.279053	144.480000
285.372192	145.000000
285.465240	146.080000
285.558380	146.300000
285.651459	145.880000
285.744568	147.100000
285.837677	146.660000
285.930756	145.960000
286.023865	145.900000
286.116943	145.440000
286.210052	145.460000
286.303162	145.660000
286.396240	145.660000
286.489349	145.500000
286.582458	146.120000
286.675568	145.440000
286.768646	145.580000
286.861755	146.060000
286.954865	146.860000
287.047974	146.260000
287.141083	146.240000
287.234161	145.820000
287.327271	145.660000
287.420380	145.920000
287.513519	145.900000
287.606598	146.200000
287.699738	146.680000
287.792816	146.240000
287.885956	145.620000
287.979034	145.520000
288.072174	145.320000
288.165283	145.020000
288.258392	145.520000
288.351501	144.920000
288.444611	145.560000
288.537720	145.920000
288.630859	146.040000
288.723969	146.060000
288.817078	146.740000
288.910187	146.520000
289.003296	145.720000
289.096436	145.720000
289.189545	145.460000
289.282654	145.000000
289.375763	145.540000
289.468903	146.480000
289.562012	146.560000
289.655121	146.720000
289.748260	146.600000
289.841400	146.320000
289.934509	145.900000
290.027649	146.040000
290.120728	145.820000
290.213898	146.000000
290.306976	145.800000
290.400146	145.540000
290.493256	145.260000
290.586395	145.320000
290.679535	145.700000
290.772644	145.560000
290.865784	145.140000
290.958893	144.820000
291.052032	145.040000
291.145172	144.580000
291.238281	144.460000
291.331421	144.760000
291.424561	145.480000
291.517670	144.920000
291.610809	145.500000
291.703949	145.220000
291.797089	145.720000
291.890228	145.280000
291.983337	145.280000
292.076477	144.760000
292.169617	145.520000
292.262756	145.340000
292.355927	145.360000
292.449036	145.300000
292.542206	145.460000
292.635315	145.380000
292.728485	145.600000
292.821625	145.240000
292.914764	146.300000
293.007904	146.420000
293.101044	146.100000
293.194183	146.000000
293.287323	146.340000
293.380463	145.400000
293.473602	145.020000
293.566742	145.320000
293.659882	145.580000
293.753021	145.660000
293.846191	145.580000
293.939331	145.520000
294.032471	145.480000
294.125610	144.940000
294.218781	145.480000
294.311920	145.880000
294.405060	145.960000
294.498230	145.780000
294.591370	145.900000
294.684540	145.120000
294.777679	144.780000
294.870850	145.320000
294.963959	145.260000
295.057159	144.900000
295.150299	145.500000
295.243469	145.400000
295.336609	144.760000
295.429779	144.940000
295.522919	145.460000
295.616089	145.220000
295.709229	146.200000
295.802399	146.240000
295.895569	146.000000
295.988708	145.860000
296.081879	145.900000
296.175018	145.380000
296.268188	145.760000
296.361359	146.040000
296.454529	145.940000
296.547668	145.660000
296.640839	145.940000
296.734009	145.760000
296.827179	145.660000
296.920319	145.760000
297.013519	145.900000
297.106659	145.840000
297.199860	145.740000
297.292999	145.820000
297.386200	145.960000
297.479309	145.640000
297.572510	145.520000
297.665680	145.520000
297.758850	145.320000
297.852020	145.300000
297.945190	145.240000
298.038361	144.680000
298.131531	145.700000
298.224701	145.520000
298.317871	144.980000
298.411072	144.920000
298.504242	145.140000
298.597412	144.120000
298.690582	144.400000
298.783752	144.580000
298.876923	144.980000
298.970093	145.040000
299.063293	145.500000
299.156464	145.720000
299.249634	145.820000
299.342834	145.960000
299.436005	146.260000
299.529205	146.000000
299.622345	146.040000
299.715576	145.700000
299.808716	145.260000
299.901917	145.260000
299.995117	145.460000
300.088287	145.400000
300.181488	145.620000
300.274658	145.640000
300.367828	145.480000
300.461029	145.280000
300.554199	145.460000
300.647400	145.340000
300.740601	145.840000
300.833771	145.580000
300.926971	145.980000
301.020142	145.520000
301.113342	145.700000
301.206512	145.280000
301.299713	145.760000
301.392914	145.460000
301.486084	145.680000
301.579285	145.660000
301.672516	146.320000
301.765686	145.820000
301.858887	145.700000
301.952057	145.620000
302.045288	145.700000
302.138458	145.520000
302.231659	145.560000
302.324860	145.420000
302.418060	145.260000
302.511261	145.000000
302.604462	145.080000
302.697662	144.980000
302.790863	145.040000
302.884064	144.820000
302.977264	145.100000
303.070465	145.100000
303.163666	145.840000
303.256866	146.420000
303.350067	146.600000
303.443268	146.760000
303.536469	146.540000
303.629669	146.040000
303.722870	145.740000
303.816071	145.660000
303.909271	145.400000
304.002472	145.000000
304.095673	144.840000
304.188934	144.100000
304.282104	145.000000
304.375336	145.180000
304.468506	145.360000
304.561768	145.220000
304.654968	145.840000
304.748169	145.160000
304.841370	144.760000
304.934601	144.800000
305.027802	144.860000
305.121002	144.680000
305.214233	144.880000
305.307434	145.100000
305.400665	145.640000
305.493866	145.540000
305.587097	146.020000
305.680298	145.740000
305.773499	146.440000
305.866730	146.040000
305.959930	146.680000
306.053162	146.580000
306.146393	146.120000
306.239594	145.100000
306.332825	145.260000
306.426025	145.460000
306.519287	144.820000
306.612488	145.400000
306.705719	145.480000
306.798920	145.320000
306.892181	144.460000
306.985352	144.380000
307.078613	143.760000
307.171844	144.280000
307.265045	143.980000
307.358276	143.920000
307.451508	144.620000
307.544739	145.340000
307.637970	144.940000
307.731201	145.120000
307.824402	145.480000
307.917633	145.660000
308.010864	145.840000
308.104095	146.340000
308.197327	146.180000
308.290558	146.460000
308.383789	145.880000
308.477020	145.420000
308.570251	144.700000
308.663483	144.700000
308.756714	144.500000
308.849976	144.640000
308.943176	144.980000
309.036438	145.080000
309.129639	144.900000
309.222900	144.800000
309.316101	144.460000
309.409393	144.100000
309.502625	143.920000
309.595856	144.460000
309.689087	144.620000
309.782318	145.000000
309.875580	145.100000
309.968811	145.380000
310.062042	144.900000
310.155273	144.960000
310.248535	145.400000
310.341766	145.240000
310.434998	145.100000
310.528259	144.900000
310.621490	145.000000
310.714722	144.320000
310.807983	144.540000
310.901215	144.460000
310.994476	144.980000
311.087708	144.720000
311.181000	144.840000
311.274200	144.680000
311.367462	145.180000
311.460693	144.720000
311.553986	145.480000
311.647186	146.000000
311.740479	146.580000
311.833710	146.240000
311.926971	146.620000
312.020203	145.680000
312.113464	145.340000
312.206726	144.880000
312.299957	145.080000
312.393219	145.500000
312.486481	145.720000
312.579712	145.580000
312.672974	145.600000
312.766235	145.480000
312.859497	145.280000
312.952759	145.360000
313.045990	146.080000
313.139252	145.460000
313.232513	145.480000
313.325775	145.400000
313.419037	145.180000
313.512299	144.380000
313.605530	145.160000
313.698822	145.700000
313.792053	145.440000
313.885345	145.140000
313.978577	145.420000
314.071869	144.660000
314.165131	144.560000
314.258392	144.960000
314.351654	145.320000
314.444916	144.820000
314.538177	145.880000
314.631439	146.140000
314.724701	146.140000
314.817993	145.940000
314.911255	145.980000
315.004517	145.200000
315.097778	145.060000
315.191040	145.300000
315.284302	145.680000
315.377594	145.820000
315.470856	145.960000
315.564117	145.440000
315.657379	145.020000
315.750671	144.560000
315.843933	145.040000
315.937195	144.860000
316.030518	144.480000
316.123749	144.520000
316.217041	145.400000
316.310303	145.100000
316.403595	145.540000
316.496857	146.000000
316.590149	146.020000
316.683411	145.320000
316.776703	145.000000
316.869965	144.840000
316.963257	144.500000
317.056519	143.720000
317.149811	143.520000
317.243073	143.860000
317.336365	143.980000
317.429626	144.300000
317.522919	145.220000
317.616180	145.320000
317.709473	144.900000
317.802765	144.700000
317.896027	144.860000
317.989319	145.080000
318.082611	145.120000
318.175873	145.120000
318.269165	145.300000
318.362488	145.280000
318.455750	144.800000
318.549042	145.220000
318.642303	145.740000
318.735626	145.320000
318.828888	145.340000
318.922211	145.100000
319.015472	145.600000
319.108765	144.920000
319.202057	145.060000
319.295349	145.100000
319.388641	145.340000
319.481934	144.820000
319.575226	145.120000
319.668518	145.380000
319.761810	145.280000
319.855103	145.240000
319.948395	145.200000
320.041687	145.460000
320.134979	145.460000
320.228271	145.120000
320.321564	145.220000
320.414856	145.220000
320.508148	144.560000
320.601440	144.460000
320.694763	144.700000
320.788025	145.120000
320.881348	145.140000
320.974640	145.700000
321.067963	145.280000
321.161224	145.500000
321.254547	144.980000
321.347839	145.360000
321.441162	145.040000
321.534454	145.480000
321.627747	145.260000
321.721069	145.780000
321.814362	145.680000
321.907654	145.940000
322.000946	145.980000
322.094269	146.420000
322.187561	146.040000
322.280884	146.120000
322.374176	145.860000
322.467468	146.160000
322.560791	145.900000
322.654083	146.140000
322.747406	145.880000
322.840698	146.460000
322.934021	146.620000
323.027344	147.040000
323.120636	146.740000
323.213959	146.860000
323.307251	146.240000
323.400574	145.720000
323.493866	144.820000
323.587219	145.140000
323.680511	145.140000
323.773834	145.420000
323.867157	145.440000
323.960449	145.660000
324.053772	145.480000
324.147095	145.160000
324.240387	145.660000
324.333710	145.740000
324.427032	145.940000
324.520355	145.820000
324.613647	145.760000
324.706970	145.280000
324.800293	145.000000
324.893616	144.860000
324.986938	145.280000
325.080231	145.460000
325.173553	145.800000
325.266876	146.420000
325.360199	146.360000
325.453522	145.780000
325.546875	145.460000
325.640167	145.600000
325.733521	145.800000
325.826813	146.200000
325.920166	146.040000
326.013489	145.980000
326.106812	145.160000
326.200134	144.500000
326.293457	144.020000
326.386780	144.220000
326.480103	144.320000
326.573425	144.340000
326.666748	144.500000
326.760071	144.920000
326.853424	145.020000
326.946747	145.000000
327.040070	146.300000
327.133392	146.000000
327.226715	145.560000
327.320068	145.360000
327.413391	146.240000
327.506714	144.680000
327.600037	145.020000
327.693390	144.960000
327.786713	145.100000
327.880066	144.520000
327.973358	145.240000
328.066742	145.460000
328.160034	145.820000
328.253418	146.200000
328.346710	145.680000
328.440063	145.240000
328.533417	144.840000
328.626740	145.140000
328.720093	144.660000
328.813416	145.060000
328.906769	145.300000
329.000092	145.740000
329.093445	145.400000
329.186768	145.320000
329.280121	145.480000
329.373444	145.820000
329.466797	145.480000
329.560120	145.660000
329.653473	146.220000
329.746796	145.700000
329.840149	145.420000
329.933502	145.140000
330.026825	145.020000
330.120178	144.680000
330.213562	145.040000
330.306854	145.020000
330.400238	145.500000
330.493561	145.240000
330.586945	145.660000
330.680237	146.080000
330.773621	146.200000
330.866974	146.240000
330.960327	146.700000
331.053680	146.140000
331.147003	145.960000
331.240356	145.960000
331.333710	145.940000
331.427063	145.480000
331.520416	145.620000
331.613770	145.180000
331.707123	145.080000
331.800476	144.960000
331.893829	145.940000
331.987152	145.940000
332.080505	146.080000
332.173859	146.220000
332.267212	145.720000
332.360565	145.000000
332.453918	145.020000
332.547333	145.060000
332.640656	145.080000
332.734039	145.040000
332.827362	145.000000
332.920746	145.120000
333.014069	145.400000
333.107452	145.700000
333.200806	146.160000
333.294159	146.440000
333.387543	145.800000
333.480896	145.300000
333.574249	144.880000
333.667603	144.560000
333.760956	144.480000
333.854340	144.820000
333.947693	145.100000
334.041046	144.880000
334.134430	145.340000
334.227783	144.900000
334.321136	144.920000
334.414520	144.420000
334.507874	144.820000
334.601227	144.560000
334.694611	144.660000
334.787964	144.560000
334.881348	145.120000
334.974701	145.000000
335.068085	144.860000
335.161438	145.020000
335.254822	145.180000
335.348175	145.220000
335.441559	145.180000
335.534943	146.040000
335.628296	145.980000
335.721680	146.000000
335.815033	145.880000
335.908417	145.920000
336.001770	145.480000
336.095154	145.040000
336.188538	144.640000
336.281891	144.500000
336.375275	144.120000
336.468658	143.720000
336.562012	144.300000
336.655396	144.820000
336.748779	145.200000
336.842133	145.520000
336.935516	145.920000
337.028900	145.660000
337.122284	145.300000
337.215637	145.320000
337.309021	145.200000
337.402435	144.820000
337.495789	145.000000
337.589203	145.120000
337.682526	144.900000
337.775940	145.320000
337.869324	145.720000
337.962708	145.360000
338.056091	145.980000
338.149475	145.540000
338.242859	145.320000
338.336243	144.780000
338.429626	145.200000
338.523010	144.840000
338.616394	145.280000
338.709778	145.440000
338.803162	145.940000
338.896545	146.060000
338.989929	145.600000
339.083313	145.620000
339.176697	145.180000
339.270081	144.840000
339.363464	145.080000
339.456848	145.700000
339.550232	145.300000
339.643616	145.340000
339.737030	145.480000
339.830383	144.900000
339.923828	144.640000
340.017181	144.980000
340.110596	145.240000
340.203949	145.280000
340.297363	145.040000
340.390778	145.260000
340.484161	145.300000
340.577545	145.260000
340.670959	145.480000
340.764343	145.660000
340.857727	145.440000
340.951111	144.740000
341.044525	144.480000
341.137909	143.860000
341.231293	143.900000
341.324707	143.420000
341.418091	144.420000
341.511505	144.400000
341.604889	144.940000
341.698303	145.100000
341.791687	145.400000
341.885071	144.580000
341.978485	144.580000
342.071899	144.400000
342.165283	144.640000
342.258698	144.800000
342.352081	145.420000
342.445496	145.920000
342.538879	145.600000
342.632324	145.120000
342.725708	145.080000
342.819122	144.540000
342.912506	144.280000
343.005920	144.560000
343.099335	145.440000
343.192719	145.380000
343.286133	145.560000
343.379547	145.840000
343.472931	145.920000
343.566345	144.740000
343.659760	144.920000
343.753143	144.640000
343.846558	144.320000
343.939972	144.040000
344.033386	145.160000
344.126770	144.940000
344.220184	145.600000
344.313599	145.960000
344.407043	146.300000
344.500427	145.500000
344.593872	145.860000
344.687225	145.180000
344.780670	144.640000
344.874054	144.200000
344.967499	144.880000
345.060913	145.100000
345.154327	145.200000
345.247742	145.260000
345.341156	145.340000
345.434570	144.800000
345.527985	144.520000
345.621399	144.720000
345.714813	144.660000
345.808228	145.060000
345.901642	144.620000
345.995056	144.120000
346.088470	144.360000
346.181885	144.640000
346.275299	144.420000
346.368713	144.720000
346.462128	144.700000
346.555573	144.540000
346.648987	144.760000
346.742401	144.760000
346.835815	145.300000
346.929260	145.360000
347.022644	145.560000
347.116119	145.500000
347.209503	145.800000
347.302948	146.380000
347.396362	147.080000
347.489807	147.000000
347.583221	147.080000
347.676636	146.520000
347.770050	145.260000
347.863495	144.640000
347.956909	144.580000
348.050323	144.300000
348.143768	144.460000
348.237183	144.340000
348.330597	144.800000
348.424042	145.320000
348.517456	145.760000
348.610901	145.880000
348.704315	146.060000
348.797760	145.480000
348.891174	144.600000
348.984619	143.720000
349.078033	143.980000
349.171448	144.480000
349.264923	144.640000
349.358337	144.500000
349.451782	144.840000
349.545197	144.360000
349.638641	143.660000
349.732086	143.300000
349.825500	143.960000
349.918945	143.920000
350.012390	144.500000
350.105804	145.120000
350.199249	145.340000
350.292664	145.580000
350.386108	145.640000
350.479553	145.980000
350.572968	145.980000
350.666412	146.260000
350.759857	145.740000
350.853302	146.060000
350.946716	145.100000
351.040161	144.920000
351.133606	144.920000
351.227081	144.900000
351.320465	145.520000
351.413940	145.940000
351.507355	146.160000
351.600830	146.060000
351.694244	145.960000
351.787720	145.600000
351.881104	145.680000
351.974579	145.400000
352.067993	146.280000
352.161469	146.360000
352.254883	145.740000
352.348358	145.580000
352.441803	145.780000
352.535248	145.020000
352.628693	145.500000
352.722137	145.300000
352.815582	145.360000
352.909027	145.440000
353.002472	145.300000
353.095917	145.100000
353.189362	145.620000
353.282806	145.660000
353.376251	145.420000
353.469696	144.940000
353.563141	145.240000
353.656586	144.720000
353.750061	144.200000
353.843475	144.140000
353.936981	145.080000
354.030396	144.600000
354.123871	144.640000
354.217285	145.760000
354.310760	146.000000
354.404175	145.580000
354.497681	145.300000
354.591095	145.520000
354.684570	144.440000
354.777985	144.020000
354.871490	144.160000
354.964935	144.820000
355.058380	144.800000
355.151855	144.900000
355.245300	145.620000
355.338745	145.640000
355.432220	145.520000
355.525665	145.140000
355.619110	145.480000
355.712585	144.960000
355.806030	144.860000
355.899475	144.460000
355.992950	145.220000
356.086426	145.440000
356.179871	145.640000
356.273346	145.660000
356.366791	145.680000
356.460266	145.820000
356.553711	145.440000
356.647186	145.380000
356.740631	145.260000
356.834106	144.960000
356.927551	144.940000
357.021027	144.920000
357.114471	145.080000
357.207947	145.240000
357.301422	145.900000
357.394867	145.680000
357.488342	146.080000
357.581818	146.040000
357.675262	146.300000
357.768738	146.040000
357.862213	145.300000
357.955658	145.160000
358.049133	144.700000
358.142609	144.660000
358.236053	144.480000
358.329529	144.800000
358.423035	145.060000
358.516449	145.060000
358.609955	145.200000
358.703400	146.040000
358.796906	146.460000
358.890350	146.000000
358.983826	146.420000
359.077271	145.860000
359.170776	145.460000
359.264221	145.040000
359.357727	145.080000
359.451172	145.320000
359.544647	145.400000
359.638123	144.780000
359.731598	145.120000
359.825073	145.380000
359.918549	145.000000
360.012024	145.280000
360.105499	145.420000
360.198975	145.460000
360.292450	145.380000
360.385925	145.440000
360.479401	145.180000
360.572876	145.680000
360.666351	145.660000
360.759857	145.540000
360.853302	145.640000
360.946808	145.200000
361.040253	144.740000
361.133759	144.400000
361.227203	144.680000
361.320709	144.460000
361.414154	145.200000
361.507660	145.700000
361.601105	146.240000
361.694641	146.600000
361.788086	146.520000
361.881592	146.840000
361.975067	146.380000
362.068542	146.720000
362.162018	146.300000
362.255524	146.160000
362.348999	145.820000
362.442474	146.180000
362.535950	145.340000
362.629456	145.100000
362.722931	145.060000
362.816406	145.500000
362.909882	145.640000
363.003387	145.500000
363.096863	145.560000
363.190338	145.500000
363.283875	144.820000
363.377319	144.400000
363.470825	145.200000
363.564301	144.840000
363.657806	145.120000
363.751282	144.920000
363.844788	145.660000
363.938232	144.940000
364.031769	145.700000
364.125214	145.920000
364.218750	146.760000
364.312225	145.780000
364.405731	146.120000
364.499207	145.680000
364.592712	145.400000
364.686188	144.840000
364.779694	145.260000
364.873169	145.160000
364.966675	145.360000
365.060150	145.620000
365.153656	146.160000
365.247131	146.260000
365.340637	146.800000
365.434143	146.980000
365.527618	146.920000
365.621155	145.920000
365.714600	145.740000
365.808136	145.500000
365.901611	144.780000
365.995117	144.740000
366.088593	145.200000
366.182129	145.000000
366.275604	144.800000
366.369110	144.960000
366.462585	144.560000
366.556122	144.940000
366.649567	145.040000
366.743103	144.820000
366.836609	144.800000
366.930115	145.380000
367.023590	145.160000
367.117096	145.100000
367.210602	145.380000
367.304108	146.220000
367.397614	146.680000
367.491119	146.900000
367.584595	147.040000
367.678101	147.240000
367.771606	146.500000
367.865112	145.780000
367.958649	145.040000
368.052124	145.080000
368.145660	144.820000
368.239136	145.300000
368.332672	145.800000
368.426147	146.180000
368.519684	146.000000
368.613159	146.360000
368.706696	145.900000
368.800171	145.560000
368.893707	145.740000
368.987183	145.600000
369.080719	145.680000
369.174225	145.620000
369.267731	145.820000
369.361237	145.580000
369.454742	145.700000
369.548248	145.840000
369.641754	145.760000
369.735260	145.260000
369.828766	144.680000
369.922272	145.420000
370.015808	144.860000
370.109314	144.800000
370.202820	144.800000
370.296356	146.000000
370.389832	145.400000
370.483368	145.140000
370.576874	145.020000
370.670410	145.500000
370.763885	144.720000
370.857422	144.560000
370.950928	144.540000
371.044464	145.600000
371.137939	145.580000
371.231476	145.740000
371.324982	146.700000
371.418518	146.960000
371.512024	146.240000
371.605560	146.040000
371.699066	146.260000
371.792572	145.280000
371.886108	145.620000
371.979614	145.740000
372.073120	145.960000
372.166656	145.520000
372.260162	145.820000
372.353668	145.500000
372.447205	145.360000
372.540710	144.900000
372.634277	145.020000
372.727753	145.240000
372.821320	145.260000
372.914795	145.400000
373.008362	145.460000
373.101837	145.480000
373.195404	145.140000
373.288879	145.060000
373.382446	145.460000
373.475922	145.540000
373.569489	146.320000
373.662964	146.600000
373.756531	146.360000
373.850037	146.240000
373.943573	146.080000
374.037109	144.720000
374.130615	145.060000
374.224152	145.580000
374.317657	145.180000
374.411194	146.100000
374.504730	146.400000
374.598236	145.920000
374.691772	145.420000
374.785309	145.560000
374.878815	144.540000
374.972351	145.100000
375.065887	144.760000
375.159454	145.520000
375.252930	145.120000
375.346497	145.520000
375.440002	145.780000
375.533569	146.020000
375.627045	145.080000
375.720612	145.360000
375.814117	145.620000
375.907684	145.020000
376.001160	144.940000
376.094727	144.860000
376.188232	145.320000
376.281799	145.400000
376.375336	145.260000
376.468872	145.880000
376.562408	146.220000
376.655914	145.620000
376.749451	145.160000
376.842987	145.740000
376.936523	145.380000
377.030060	145.420000
377.123596	145.860000
377.217133	145.880000
377.310669	145.620000
377.404205	146.000000
377.497772	146.500000
377.591278	146.120000
377.684845	146.720000
377.778351	147.260000
377.871918	146.780000
377.965424	145.960000
378.058990	145.840000
378.152496	145.360000
378.246063	145.340000
378.339569	145.720000
378.433136	145.880000
378.526642	146.320000
378.620209	146.200000
378.713745	145.300000
378.807312	145.300000
378.900848	145.260000
378.994385	145.540000
379.087921	144.840000
379.181458	145.280000
379.274994	144.420000
379.368530	144.580000
379.462097	144.540000
379.555634	145.640000
379.649170	145.080000
379.742706	145.460000
379.836273	145.880000
379.929810	145.360000
380.023376	144.780000
380.116882	145.080000
380.210449	145.100000
380.303986	144.380000
380.397552	144.140000
380.491058	144.200000
380.584656	144.180000
380.678162	144.320000
380.771729	144.620000
380.865265	145.440000
380.958832	145.700000
381.052368	145.980000
381.145935	146.100000
381.239471	146.700000
381.333008	146.480000
381.426575	146.420000
381.520111	146.660000
381.613647	146.960000
381.707214	146.200000
381.800751	145.580000
381.894318	145.740000
381.987854	145.140000
382.081421	144.740000
382.174988	145.160000
382.268524	145.120000
382.362091	144.960000
382.455627	145.760000
382.549194	145.520000
382.642731	144.820000
382.736298	144.820000
382.829834	144.680000
382.923401	144.820000
383.016937	145.200000
383.110504	145.940000
383.204041	146.340000
383.297607	146.720000
383.391174	145.880000
383.484741	146.500000
383.578278	145.900000
383.671844	145.540000
383.765411	144.800000
383.858948	145.300000
383.952515	144.840000
384.046051	145.620000
384.139618	146.100000
384.233185	146.720000
384.326721	146.340000
384.420288	146.620000
384.513855	146.160000
384.607422	146.160000
384.700989	146.400000
384.794525	146.360000
384.888123	146.420000
384.981659	146.620000
385.075226	146.300000
385.168762	145.620000
385.262360	145.580000
385.355896	144.440000
385.449463	144.100000
385.542999	144.140000
385.636597	144.960000
385.730164	145.200000
385.823730	145.440000
385.917267	145.120000
386.010834	145.260000
386.104401	144.840000
386.197968	145.220000
386.291534	145.360000
386.385101	145.800000
386.478668	146.280000
386.572235	146.160000
386.665802	145.500000
386.759338	145.440000
386.852905	145.000000
386.946472	144.200000
387.040070	144.580000
387.133606	144.820000
387.227203	144.660000
387.320740	145.260000
387.414337	145.200000
387.507874	144.800000
387.601471	144.700000
387.695007	144.620000
387.788605	144.440000
387.882141	144.820000
387.975739	144.820000
388.069275	144.620000
388.162872	144.920000
388.256439	144.900000
388.350037	144.740000
388.443604	144.740000
388.537170	144.880000
388.630737	145.300000
388.724304	145.340000
388.817871	145.120000
388.911438	145.240000
389.005005	145.600000
389.098602	145.880000
389.192169	145.640000
389.285736	146.280000
389.379333	145.860000
389.472870	145.240000
389.566467	144.540000
389.660034	144.640000
389.753632	144.020000
389.847168	144.460000
389.940765	144.960000
390.034332	145.520000
390.127930	145.140000
390.221466	145.040000
390.315063	145.000000
390.408630	144.140000
390.502228	143.280000
390.595795	143.740000
390.689362	143.920000
390.782959	144.000000
390.876526	144.700000
390.970093	144.600000
391.063690	144.820000
391.157257	144.860000
391.250824	145.200000
391.344421	144.960000
391.437988	145.340000
391.531555	145.600000
391.625153	146.120000
391.718750	145.980000
391.812317	146.100000
391.905914	145.880000
391.999481	145.460000
392.093079	145.120000
392.186615	145.360000
392.280243	145.260000
392.373779	145.500000
392.467407	145.740000
392.560944	145.660000
392.654572	145.060000
392.748108	145.180000
392.841736	145.480000
392.935303	145.300000
393.028900	145.440000
393.122467	145.480000
393.216064	145.100000
393.309631	144.320000
393.403229	144.160000
393.496796	143.740000
393.590393	143.280000
393.683990	143.800000
393.777557	144.660000
393.871155	144.820000
393.964722	145.520000
394.058350	145.800000
394.151917	145.740000
394.245514	145.300000
394.339081	145.500000
394.432678	145.460000
394.526245	145.620000
394.619873	145.340000
394.713409	145.320000
394.807037	145.220000
394.900604	145.120000
394.994202	145.160000
395.087769	145.460000
395.181396	145.300000
395.274994	145.660000
395.368561	145.080000
395.462158	145.240000
395.555756	145.160000
395.649353	145.580000
395.742920	145.300000
395.836517	145.740000
395.930115	145.080000
396.023712	145.280000
396.117279	145.540000
396.210876	144.900000
396.304474	144.760000
396.398071	145.280000
396.491669	145.340000
396.585266	144.900000
396.678833	145.100000
396.772461	145.800000
396.866028	145.620000
396.959656	146.000000
397.053223	146.360000
397.146851	146.800000
397.240417	147.000000
397.334015	148.640000
397.427582	149.160000
397.521210	150.800000
397.614807	153.300000
397.708405	155.960000
397.802002	159.140000
397.895599	164.240000
397.989197	170.200000
398.082794	177.420000
398.176392	186.860000
398.269989	197.300000
398.363586	209.860000
398.457184	224.280000
398.550781	240.960000
398.644379	257.260000
398.737976	275.220000
398.831573	293.280000
398.925201	311.660000
399.018768	331.360000
399.112396	353.560000
399.205963	377.540000
399.299591	403.660000
399.393158	431.940000
399.486786	460.600000
399.580353	488.620000
399.673981	513.840000
399.767578	535.920000
399.861206	552.460000
399.954773	562.360000
400.048401	563.140000
400.141998	557.420000
400.235596	545.780000
400.329193	529.600000
400.422791	510.720000
400.516418	493.060000
400.610016	475.800000
400.703613	456.780000
400.797211	435.440000
400.890808	412.940000
400.984436	388.920000
401.078033	363.100000
401.171631	337.500000
401.265259	313.700000
401.358826	291.460000
401.452484	270.180000
401.546051	250.780000
401.639679	233.040000
401.733246	217.640000
401.826904	203.060000
401.920471	190.640000
402.014099	180.640000
402.107697	172.700000
402.201324	166.020000
402.294891	161.200000
402.388550	157.420000
402.482147	154.380000
402.575745	151.840000
402.669373	149.720000
402.762970	148.160000
402.856567	147.320000
402.950195	146.600000
403.043793	146.600000
403.137390	147.420000
403.231018	146.880000
403.324615	147.420000
403.418243	146.960000
403.511841	147.000000
403.605469	146.320000
403.699066	146.900000
403.792694	146.240000
403.886292	146.440000
403.979919	145.940000
404.073517	145.960000
404.167145	146.040000
404.260712	146.160000
404.354370	146.060000
404.447937	146.300000
404.541595	146.280000
404.635162	146.120000
404.728821	146.840000
404.822418	146.500000
404.916046	146.280000
405.009644	146.560000
405.103271	147.000000
405.196899	146.020000
405.290497	146.580000
405.384125	146.840000
405.477722	145.980000
405.571350	145.240000
405.664948	145.460000
405.758575	145.120000
405.852203	144.660000
405.945801	145.000000
406.039429	145.260000
406.133057	145.060000
406.226654	145.000000
406.320312	145.160000
406.413879	145.440000
406.507538	145.460000
406.601135	145.200000
406.694763	145.640000
406.788361	145.500000
406.882019	145.220000
406.975586	145.500000
407.069244	146.200000
407.162872	145.940000
407.256470	145.880000
407.350098	146.020000
407.443726	145.460000
407.537323	145.000000
407.630951	145.400000
407.724579	145.300000
407.818207	145.580000
407.911804	145.800000
408.005432	145.800000
408.099060	145.520000
408.192688	146.140000
408.286285	145.620000
408.379913	145.200000
408.473572	145.480000
408.567169	145.220000
408.660828	144.760000
408.754395	144.680000
408.848053	144.740000
408.941650	144.620000
409.035309	144.300000
409.128906	144.360000
409.222565	144.780000
409.316132	145.140000
409.409790	144.900000
409.503387	145.180000
409.597046	145.000000
409.690674	145.040000
409.784302	144.920000
409.877930	144.880000
409.971558	145.200000
410.065186	144.980000
410.158783	144.800000
410.252411	144.680000
410.346039	145.240000
410.439667	144.940000
410.533295	145.480000
410.626923	145.620000
410.720551	145.260000
410.814209	145.480000
410.907806	145.700000
411.001465	145.380000
411.095062	145.400000
411.188721	146.040000
411.282318	145.460000
411.375977	145.240000
411.469574	145.660000
411.563232	145.200000
411.656830	144.940000
411.750488	144.920000
411.844086	144.740000
411.937744	144.340000
412.031372	144.500000
412.125000	144.600000
412.218628	144.700000
412.312256	145.500000
412.405884	146.320000
412.499512	146.260000
412.593170	146.400000
412.686798	146.640000
412.780426	145.780000
412.874054	145.460000
412.967682	145.580000
413.061310	146.040000
413.154968	145.960000
413.248566	146.140000
413.342224	146.060000
413.435852	146.080000
413.529510	145.820000
413.623108	145.240000
413.716766	145.280000
413.810364	145.620000
413.904022	145.200000
413.997650	144.540000
414.091309	145.480000
414.184906	145.460000
414.278564	144.820000
414.372192	145.560000
414.465851	145.980000
414.559479	145.200000
414.653107	146.060000
414.746735	145.940000
414.840393	145.800000
414.934021	146.000000
415.027649	145.760000
415.121277	145.120000
415.214935	145.660000
415.308563	145.740000
415.402191	145.260000
415.495850	145.720000
415.589478	145.300000
415.683136	144.940000
415.776733	145.120000
415.870422	145.800000
415.964020	145.420000
416.057678	146.040000
416.151306	146.160000
416.244965	145.720000
416.338562	145.540000
416.432251	146.180000
416.525848	146.640000
416.619507	146.900000
416.713165	147.380000
416.806793	147.100000
416.900421	147.040000
416.994080	146.320000
417.087708	145.660000
417.181366	144.940000
417.274994	144.920000
417.368622	145.120000
417.462280	145.980000
417.555908	146.220000
417.649567	146.420000
417.743195	146.400000
417.836853	145.940000
417.930481	145.400000
418.024170	145.440000
418.117767	145.880000
418.211426	146.040000
418.305054	146.600000
418.398712	146.240000
418.492340	146.380000
418.585999	146.380000
418.679626	146.440000
418.773285	146.320000
418.866913	146.620000
418.960571	146.560000
419.054230	146.280000
419.147858	146.040000
419.241516	145.880000
419.335144	145.460000
419.428802	145.500000
419.522461	145.280000
419.616089	145.160000
419.709747	145.340000
419.803375	145.460000
419.897034	145.240000
419.990662	145.320000
420.084320	145.760000
420.177979	145.580000
420.271606	146.060000
420.365295	146.720000
420.458893	147.140000
420.552582	147.100000
420.646210	147.120000
420.739868	146.860000
420.833496	146.360000
420.927155	145.760000
421.020782	145.520000
421.114471	145.120000
421.208069	145.000000
421.301758	145.280000
421.395386	145.640000
421.489044	145.480000
421.582703	145.500000
421.676361	146.040000
421.769989	145.700000
421.863647	145.960000
421.957306	146.260000
422.050934	146.540000
422.144592	145.960000
422.238251	145.700000
422.331909	144.780000
422.425537	144.500000
422.519196	144.420000
422.612854	144.380000
422.706543	144.440000
422.800140	145.340000
422.893829	145.220000
422.987457	144.980000
423.081146	145.200000
423.174744	146.040000
423.268433	145.540000
423.362061	145.380000
423.455750	145.500000
423.549347	145.300000
423.643036	144.040000
423.736664	144.480000
423.830353	145.000000
423.924011	145.540000
424.017639	145.260000
424.111298	145.720000
424.204956	145.500000
424.298615	145.460000
424.392273	144.840000
424.485931	145.140000
424.579559	145.340000
424.673218	145.460000
424.766876	145.620000
424.860535	145.460000
424.954193	145.280000
425.047882	145.520000
425.141510	145.400000
425.235199	145.100000
425.328796	145.100000
425.422485	145.120000
425.516113	144.480000
425.609802	144.380000
425.703430	144.540000
425.797119	144.520000
425.890747	144.540000
425.984436	145.040000
426.078064	145.080000
426.171753	145.100000
426.265411	144.980000
426.359070	145.300000
426.452728	145.040000
426.546356	145.100000
426.640015	144.720000
426.733673	144.980000
426.827332	144.580000
426.920990	145.360000
427.014648	145.040000
427.108307	145.520000
427.201965	146.040000
427.295624	146.280000
427.389282	145.260000
427.482941	145.560000
427.576630	145.320000
427.670258	144.400000
427.763947	144.240000
427.857574	144.520000
427.951263	144.340000
428.044922	144.020000
428.138611	144.460000
428.232239	144.920000
428.325928	145.380000
428.419556	145.920000
428.513245	145.800000
428.606903	145.960000
428.700562	145.340000
428.794220	144.620000
428.887878	143.680000
428.981537	144.040000
429.075195	143.940000
429.168854	144.440000
429.262512	144.400000
429.356201	144.800000
429.449860	144.760000
429.543518	144.660000
429.637177	144.680000
429.730835	145.160000
429.824493	145.340000
429.918182	145.800000
430.011810	145.300000
430.105530	144.580000
430.199158	144.740000
430.292847	144.720000
430.386475	144.200000
430.480164	144.300000
430.573792	144.500000
430.667511	144.240000
430.761139	144.160000
430.854828	144.860000
430.948456	145.200000
431.042145	145.760000
431.135834	145.320000
431.229492	145.300000
431.323151	145.160000
431.416809	145.320000
431.510468	144.980000
431.604156	145.220000
431.697815	145.320000
431.791473	144.760000
431.885132	144.380000
431.978821	144.740000
432.072479	145.020000
432.166138	145.300000
432.259827	145.340000
432.353485	145.600000
432.447174	145.340000
432.540802	145.140000
432.634491	145.200000
432.728149	145.460000
432.821838	146.000000
432.915466	145.940000
433.009186	146.120000
433.102814	145.320000
433.196503	145.020000
433.290131	144.780000
433.383850	145.020000
433.477509	145.020000
433.571167	145.940000
433.664856	146.480000
433.758514	146.800000
433.852173	146.700000
433.945862	146.640000
434.039520	146.420000
434.133179	145.720000
434.226868	145.300000
434.320526	144.660000
434.414185	144.980000
434.507874	144.500000
434.601562	144.660000
434.695221	144.160000
434.788910	144.720000
434.882538	144.420000
434.976257	144.100000
435.069885	144.240000
435.163574	144.620000
435.257233	144.220000
435.350922	144.400000
435.444580	144.320000
435.538269	144.080000
435.631897	144.600000
435.725616	145.400000
435.819275	145.660000
435.912964	146.540000
436.006622	147.140000
436.100311	146.620000
436.193970	145.580000
436.287628	145.060000
436.381317	144.700000
436.474976	144.120000
436.568665	144.020000
436.662323	144.300000
436.756012	144.280000
436.849670	144.120000
436.943390	144.200000
437.037018	144.180000
437.130737	144.260000
437.224365	144.240000
437.318085	144.540000
437.411713	144.760000
437.505432	145.120000
437.599060	145.700000
437.692780	146.320000
437.786407	145.980000
437.880127	146.160000
437.973755	145.940000
438.067474	145.280000
438.161133	145.080000
438.254822	145.660000
438.348480	145.280000
438.442169	145.820000
438.535828	146.440000
438.629517	145.860000
438.723175	145.240000
438.816864	145.560000
438.910553	144.700000
439.004211	144.400000
439.097900	144.380000
439.191559	144.900000
439.285248	144.260000
439.378906	144.920000
439.472626	144.780000
439.566284	145.060000
439.659973	145.220000
439.753632	145.240000
439.847321	145.240000
439.940979	145.380000
440.034698	145.260000
440.128326	144.480000
440.222046	144.640000
440.315674	144.120000
440.409393	144.240000
440.503082	144.160000
440.596741	144.660000
440.690430	144.820000
440.784088	144.760000
440.877777	144.200000
440.971466	144.320000
441.065125	144.240000
441.158813	144.020000
441.252502	144.140000
441.346161	144.660000
441.439850	144.940000
441.533539	144.800000
441.627197	145.440000
441.720886	145.480000
441.814606	145.720000
441.908234	146.040000
442.001953	146.000000
442.095612	145.680000
442.189301	145.620000
442.282959	145.160000
442.376678	144.160000
442.470306	144.960000
442.564026	145.000000
442.657684	145.020000
442.751404	145.120000
442.845032	146.200000
442.938751	145.080000
443.032440	145.120000
443.126099	144.920000
443.219788	145.360000
443.313477	145.000000
443.407166	145.560000
443.500824	145.420000
443.594513	145.800000
443.688202	145.880000
443.781891	145.460000
443.875549	145.200000
443.969238	144.920000
444.062927	144.880000
444.156647	144.520000
444.250275	145.080000
444.343994	145.260000
444.437653	145.700000
444.531372	145.660000
444.625031	145.240000
444.718719	144.920000
444.812378	144.800000
444.906097	144.620000
444.999756	144.360000
445.093445	144.920000
445.187103	144.980000
445.280823	145.420000
445.374512	145.180000
445.468201	145.620000
445.561859	145.320000
445.655548	145.440000
445.749237	144.940000
445.842926	145.320000
445.936615	145.320000
446.030304	144.920000
446.123962	145.100000
446.217651	144.940000
446.311340	145.300000
446.405029	144.980000
446.498749	144.960000
446.592407	144.540000
446.686096	144.900000
446.779755	144.440000
446.873474	144.500000
446.967133	145.140000
447.060852	144.860000
447.154510	144.600000
447.248230	144.640000
447.341858	144.640000
447.435577	144.160000
447.529236	144.120000
447.622955	143.840000
447.716644	143.700000
447.810333	143.820000
447.904022	144.460000
447.997711	144.620000
448.091400	145.480000
448.185059	145.460000
448.278748	145.780000
448.372437	145.240000
448.466125	145.640000
448.559814	145.300000
448.653503	145.920000
448.747192	145.940000
448.840912	146.540000
448.934570	146.380000
449.028290	146.740000
449.121948	146.340000
449.215637	145.820000
449.309296	144.920000
449.403015	145.140000
449.496674	144.720000
449.590393	144.620000
449.684052	144.660000
449.777771	145.820000
449.871429	144.900000
449.965149	144.960000
450.058838	145.240000
450.152527	145.880000
450.246216	145.340000
450.339905	145.660000
450.433594	145.220000
450.527283	145.800000
450.620972	145.360000
450.714661	145.500000
450.808350	145.820000
450.902039	146.480000
450.995728	145.700000
451.089417	145.400000
451.183105	145.240000
451.276794	145.600000
451.370514	145.040000
451.464172	144.580000
451.557892	144.800000
451.651550	145.080000
451.745270	144.480000
451.838928	144.320000
451.932648	144.840000
452.026306	145.240000
452.120026	144.800000
452.213684	145.260000
452.307404	145.520000
452.401062	145.860000
452.494781	145.800000
452.588470	146.000000
452.682159	145.440000
452.775848	145.440000
452.869537	144.640000
452.963226	144.180000
453.056915	144.020000
453.150604	144.360000
453.244293	144.500000
453.337982	145.380000
453.431671	145.960000
453.525360	146.380000
453.619049	146.160000
453.712769	146.240000
453.806427	145.440000
453.900146	144.820000
453.993805	144.440000
454.087555	145.100000
454.181213	145.220000
454.274933	145.400000
454.368591	145.560000
454.462311	145.340000
454.555969	144.600000
454.649689	145.420000
454.743347	145.320000
454.837067	145.920000
454.930756	146.560000
455.024445	146.740000
455.118134	145.800000
455.211853	146.080000
455.305542	145.500000
455.399231	145.340000
455.492920	145.460000
455.586609	145.640000
455.680298	145.800000
455.773987	145.580000
455.867676	145.320000
455.961365	145.460000
456.055084	144.940000
456.148773	144.500000
456.242493	144.520000
456.336151	144.800000
456.429871	144.980000
456.523529	145.860000
456.617249	145.820000
456.710907	146.560000
456.804626	146.260000
456.898315	145.780000
456.992035	145.360000
457.085693	145.140000
457.179413	144.320000
457.273102	145.240000
457.366791	145.220000
457.460480	145.180000
457.554199	146.040000
457.647888	146.120000
457.741577	145.120000
457.835266	145.320000
457.928955	145.500000
458.022644	145.380000
458.116364	145.660000
458.210052	145.680000
458.303741	145.940000
458.397461	145.500000
458.491119	144.840000
458.584839	144.680000
458.678528	144.580000
458.772247	144.100000
458.865906	144.300000
458.959625	145.280000
459.053284	145.280000
459.147003	145.300000
459.240692	146.120000
459.334412	146.160000
459.428070	145.600000
459.521790	145.700000
459.615479	145.460000
459.709198	145.380000
459.802887	145.400000
459.896576	145.100000
459.990265	145.040000
460.083954	145.520000
460.177673	144.940000
460.271362	144.720000
460.365051	144.860000
460.458740	144.600000
460.552429	144.140000
460.646149	144.140000
460.739838	143.980000
460.833527	144.280000
460.927246	144.400000
461.020905	144.360000
461.114655	144.280000
461.208313	144.700000
461.302032	144.160000
461.395691	144.400000
461.489441	144.760000
461.583099	144.660000
461.676819	144.160000
461.770477	144.840000
461.864197	144.540000
461.957916	144.400000
462.051605	144.240000
462.145294	145.180000
462.238983	144.580000
462.332703	145.040000
462.426392	145.620000
462.520081	145.680000
462.613770	144.960000
462.707489	145.280000
462.801178	144.860000
462.894867	144.500000
462.988556	144.820000
463.082275	145.080000
463.175964	144.700000
463.269684	145.220000
463.363342	145.120000
463.457092	144.660000
463.550751	144.760000
463.644470	145.140000
463.738129	144.980000
463.831879	145.060000
463.925537	145.620000
464.019257	145.660000
464.112946	145.420000
464.206665	144.860000
464.300323	144.880000
464.394043	144.520000
464.487762	144.280000
464.581451	144.880000
464.675140	145.220000
464.768829	145.420000
464.862549	145.660000
464.956238	145.640000
465.049927	145.420000
465.143646	145.860000
465.237335	145.560000
465.331024	145.960000
465.424713	146.080000
465.518433	145.900000
465.612152	145.440000
465.705811	145.480000
465.799561	145.080000
465.893219	144.960000
465.986938	144.960000
466.080597	144.820000
466.174347	145.180000
466.268005	145.380000
466.361725	145.440000
466.455414	145.480000
466.549133	145.380000
466.642792	145.440000
466.736542	144.920000
466.830231	144.940000
466.923920	144.840000
467.017609	144.980000
467.111328	144.480000
467.205017	144.840000
467.298706	144.820000
467.392426	144.840000
467.486115	145.120000
467.579803	144.940000
467.673523	145.220000
467.767212	145.200000
467.860901	145.280000
467.954651	145.600000
468.048309	146.100000
468.142029	145.780000
468.235718	145.900000
468.329437	145.800000
468.423096	145.540000
468.516846	145.260000
468.610504	145.000000
468.704224	144.460000
468.797913	144.400000
468.891632	144.580000
468.985291	144.640000
469.079010	144.740000
469.172729	144.540000
469.266418	145.180000
469.360107	144.860000
469.453827	144.600000
469.547516	144.840000
469.641205	145.680000
469.734924	145.440000
469.828613	145.800000
469.922302	146.200000
470.016022	145.900000
470.109711	145.400000
470.203430	144.820000
470.297150	144.080000
470.390808	144.300000
470.484558	144.420000
470.578217	145.260000
470.671936	145.680000
470.765625	146.500000
470.859344	146.060000
470.953003	146.300000
471.046753	145.720000
471.140411	145.380000
471.234131	145.120000
471.327820	145.620000
471.421539	145.440000
471.515228	145.200000
471.608948	145.260000
471.702637	145.140000
471.796326	144.700000
471.890045	145.000000
471.983734	145.280000
472.077423	145.360000
472.171143	145.600000
472.264832	145.640000
472.358521	145.600000
472.452240	145.520000
472.545929	145.760000
472.639648	145.640000
472.733337	146.100000
472.827057	146.060000
472.920746	146.160000
473.014465	146.620000
473.108124	146.580000
473.201874	146.260000
473.295532	145.740000
473.389252	146.220000
473.482941	146.080000
473.576660	145.660000
473.670319	145.440000
473.764069	145.980000
473.857727	145.680000
473.951477	145.440000
474.045166	146.240000
474.138855	146.280000
474.232574	145.880000
474.326263	145.500000
474.419952	145.860000
474.513672	145.620000
474.607361	145.400000
474.701050	145.760000
474.794769	146.220000
474.888458	146.220000
474.982178	146.160000
475.075867	146.460000
475.169586	146.100000
475.263275	145.540000
475.356995	145.020000
475.450653	144.660000
475.544403	144.420000
475.638062	145.360000
475.731812	145.220000
475.825470	145.180000
475.919189	145.440000
476.012878	145.820000
476.106598	144.700000
476.200256	145.320000
476.294006	145.460000
476.387695	145.500000
476.481384	144.900000
476.575104	145.260000
476.668793	144.780000
476.762512	144.260000
476.856201	144.700000
476.949890	144.600000
477.043610	144.000000
477.137299	144.140000
477.230988	144.320000
477.324707	143.560000
477.418396	144.300000
477.512146	145.080000
477.605804	145.000000
477.699524	145.660000
477.793213	145.960000
477.886932	145.660000
477.980591	145.160000
478.074341	144.920000
478.167999	144.080000
478.261749	143.960000
478.355408	143.700000
478.449127	144.180000
478.542816	145.080000
478.636536	146.040000
478.730225	146.000000
478.823944	146.600000
478.917633	146.620000
479.011322	146.640000
479.105042	145.920000
479.198730	146.260000
479.292450	145.860000
479.386139	145.660000
479.479828	145.500000
479.573547	146.160000
479.667267	145.880000
479.760925	145.900000
479.854675	146.200000
479.948334	145.960000
480.042084	145.200000
480.135742	145.240000
480.229462	144.740000
480.323151	144.480000
480.416870	144.020000
480.510529	144.220000
480.604279	143.720000
480.697937	144.460000
480.791656	144.160000
480.885345	144.220000
480.979065	144.400000
481.072754	145.200000
481.166473	145.620000
481.260132	145.780000
481.353882	145.800000
481.447540	145.660000
481.541260	145.500000
481.635010	144.680000
481.728668	144.640000
481.822388	144.920000
481.916077	144.800000
482.009796	144.660000
482.103485	145.120000
482.197205	145.100000
482.290863	145.180000
482.384613	145.100000
482.478271	144.780000
482.571991	144.640000
482.665680	144.740000
482.759399	145.280000
482.853058	146.100000
482.946808	146.180000
483.040466	145.880000
483.134216	145.880000
483.227875	145.100000
483.321594	145.060000
483.415283	145.200000
483.509003	145.320000
483.602661	144.880000
483.696411	145.460000
483.790070	145.000000
483.883789	144.980000
483.977478	145.240000
484.071198	145.840000
484.164917	144.960000
484.258606	144.560000
484.352325	144.800000
484.445984	144.940000
484.539734	144.780000
484.633392	144.780000
484.727142	145.500000
484.820801	145.340000
484.914520	145.120000
485.008209	145.360000
485.101929	146.160000
485.195587	145.640000
485.289337	145.720000
485.382996	145.700000
485.476715	145.520000
485.570404	145.880000
485.664124	146.080000
485.757782	146.580000
485.851532	146.180000
485.945190	145.960000
486.038910	145.840000
486.132599	146.280000
486.226318	145.500000
486.319977	145.860000
486.413727	146.540000
486.507446	145.820000
486.601105	144.960000
486.694855	145.020000
486.788513	144.860000
486.882233	144.440000
486.975922	144.600000
487.069641	144.600000
487.163300	144.500000
487.257050	145.340000
487.350708	145.020000
487.444427	144.740000
487.538116	145.120000
487.631836	145.040000
487.725494	144.500000
487.819214	144.720000
487.912903	144.860000
488.006622	144.780000
488.100281	145.300000
488.194031	145.240000
488.287689	145.560000
488.381409	146.120000
488.475098	146.220000
488.568817	146.360000
488.662476	146.160000
488.756226	145.640000
488.849945	144.720000
488.943604	144.760000
489.037354	144.700000
489.131012	144.840000
489.224731	144.700000
489.318390	145.260000
489.412140	145.140000
489.505798	145.000000
489.599518	144.520000
489.693207	145.160000
489.786926	144.740000
489.880585	144.620000
489.974335	144.920000
490.067993	146.440000
490.161713	146.640000
490.255371	147.480000
490.349121	147.560000
490.442780	147.160000
490.536499	145.940000
490.630188	145.660000
490.723907	144.960000
490.817566	144.960000
490.911285	144.880000
491.004974	144.920000
491.098694	144.440000
491.192413	144.980000
491.286102	144.920000
491.379822	144.880000
491.473480	145.240000
491.567200	145.600000
491.660889	144.840000
491.754608	144.900000
491.848267	144.800000
491.941986	144.520000
492.035675	144.460000
492.129395	145.140000
492.223053	145.020000
492.316772	145.320000
492.410461	144.980000
492.504181	144.880000
492.597839	144.540000
492.691559	144.720000
492.785248	144.600000
492.878967	144.920000
492.972626	144.800000
493.066345	144.840000
493.160034	144.340000
493.253754	144.440000
493.347412	144.200000
493.441132	144.600000
493.534882	144.880000
493.628540	145.540000
493.722260	145.680000
493.815918	146.060000
493.909668	146.420000
494.003326	146.640000
494.097046	146.280000
494.190704	145.900000
494.284454	146.160000
494.378113	146.000000
494.471832	145.580000
494.565491	145.540000
494.659210	145.720000
494.752899	145.400000
494.846619	145.140000
494.940277	145.200000
495.033997	145.260000
495.127686	144.980000
495.221405	144.820000
495.315063	144.940000
495.408783	145.180000
495.502441	145.420000
495.596191	145.780000
495.689850	145.540000
495.783569	145.520000
495.877228	145.500000
495.970947	145.480000
496.064697	145.340000
496.158356	146.520000
496.252075	146.260000
496.345734	146.040000
496.439453	146.440000
496.533142	146.860000
496.626862	146.800000
496.720520	146.920000
496.814240	147.360000
496.907898	146.960000
497.001617	146.800000
497.095306	145.740000
497.189026	145.920000
497.282684	145.560000
497.376404	145.780000
497.470062	145.400000
497.563782	145.900000
497.657471	145.840000
497.751190	145.660000
497.844849	145.300000
497.938568	145.640000
498.032227	145.720000
498.125946	145.720000
498.219635	145.640000
498.313354	145.800000
498.407074	145.500000
498.500732	145.580000
498.594452	145.880000
498.688110	145.660000
498.781830	145.320000
498.875519	145.200000
498.969238	144.760000
499.062897	144.160000
499.156616	144.780000
499.250275	144.960000
499.343994	144.780000
499.437653	144.940000
499.531372	145.180000
499.625061	145.860000
499.718781	146.320000
499.812439	147.320000
499.906158	147.180000
499.999817	147.020000
500.093536	145.900000
500.187195	145.820000
500.280914	145.520000
500.374573	145.740000
500.468323	145.540000
500.561981	145.980000
500.655701	145.420000
500.749420	144.880000
500.843079	144.780000
500.936798	145.220000
501.030457	145.480000
501.124176	145.920000
501.217834	146.060000
501.311554	146.120000
501.405212	145.900000
501.498962	145.060000
501.592621	144.680000
501.686340	144.880000
501.779999	145.000000
501.873718	145.120000
501.967377	145.560000
502.061096	146.000000
502.154755	145.740000
502.248474	145.520000
502.342133	145.820000
502.435852	145.620000
502.529510	146.020000
502.623230	146.460000
502.716888	146.240000
502.810608	145.820000
502.904266	146.340000
502.997986	145.680000
503.091705	145.460000
503.185364	145.520000
503.279083	145.520000
503.372772	145.420000
503.466492	145.040000
503.560150	145.080000
503.653870	145.320000
503.747528	145.440000
503.841248	145.160000
503.934906	145.620000
504.028625	145.160000
504.122284	145.380000
504.216003	146.160000
504.309662	145.880000
504.403381	146.060000
504.497040	146.500000
504.590759	146.300000
504.684418	146.100000
504.778137	146.740000
504.871796	147.100000
504.965515	146.700000
505.059174	146.640000
505.152893	145.660000
505.246521	145.020000
505.340240	144.380000
505.433899	144.520000
505.527618	144.620000
505.621338	145.260000
505.714996	145.280000
505.808716	145.280000
505.902374	145.960000
505.996094	145.980000
506.089752	145.580000
506.183472	145.840000
506.277130	146.060000
506.370850	145.720000
506.464508	145.280000
506.558228	145.580000
506.651886	145.080000
506.745605	144.880000
506.839264	145.000000
506.932983	145.400000
507.026611	145.040000
507.120331	145.940000
507.213989	145.560000
507.307709	145.400000
507.401367	145.580000
507.495087	146.680000
507.588745	145.880000
507.682465	147.020000
507.776123	146.800000
507.869843	146.760000
507.963531	145.980000
508.057190	146.680000
508.150909	145.640000
508.244568	145.820000
508.338287	145.560000
508.431946	145.120000
508.525665	144.660000
508.619324	144.680000
508.713013	144.860000
508.806671	145.040000
508.900391	146.080000
508.994049	146.320000
509.087769	146.340000
509.181427	146.160000
509.275146	145.980000
509.368774	145.200000
509.462494	145.040000
509.556152	145.400000
509.649872	145.640000
509.743530	145.720000
509.837250	145.860000
509.930878	145.760000
510.024597	145.720000
510.118256	145.400000
510.211975	145.480000
510.305695	144.960000
510.399353	145.480000
510.493042	145.620000
510.586700	145.700000
510.680420	146.320000
510.774078	146.620000
510.867798	146.260000
510.961426	145.920000
511.055145	145.860000
511.148804	145.260000
511.242523	145.700000
511.336151	145.860000
511.429871	145.940000
511.523529	145.980000
511.617249	145.520000
511.710876	145.200000
511.804596	144.900000
511.898254	144.920000
511.991974	145.120000
512.085632	145.120000
512.179321	145.520000
512.272949	145.880000
512.366699	146.300000
512.460327	146.280000
512.554077	147.300000
512.647766	147.020000
512.741394	146.840000
512.835144	147.040000
512.928772	146.720000
513.022461	146.240000
513.116150	145.900000
513.209839	146.460000
513.303467	145.920000
513.397217	145.660000
513.490845	145.500000
513.584595	145.560000
513.678223	144.740000
513.771912	144.160000
513.865601	144.640000
513.959290	144.240000
514.052917	144.660000
514.146667	145.120000
514.240295	145.900000
514.333984	146.020000
514.427673	146.200000
514.521362	146.360000
514.614990	145.800000
514.708740	145.740000
514.802368	145.560000
514.896057	146.140000
514.989746	146.380000
515.083435	146.600000
515.177124	146.740000
515.270752	146.660000
515.364502	146.260000
515.458130	146.040000
515.551819	145.940000
515.645508	145.780000
515.739197	145.860000
515.832825	145.580000
515.926575	145.180000
516.020203	145.620000
516.113892	145.900000
516.207520	145.440000
516.301270	145.680000
516.394897	146.060000
516.488586	146.340000
516.582275	146.080000
516.675964	145.920000
516.769592	145.960000
516.863281	146.500000
516.956970	146.420000
517.050659	146.220000
517.144287	146.500000
517.238037	146.300000
517.331665	145.160000
517.425354	144.620000
517.519043	144.580000
517.612732	144.880000
517.706421	145.140000
517.800049	145.120000
517.893738	145.260000
517.987427	145.240000
518.081116	144.880000
518.174744	144.600000
518.268433	144.960000
518.362122	145.480000
518.455811	145.380000
518.549438	146.280000
518.643127	147.040000
518.736816	146.860000
518.830505	146.440000
518.924133	146.700000
519.017822	146.320000
519.111511	145.980000
519.205200	146.440000
519.298828	146.320000
519.392517	146.040000
519.486206	146.500000
519.579895	146.700000
519.673523	146.220000
519.767212	146.320000
519.860901	147.040000
519.954590	146.380000
520.048279	145.520000
520.141907	145.660000
520.235596	146.500000
520.329224	146.220000
520.422974	146.320000
520.516602	146.820000
520.610291	146.340000
520.703918	145.640000
520.797607	145.400000
520.891296	145.280000
520.984985	145.360000
521.078613	146.080000
521.172302	145.640000
521.265930	146.700000
521.359680	147.560000
521.453308	147.400000
521.546997	147.060000
521.640625	147.460000
521.734314	146.180000
521.827942	145.280000
521.921692	145.440000
522.015320	145.600000
522.109009	145.280000
522.202698	145.640000
522.296326	145.560000
522.390015	145.640000
522.483704	145.720000
522.577393	145.680000
522.671021	145.360000
522.764709	145.260000
522.858337	145.520000
522.952026	145.480000
523.045654	146.120000
523.139404	146.700000
523.233032	147.000000
523.326721	146.480000
523.420349	146.440000
523.514038	146.060000
523.607666	146.300000
523.701355	146.060000
523.795044	146.500000
523.888733	146.980000
523.982361	147.260000
524.076050	146.580000
524.169678	147.180000
524.263367	146.600000
524.356995	146.180000
524.450684	145.720000
524.544373	145.500000
524.638062	145.280000
524.731750	145.560000
524.825378	145.280000
524.919067	144.940000
525.012695	145.320000
525.106384	144.900000
525.200012	145.000000
525.293701	144.800000
525.387329	145.260000
525.481018	145.180000
525.574646	145.700000
525.668396	145.440000
525.762024	145.960000
525.855713	146.180000
525.949341	145.780000
526.043030	145.660000
526.136658	145.520000
526.230347	145.340000
526.323975	144.940000
526.417664	145.100000
526.511292	144.880000
526.604980	145.200000
526.698608	145.100000
526.792297	145.260000
526.885925	145.660000
526.979614	146.140000
527.073303	145.660000
527.166931	145.780000
527.260620	145.900000
527.354309	146.040000
527.447998	145.740000
527.541626	145.820000
527.635315	145.920000
527.728943	146.200000
527.822632	146.200000
527.916260	146.280000
528.009949	146.580000
528.103577	146.260000
528.197266	145.740000
528.290894	145.800000
528.384583	145.520000
528.478210	145.600000
528.571899	146.080000
528.665527	146.560000
528.759216	146.280000
528.852844	146.620000
528.946533	146.580000
529.040161	146.180000
529.133850	145.720000
529.227478	146.220000
529.321167	146.420000
529.414856	146.680000
529.508484	147.280000
529.602173	147.140000
529.695801	146.900000
529.789490	146.400000
529.883057	146.220000
529.976746	146.320000
530.070374	146.720000
530.164062	146.600000
530.257690	147.100000
530.351379	147.200000
530.445007	146.680000
530.538696	146.120000
530.632324	146.380000
530.726013	146.120000
530.819641	145.960000
530.913330	146.000000
531.006958	146.000000
531.100647	145.880000
531.194275	145.640000
531.287964	145.400000
531.381592	145.060000
531.475220	145.560000
531.568848	145.340000
531.662537	145.400000
531.756226	145.940000
531.849854	146.060000
531.943542	145.960000
532.037170	145.400000
532.130859	145.980000
532.224487	145.600000
532.318176	145.460000
532.411804	145.640000
532.505432	146.220000
532.599060	145.320000
532.692749	145.080000
532.786377	145.740000
532.880066	145.380000
532.973694	145.000000
533.067383	145.260000
533.161011	145.520000
533.254639	145.240000
533.348267	145.220000
533.441956	145.780000
533.535583	145.820000
533.629272	146.060000
533.722900	145.680000
533.816589	145.780000
533.910156	146.060000
534.003845	145.600000
534.097534	145.780000
534.191162	146.760000
534.284851	146.920000
534.378479	146.400000
534.472107	146.920000
534.565735	146.620000
534.659424	146.380000
534.753052	146.440000
534.846741	146.200000
534.940369	146.740000
535.033997	146.680000
535.127625	146.300000
535.221313	146.740000
535.314941	146.660000
535.408630	145.800000
535.502197	146.180000
535.595886	146.220000
535.689514	145.540000
535.783203	145.920000
535.876831	146.500000
535.970459	146.220000
536.064087	146.120000
536.157776	146.460000
536.251404	146.600000
536.345093	146.380000
536.438721	146.500000
536.532349	146.740000
536.626038	146.620000
536.719666	146.800000
536.813293	146.640000
536.906921	146.600000
537.000610	146.680000
537.094238	146.320000
537.187866	146.080000
537.281494	146.080000
537.375183	146.160000
537.468811	145.660000
537.562439	145.840000
537.656067	145.620000
537.749756	145.700000
537.843384	145.980000
537.937012	146.220000
538.030640	145.860000
538.124329	145.980000
538.217896	146.440000
538.311584	146.320000
538.405212	146.260000
538.498901	146.960000
538.592468	147.600000
538.686157	146.720000
538.779785	145.880000
538.873413	145.820000
538.967102	145.200000
539.060730	144.520000
539.154358	145.420000
539.247986	145.900000
539.341675	146.000000
539.435242	146.260000
539.528931	146.460000
539.622559	145.720000
539.716187	146.520000
539.809814	146.220000
539.903503	146.420000
539.997070	146.200000
540.090759	146.460000
540.184387	145.920000
540.278015	146.760000
540.371643	146.800000
540.465332	147.180000
540.558899	147.060000
540.652588	146.820000
540.746216	146.420000
540.839844	146.560000
540.933472	145.980000
541.027100	145.820000
541.120728	145.800000
541.214417	145.840000
541.308044	146.220000
541.401672	146.420000
541.495300	146.340000
541.588928	146.380000
541.682617	146.240000
541.776184	145.440000
541.869873	145.580000
541.963440	146.000000
542.057129	145.980000
542.150757	146.000000
542.244385	145.900000
542.338013	145.320000
542.431641	145.180000
542.525269	145.300000
542.618958	145.580000
542.712524	146.100000
542.806213	146.140000
542.899780	146.360000
542.993469	145.980000
543.087036	145.720000
543.180725	145.140000
543.274292	145.800000
543.367981	145.800000
543.461548	146.200000
543.555237	146.000000
543.648926	146.520000
543.742493	146.900000
543.836182	146.840000
543.929749	146.580000
544.023437	146.600000
544.117004	146.660000
544.210693	146.200000
544.304260	146.020000
544.397949	145.960000
544.491516	146.380000
544.585205	146.100000
544.678772	145.780000
544.772461	146.180000
544.866028	146.180000
544.959717	146.200000
545.053284	145.720000
545.146973	146.140000
545.240540	146.080000
545.334229	146.960000
545.427795	147.100000
545.521423	147.620000
545.615051	147.520000
545.708679	148.080000
545.802307	147.680000
545.895935	147.480000
545.989624	148.480000
546.083191	148.260000
546.176880	147.520000
546.270447	146.980000
546.364136	147.560000
546.457703	146.580000
546.551331	146.520000
546.644958	146.920000
546.738586	147.200000
546.832214	146.220000
546.925842	146.180000
547.019409	146.580000
547.113098	145.920000
547.206665	145.620000
547.300354	145.880000
547.393921	146.160000
547.487549	145.900000
547.581177	145.860000
547.674805	145.760000
547.768433	145.200000
547.862061	144.740000
547.955627	144.280000
548.049316	144.740000
548.142883	145.240000
548.236572	146.180000
548.330139	146.680000
548.423767	147.100000
548.517456	146.820000
548.611023	146.840000
548.704651	145.840000
548.798279	145.520000
548.891907	146.040000
548.985474	146.020000
549.079163	145.840000
549.172729	146.080000
549.266357	145.920000
549.359985	145.740000
549.453613	145.280000
549.547180	145.040000
549.640869	145.260000
549.734436	145.080000
549.828064	144.940000
549.921631	145.200000
550.015320	145.080000
550.108887	145.320000
550.202515	145.480000
550.296143	145.260000
550.389771	145.440000
550.483337	145.640000
550.576965	145.500000
550.670593	145.840000
550.764221	145.820000
550.857849	145.720000
550.951477	145.140000
551.045105	144.860000
551.138672	144.960000
551.232300	144.860000
551.325928	145.140000
551.419556	145.720000
551.513123	145.780000
551.606750	145.360000
551.700378	145.440000
551.794006	145.380000
551.887573	145.160000
551.981201	145.520000
552.074768	145.380000
552.168457	145.080000
552.262024	145.900000
552.355652	146.040000
552.449219	146.580000
552.542847	146.620000
552.636475	146.820000
552.730103	145.640000
552.823669	145.500000
552.917297	144.680000
553.010864	144.820000
553.104553	145.080000
553.198181	145.020000
553.291748	145.500000
553.385376	145.740000
553.478943	145.720000
553.572571	145.580000
553.666199	146.220000
553.759827	146.040000
553.853394	145.680000
553.947021	145.520000
554.040588	145.460000
554.134216	145.200000
554.227783	145.800000
554.321411	146.540000
554.415039	146.320000
554.508667	146.320000
554.602234	146.600000
554.695862	145.680000
554.789429	145.280000
554.883057	145.500000
554.976624	145.680000
555.070251	145.460000
555.163818	145.380000
555.257507	145.040000
555.351074	145.320000
555.444702	146.240000
555.538330	145.760000
555.631897	146.280000
555.725525	146.400000
555.819092	146.120000
555.912720	145.020000
556.006287	145.820000
556.099915	145.580000
556.193481	145.960000
556.287109	145.880000
556.380676	145.580000
556.474304	145.400000
556.567871	145.840000
556.661499	145.000000
556.755066	145.200000
556.848694	145.440000
556.942261	145.280000
557.035889	145.160000
557.129517	145.700000
557.223145	146.080000
557.316711	146.300000
557.410339	146.400000
557.503906	146.060000
557.597473	146.160000
557.691040	145.700000
557.784668	145.440000
557.878296	145.640000
557.971863	146.040000
558.065491	145.920000
558.159058	145.940000
558.252686	146.460000
558.346252	146.560000
558.439880	146.120000
558.533447	145.960000
558.627075	145.720000
558.720642	145.440000
558.814270	145.200000
558.907837	145.380000
559.001465	145.480000
559.095032	146.360000
559.188660	146.420000
559.282227	145.960000
559.375854	146.400000
559.469360	146.200000
559.562988	146.260000
559.656555	146.320000
559.750183	146.800000
559.843750	146.880000
559.937378	147.300000
560.030945	146.920000
560.124573	0.000000
560.218140	0.000000
560.311707	0.000000
560.405334	0.000000
560.498901	0.000000
560.592529	0.000000
560.686096	0.000000
560.779724	0.000000
560.873291	0.000000
560.966858	0.000000
561.060425	0.000000
561.154053	0.000000
561.247620	0.000000
561.341248	0.000000
561.434814	0.000000
561.528381	0.000000
561.621948	0.000000
561.715576	0.000000
561.809143	0.000000
561.902771	0.000000
561.996277	0.000000
562.089905	0.000000
562.183472	0.000000
562.277100	0.000000
