Model Number: SPM-002-B   
Serial Number: 70087108
Firmware Version: 004.15.4
Exposure Time: 100000.000000us
Data Taken on: 11-12-2020 19:30:56.975
Wavelength	Amplitude
221.570786	0.000000
221.663406	0.000000
221.756027	0.000000
221.848648	0.000000
221.941269	0.000000
222.033905	0.000000
222.126526	0.000000
222.219162	0.000000
222.311798	0.000000
222.404419	0.000000
222.497055	0.000000
222.589676	0.000000
222.682312	0.000000
222.774933	0.000000
222.867569	0.000000
222.960205	0.000000
223.052841	0.000000
223.145462	0.000000
223.238098	0.000000
223.330734	0.000000
223.423386	0.000000
223.516022	0.000000
223.608658	0.000000
223.701309	0.000000
223.793945	0.000000
223.886581	0.000000
223.979218	0.000000
224.071869	0.000000
224.164505	0.000000
224.257156	0.000000
224.349792	0.000000
224.442444	0.000000
224.535095	0.000000
224.627747	0.000000
224.720398	0.000000
224.813034	0.000000
224.905685	0.000000
224.998337	146.060000
225.090988	145.620000
225.183640	145.340000
225.276291	145.540000
225.368942	145.620000
225.461594	146.080000
225.554245	146.420000
225.646912	146.460000
225.739578	146.900000
225.832230	147.240000
225.924896	146.440000
226.017548	146.680000
226.110199	147.340000
226.202866	146.500000
226.295532	146.040000
226.388184	146.120000
226.480850	145.620000
226.573517	145.100000
226.666168	145.540000
226.758835	146.140000
226.851501	146.840000
226.944183	146.960000
227.036850	146.660000
227.129517	146.440000
227.222183	146.200000
227.314850	146.060000
227.407516	146.620000
227.500198	147.400000
227.592865	147.260000
227.685532	146.840000
227.778214	146.360000
227.870880	146.080000
227.963562	146.240000
228.056229	146.560000
228.148926	146.540000
228.241592	147.460000
228.334274	147.020000
228.426956	146.700000
228.519638	146.660000
228.612305	146.360000
228.704987	146.160000
228.797668	146.480000
228.890350	146.080000
228.983032	145.340000
229.075714	146.480000
229.168396	146.000000
229.261108	145.480000
229.353790	145.560000
229.446472	146.180000
229.539169	145.440000
229.631851	145.040000
229.724533	145.400000
229.817230	145.580000
229.909912	146.320000
230.002609	146.540000
230.095306	146.720000
230.187988	146.580000
230.280685	146.460000
230.373383	145.420000
230.466095	145.420000
230.558792	145.760000
230.651474	146.060000
230.744171	146.000000
230.836868	145.840000
230.929581	146.080000
231.022278	146.120000
231.114975	146.080000
231.207672	146.180000
231.300369	146.800000
231.393082	146.360000
231.485779	146.240000
231.578506	146.220000
231.671204	146.120000
231.763916	146.180000
231.856613	146.120000
231.949326	145.820000
232.042023	145.760000
232.134735	145.640000
232.227448	145.140000
232.320160	145.380000
232.412872	145.700000
232.505585	146.260000
232.598297	146.640000
232.691010	146.860000
232.783722	146.680000
232.876450	147.100000
232.969162	146.600000
233.061874	146.080000
233.154587	145.580000
233.247314	146.080000
233.340027	145.640000
233.432739	146.040000
233.525467	146.200000
233.618179	146.520000
233.710907	145.740000
233.803635	146.140000
233.896347	145.760000
233.989090	146.720000
234.081818	146.700000
234.174545	147.180000
234.267258	146.540000
234.359985	146.880000
234.452713	146.440000
234.545441	146.500000
234.638168	146.420000
234.730896	146.980000
234.823639	146.740000
234.916367	147.040000
235.009094	147.180000
235.101822	147.040000
235.194580	146.920000
235.287308	146.820000
235.380051	146.060000
235.472778	146.260000
235.565521	146.400000
235.658249	145.920000
235.750992	145.880000
235.843719	145.980000
235.936462	145.980000
236.029205	145.740000
236.121948	145.920000
236.214691	146.460000
236.307449	147.240000
236.400192	146.580000
236.492935	146.440000
236.585678	146.340000
236.678421	146.040000
236.771164	145.600000
236.863907	146.380000
236.956665	146.640000
237.049408	148.400000
237.142151	147.920000
237.234909	148.300000
237.327652	148.320000
237.420410	148.320000
237.513153	147.060000
237.605927	147.040000
237.698669	146.680000
237.791428	146.180000
237.884186	146.580000
237.976944	145.840000
238.069702	146.220000
238.162445	145.640000
238.255203	145.380000
238.347961	145.440000
238.440720	146.000000
238.533478	145.840000
238.626266	145.580000
238.719025	146.080000
238.811783	145.900000
238.904541	145.480000
238.997314	145.440000
239.090073	145.720000
239.182831	145.800000
239.275604	146.300000
239.368362	146.440000
239.461136	146.580000
239.553909	146.460000
239.646667	146.420000
239.739441	145.720000
239.832214	146.000000
239.925003	146.260000
240.017761	147.220000
240.110535	147.540000
240.203308	147.640000
240.296082	147.720000
240.388855	147.380000
240.481628	147.160000
240.574417	146.960000
240.667191	146.980000
240.759964	146.520000
240.852737	146.660000
240.945526	145.840000
241.038315	145.740000
241.131088	145.620000
241.223877	145.860000
241.316650	145.480000
241.409439	146.200000
241.502228	145.860000
241.595001	146.440000
241.687790	146.520000
241.780579	146.640000
241.873367	146.740000
241.966141	147.220000
242.058929	146.480000
242.151718	146.580000
242.244507	147.260000
242.337311	146.400000
242.430099	146.580000
242.522903	146.740000
242.615692	145.860000
242.708481	145.520000
242.801270	146.300000
242.894073	146.160000
242.986862	146.460000
243.079651	147.500000
243.172455	147.180000
243.265244	147.320000
243.358063	146.720000
243.450867	146.700000
243.543655	146.380000
243.636459	146.540000
243.729263	146.500000
243.822067	146.860000
243.914856	147.140000
244.007660	147.420000
244.100464	147.300000
244.193268	146.840000
244.286072	147.000000
244.378876	146.160000
244.471680	145.580000
244.564499	145.960000
244.657318	146.600000
244.750122	146.680000
244.842926	146.420000
244.935745	147.000000
245.028549	146.340000
245.121368	145.920000
245.214172	145.860000
245.306992	146.360000
245.399796	146.220000
245.492615	146.660000
245.585434	146.480000
245.678253	146.440000
245.771072	146.360000
245.863892	146.560000
245.956711	146.720000
246.049530	146.660000
246.142349	146.340000
246.235168	146.380000
246.327988	146.780000
246.420807	146.440000
246.513626	146.280000
246.606445	146.240000
246.699280	146.520000
246.792099	145.960000
246.884918	145.660000
246.977753	145.660000
247.070587	145.700000
247.163422	145.760000
247.256241	145.900000
247.349075	146.140000
247.441895	146.260000
247.534729	146.320000
247.627563	146.100000
247.720383	146.580000
247.813217	146.680000
247.906052	146.620000
247.998886	146.720000
248.091736	146.700000
248.184570	145.920000
248.277405	145.840000
248.370239	146.740000
248.463074	147.620000
248.555908	147.840000
248.648743	147.840000
248.741592	148.020000
248.834427	147.160000
248.927261	146.300000
249.020111	146.700000
249.112946	147.180000
249.205795	146.660000
249.298630	146.660000
249.391495	146.420000
249.484344	145.680000
249.577179	145.320000
249.670029	145.960000
249.762878	146.480000
249.855728	146.780000
249.948563	146.820000
250.041412	146.320000
250.134262	146.560000
250.227112	146.740000
250.319962	146.500000
250.412827	146.820000
250.505692	146.700000
250.598541	146.240000
250.691391	145.920000
250.784241	146.120000
250.877106	145.960000
250.969955	146.060000
251.062805	146.920000
251.155670	147.240000
251.248520	146.860000
251.341385	147.220000
251.434235	147.480000
251.527100	146.680000
251.619965	146.120000
251.712814	147.080000
251.805695	146.620000
251.898560	146.560000
251.991425	146.660000
252.084290	147.160000
252.177155	146.240000
252.270020	146.040000
252.362885	146.100000
252.455750	145.960000
252.548615	145.380000
252.641479	145.380000
252.734360	145.260000
252.827240	145.140000
252.920105	145.360000
253.012970	145.360000
253.105850	145.240000
253.198715	145.360000
253.291595	145.620000
253.384460	145.160000
253.477341	145.200000
253.570221	145.740000
253.663086	145.960000
253.755966	146.240000
253.848846	146.520000
253.941727	146.900000
254.034592	146.560000
254.127472	146.020000
254.220367	146.120000
254.313248	146.340000
254.406128	145.960000
254.499008	146.060000
254.591904	147.260000
254.684784	147.460000
254.777664	147.120000
254.870544	146.520000
254.963440	146.440000
255.056335	146.120000
255.149216	145.580000
255.242111	146.240000
255.334991	147.000000
255.427887	147.140000
255.520767	146.880000
255.613663	147.120000
255.706558	146.500000
255.799438	146.160000
255.892334	146.100000
255.985229	145.920000
256.078125	145.820000
256.171021	145.800000
256.263916	146.240000
256.356812	146.580000
256.449707	146.800000
256.542603	146.500000
256.635498	147.040000
256.728394	147.040000
256.821289	146.560000
256.914215	146.720000
257.007080	147.280000
257.100006	147.120000
257.192932	147.460000
257.285828	147.780000
257.378723	147.540000
257.471619	147.000000
257.564545	146.580000
257.657440	146.320000
257.750336	146.520000
257.843262	146.340000
257.936157	147.520000
258.029053	148.120000
258.121979	147.980000
258.214874	147.780000
258.307800	147.700000
258.400696	146.360000
258.493622	145.920000
258.586517	145.260000
258.679443	145.660000
258.772339	145.380000
258.865265	145.340000
258.958160	145.100000
259.051086	146.060000
259.144012	145.640000
259.236938	146.360000
259.329834	146.700000
259.422791	146.980000
259.515717	146.220000
259.608612	146.160000
259.701538	146.240000
259.794464	146.300000
259.887390	146.080000
259.980316	146.220000
260.073212	146.020000
260.166138	145.160000
260.259064	145.420000
260.351990	145.980000
260.444916	146.160000
260.537842	146.660000
260.630768	147.600000
260.723694	147.540000
260.816620	147.160000
260.909546	146.960000
261.002472	146.500000
261.095398	146.060000
261.188354	145.900000
261.281281	145.640000
261.374207	145.780000
261.467133	146.800000
261.560089	147.100000
261.653015	146.880000
261.745972	147.800000
261.838867	148.240000
261.931824	147.960000
262.024780	147.460000
262.117706	148.020000
262.210663	147.880000
262.303589	147.880000
262.396515	147.560000
262.489471	148.440000
262.582397	147.800000
262.675354	147.260000
262.768280	146.920000
262.861237	146.940000
262.954163	146.400000
263.047119	146.780000
263.140045	146.500000
263.233002	146.660000
263.325958	146.520000
263.418884	146.100000
263.511841	146.020000
263.604797	146.300000
263.697723	145.900000
263.790680	145.680000
263.883636	146.540000
263.976593	146.180000
264.069550	146.440000
264.162476	146.240000
264.255463	146.540000
264.348419	145.880000
264.441376	146.360000
264.534332	145.800000
264.627289	146.260000
264.720245	146.380000
264.813202	146.120000
264.906158	146.320000
264.999115	146.800000
265.092072	146.780000
265.185028	147.160000
265.277985	147.600000
265.370941	147.340000
265.463898	147.040000
265.556854	146.680000
265.649811	145.980000
265.742798	145.800000
265.835754	145.900000
265.928711	146.300000
266.021667	146.820000
266.114655	147.140000
266.207611	147.420000
266.300568	146.680000
266.393585	146.260000
266.486511	146.360000
266.579498	145.620000
266.672485	145.460000
266.765442	145.760000
266.858429	146.200000
266.951385	145.440000
267.044342	145.640000
267.137329	145.700000
267.230316	145.960000
267.323273	145.440000
267.416260	146.280000
267.509216	146.380000
267.602203	146.080000
267.695160	146.360000
267.788147	146.580000
267.881134	145.740000
267.974091	146.040000
268.067078	145.920000
268.160065	145.380000
268.253052	145.140000
268.346008	145.720000
268.438995	145.340000
268.531982	145.540000
268.624969	145.540000
268.717987	145.940000
268.810944	145.740000
268.903961	145.940000
268.996948	145.720000
269.089905	146.120000
269.182892	146.080000
269.275879	146.060000
269.368866	145.840000
269.461853	146.240000
269.554871	146.060000
269.647858	145.960000
269.740845	146.360000
269.833832	146.860000
269.926819	146.840000
270.019806	146.880000
270.112793	146.480000
270.205811	146.400000
270.298798	146.060000
270.391785	146.380000
270.484772	146.100000
270.577789	146.460000
270.670776	146.140000
270.763763	145.940000
270.856750	145.780000
270.949768	145.800000
271.042786	145.780000
271.135773	145.840000
271.228790	146.160000
271.321808	145.700000
271.414795	145.680000
271.507782	145.480000
271.600800	145.060000
271.693817	145.000000
271.786804	145.460000
271.879822	145.680000
271.972809	145.760000
272.065826	146.380000
272.158844	145.900000
272.251831	146.160000
272.344849	146.140000
272.437866	145.900000
272.530853	145.840000
272.623871	146.240000
272.716888	145.500000
272.809906	145.720000
272.902893	145.760000
272.995911	145.220000
273.088928	145.500000
273.181946	145.860000
273.274963	145.440000
273.367981	145.760000
273.460999	146.220000
273.554047	146.400000
273.647003	146.880000
273.740051	146.920000
273.833069	147.120000
273.926086	147.200000
274.019135	146.700000
274.112152	146.120000
274.205170	146.240000
274.298187	146.300000
274.391205	145.900000
274.484222	146.040000
274.577240	146.020000
274.670258	145.800000
274.763306	145.300000
274.856323	145.620000
274.949341	145.480000
275.042358	146.000000
275.135406	146.120000
275.228424	146.420000
275.321442	146.340000
275.414490	146.140000
275.507507	146.220000
275.600525	146.500000
275.693573	146.040000
275.786591	145.620000
275.879669	146.100000
275.972656	145.560000
276.065735	145.180000
276.158752	145.660000
276.251801	146.640000
276.344818	146.500000
276.437866	146.700000
276.530884	146.520000
276.623932	145.860000
276.716980	145.660000
276.809998	145.840000
276.903046	145.860000
276.996094	146.900000
277.089111	147.900000
277.182159	148.260000
277.275208	147.700000
277.368256	147.680000
277.461304	147.240000
277.554321	146.340000
277.647369	145.960000
277.740417	146.120000
277.833466	146.100000
277.926514	145.640000
278.019562	146.400000
278.112610	145.880000
278.205688	146.020000
278.298706	145.920000
278.391785	146.040000
278.484833	145.600000
278.577881	145.960000
278.670929	146.440000
278.763977	146.380000
278.857025	146.880000
278.950073	146.960000
279.043121	146.720000
279.136169	146.440000
279.229248	146.300000
279.322296	146.240000
279.415344	145.980000
279.508392	145.660000
279.601440	145.240000
279.694519	145.280000
279.787567	144.720000
279.880615	144.460000
279.973694	144.600000
280.066742	144.860000
280.159790	145.080000
280.252869	145.140000
280.345917	145.800000
280.438995	145.940000
280.532074	145.860000
280.625122	146.280000
280.718201	146.940000
280.811279	146.760000
280.904327	146.800000
280.997406	147.120000
281.090454	146.500000
281.183533	145.960000
281.276581	145.980000
281.369659	145.960000
281.462738	145.920000
281.555786	146.340000
281.648865	146.740000
281.741943	146.860000
281.835022	147.520000
281.928070	147.280000
282.021149	147.120000
282.114227	146.740000
282.207306	146.700000
282.300385	146.560000
282.393433	146.540000
282.486511	146.560000
282.579590	146.820000
282.672668	146.880000
282.765747	146.320000
282.858856	146.400000
282.951904	146.520000
283.045013	146.640000
283.138062	146.820000
283.231171	147.220000
283.324249	147.260000
283.417328	147.080000
283.510406	146.860000
283.603485	146.420000
283.696564	146.160000
283.789642	146.320000
283.882751	145.880000
283.975830	146.240000
284.068909	146.060000
284.161987	146.780000
284.255066	146.240000
284.348175	146.560000
284.441254	146.340000
284.534332	147.140000
284.627441	146.240000
284.720520	146.180000
284.813599	146.480000
284.906708	146.200000
284.999786	145.100000
285.092896	145.060000
285.185974	146.020000
285.279053	145.540000
285.372192	145.860000
285.465240	146.940000
285.558380	147.100000
285.651459	146.600000
285.744568	147.420000
285.837677	147.140000
285.930756	146.800000
286.023865	146.740000
286.116943	146.420000
286.210052	146.100000
286.303162	145.980000
286.396240	146.140000
286.489349	145.940000
286.582458	146.460000
286.675568	146.120000
286.768646	146.380000
286.861755	146.340000
286.954865	147.160000
287.047974	146.800000
287.141083	146.960000
287.234161	146.860000
287.327271	146.700000
287.420380	146.940000
287.513519	146.740000
287.606598	146.660000
287.699738	146.940000
287.792816	146.860000
287.885956	146.160000
287.979034	146.320000
288.072174	146.220000
288.165283	145.880000
288.258392	146.160000
288.351501	145.780000
288.444611	146.260000
288.537720	146.880000
288.630859	146.900000
288.723969	146.940000
288.817078	147.540000
288.910187	147.140000
289.003296	146.400000
289.096436	146.160000
289.189545	146.040000
289.282654	145.560000
289.375763	145.720000
289.468903	146.380000
289.562012	146.780000
289.655121	146.440000
289.748260	146.780000
289.841400	147.200000
289.934509	146.900000
290.027649	147.140000
290.120728	147.400000
290.213898	147.340000
290.306976	146.940000
290.400146	147.080000
290.493256	146.260000
290.586395	146.120000
290.679535	146.360000
290.772644	146.080000
290.865784	145.260000
290.958893	145.260000
291.052032	145.240000
291.145172	145.020000
291.238281	145.300000
291.331421	145.580000
291.424561	146.320000
291.517670	146.280000
291.610809	146.360000
291.703949	145.760000
291.797089	146.200000
291.890228	145.860000
291.983337	145.920000
292.076477	145.740000
292.169617	146.420000
292.262756	146.260000
292.355927	145.980000
292.449036	145.820000
292.542206	145.980000
292.635315	145.960000
292.728485	146.180000
292.821625	146.040000
292.914764	147.360000
293.007904	147.480000
293.101044	147.200000
293.194183	146.900000
293.287323	147.400000
293.380463	146.220000
293.473602	145.860000
293.566742	146.300000
293.659882	147.040000
293.753021	147.160000
293.846191	147.080000
293.939331	146.620000
294.032471	146.260000
294.125610	145.500000
294.218781	145.900000
294.311920	146.480000
294.405060	147.400000
294.498230	147.380000
294.591370	147.620000
294.684540	146.760000
294.777679	146.320000
294.870850	146.560000
294.963959	146.620000
295.057159	146.200000
295.150299	146.480000
295.243469	146.500000
295.336609	145.540000
295.429779	145.440000
295.522919	146.080000
295.616089	146.440000
295.709229	146.640000
295.802399	147.060000
295.895569	146.820000
295.988708	146.620000
296.081879	146.220000
296.175018	145.720000
296.268188	145.680000
296.361359	146.280000
296.454529	146.200000
296.547668	146.300000
296.640839	146.740000
296.734009	146.340000
296.827179	146.120000
296.920319	146.360000
297.013519	145.940000
297.106659	145.900000
297.199860	146.120000
297.292999	146.080000
297.386200	146.100000
297.479309	146.160000
297.572510	146.040000
297.665680	145.900000
297.758850	146.100000
297.852020	145.760000
297.945190	145.720000
298.038361	145.540000
298.131531	146.560000
298.224701	146.440000
298.317871	146.260000
298.411072	145.940000
298.504242	145.960000
298.597412	145.040000
298.690582	145.180000
298.783752	145.280000
298.876923	146.080000
298.970093	146.220000
299.063293	146.460000
299.156464	146.840000
299.249634	147.140000
299.342834	147.160000
299.436005	147.600000
299.529205	147.720000
299.622345	147.480000
299.715576	146.780000
299.808716	146.400000
299.901917	146.460000
299.995117	146.620000
300.088287	146.520000
300.181488	146.920000
300.274658	146.940000
300.367828	146.540000
300.461029	146.440000
300.554199	146.840000
300.647400	146.840000
300.740601	147.320000
300.833771	147.160000
300.926971	147.500000
301.020142	146.640000
301.113342	146.580000
301.206512	146.200000
301.299713	146.640000
301.392914	146.140000
301.486084	146.680000
301.579285	146.800000
301.672516	147.040000
301.765686	146.740000
301.858887	146.660000
301.952057	146.540000
302.045288	146.180000
302.138458	146.120000
302.231659	145.780000
302.324860	146.000000
302.418060	145.560000
302.511261	145.600000
302.604462	145.740000
302.697662	145.820000
302.790863	145.580000
302.884064	145.440000
302.977264	145.660000
303.070465	145.620000
303.163666	146.440000
303.256866	146.780000
303.350067	147.040000
303.443268	147.040000
303.536469	147.160000
303.629669	146.400000
303.722870	146.540000
303.816071	146.340000
303.909271	146.760000
304.002472	146.120000
304.095673	146.060000
304.188934	145.160000
304.282104	146.220000
304.375336	145.760000
304.468506	146.040000
304.561768	146.000000
304.654968	146.620000
304.748169	145.900000
304.841370	145.860000
304.934601	146.100000
305.027802	145.980000
305.121002	145.740000
305.214233	145.760000
305.307434	145.920000
305.400665	146.320000
305.493866	146.300000
305.587097	146.700000
305.680298	146.560000
305.773499	146.880000
305.866730	146.320000
305.959930	146.760000
306.053162	146.820000
306.146393	146.800000
306.239594	146.120000
306.332825	146.440000
306.426025	146.600000
306.519287	145.760000
306.612488	145.920000
306.705719	145.860000
306.798920	145.620000
306.892181	145.040000
306.985352	145.320000
307.078613	144.880000
307.171844	145.320000
307.265045	144.820000
307.358276	144.860000
307.451508	145.260000
307.544739	145.960000
307.637970	145.640000
307.731201	145.800000
307.824402	146.300000
307.917633	146.340000
308.010864	146.320000
308.104095	146.940000
308.197327	147.020000
308.290558	146.960000
308.383789	146.640000
308.477020	146.420000
308.570251	145.520000
308.663483	145.460000
308.756714	145.400000
308.849976	145.500000
308.943176	145.960000
309.036438	145.980000
309.129639	145.920000
309.222900	145.860000
309.316101	145.660000
309.409393	144.800000
309.502625	144.860000
309.595856	144.780000
309.689087	144.840000
309.782318	144.700000
309.875580	145.060000
309.968811	145.340000
310.062042	145.340000
310.155273	145.320000
310.248535	145.920000
310.341766	145.920000
310.434998	145.520000
310.528259	145.500000
310.621490	145.800000
310.714722	145.460000
310.807983	145.040000
310.901215	145.400000
310.994476	145.920000
311.087708	145.420000
311.181000	145.740000
311.274200	145.800000
311.367462	145.820000
311.460693	145.320000
311.553986	146.140000
311.647186	146.160000
311.740479	146.880000
311.833710	146.700000
311.926971	146.840000
312.020203	145.640000
312.113464	145.420000
312.206726	144.720000
312.299957	145.100000
312.393219	145.780000
312.486481	146.260000
312.579712	146.280000
312.672974	146.600000
312.766235	146.340000
312.859497	145.780000
312.952759	145.820000
313.045990	146.460000
313.139252	145.660000
313.232513	145.760000
313.325775	146.020000
313.419037	145.900000
313.512299	145.020000
313.605530	146.200000
313.698822	146.420000
313.792053	146.320000
313.885345	146.180000
313.978577	146.460000
314.071869	145.660000
314.165131	145.720000
314.258392	145.960000
314.351654	146.320000
314.444916	145.560000
314.538177	146.180000
314.631439	146.260000
314.724701	145.880000
314.817993	145.520000
314.911255	146.040000
315.004517	145.760000
315.097778	145.440000
315.191040	145.920000
315.284302	146.340000
315.377594	146.560000
315.470856	146.460000
315.564117	146.280000
315.657379	145.680000
315.750671	145.540000
315.843933	145.840000
315.937195	145.300000
316.030518	145.280000
316.123749	145.380000
316.217041	146.380000
316.310303	146.080000
316.403595	146.600000
316.496857	146.840000
316.590149	147.140000
316.683411	145.840000
316.776703	145.420000
316.869965	145.660000
316.963257	145.440000
317.056519	144.640000
317.149811	144.760000
317.243073	145.060000
317.336365	145.140000
317.429626	145.540000
317.522919	146.580000
317.616180	146.720000
317.709473	146.340000
317.802765	146.160000
317.896027	145.800000
317.989319	145.700000
318.082611	145.440000
318.175873	145.760000
318.269165	145.660000
318.362488	145.740000
318.455750	145.280000
318.549042	145.760000
318.642303	146.220000
318.735626	146.420000
318.828888	146.720000
318.922211	146.700000
319.015472	147.140000
319.108765	146.500000
319.202057	146.280000
319.295349	145.980000
319.388641	145.760000
319.481934	145.420000
319.575226	145.300000
319.668518	145.540000
319.761810	145.720000
319.855103	145.860000
319.948395	145.380000
320.041687	146.100000
320.134979	145.940000
320.228271	145.840000
320.321564	145.880000
320.414856	146.200000
320.508148	145.360000
320.601440	145.360000
320.694763	145.160000
320.788025	145.860000
320.881348	146.000000
320.974640	146.300000
321.067963	146.040000
321.161224	146.240000
321.254547	145.400000
321.347839	146.040000
321.441162	145.820000
321.534454	146.000000
321.627747	145.960000
321.721069	147.080000
321.814362	146.460000
321.907654	146.700000
322.000946	146.700000
322.094269	147.360000
322.187561	146.680000
322.280884	146.860000
322.374176	147.080000
322.467468	147.360000
322.560791	146.860000
322.654083	147.120000
322.747406	147.160000
322.840698	147.180000
322.934021	147.440000
323.027344	147.540000
323.120636	146.940000
323.213959	146.700000
323.307251	146.280000
323.400574	145.780000
323.493866	145.480000
323.587219	145.860000
323.680511	146.040000
323.773834	146.280000
323.867157	146.340000
323.960449	146.640000
324.053772	146.680000
324.147095	146.340000
324.240387	146.680000
324.333710	147.060000
324.427032	147.020000
324.520355	146.760000
324.613647	146.600000
324.706970	146.380000
324.800293	145.960000
324.893616	146.020000
324.986938	146.360000
325.080231	146.320000
325.173553	146.380000
325.266876	146.960000
325.360199	146.800000
325.453522	146.180000
325.546875	146.260000
325.640167	146.740000
325.733521	146.640000
325.826813	146.980000
325.920166	147.120000
326.013489	146.860000
326.106812	145.720000
326.200134	145.340000
326.293457	144.840000
326.386780	144.880000
326.480103	145.140000
326.573425	145.400000
326.666748	145.300000
326.760071	145.900000
326.853424	146.220000
326.946747	146.220000
327.040070	147.080000
327.133392	147.040000
327.226715	146.200000
327.320068	145.780000
327.413391	145.900000
327.506714	144.920000
327.600037	144.920000
327.693390	145.300000
327.786713	145.600000
327.880066	145.620000
327.973358	146.260000
328.066742	146.660000
328.160034	146.760000
328.253418	146.700000
328.346710	146.440000
328.440063	146.060000
328.533417	145.520000
328.626740	145.880000
328.720093	145.860000
328.813416	145.880000
328.906769	146.140000
329.000092	146.260000
329.093445	145.880000
329.186768	145.480000
329.280121	145.860000
329.373444	145.820000
329.466797	145.900000
329.560120	145.900000
329.653473	146.260000
329.746796	145.880000
329.840149	145.860000
329.933502	145.940000
330.026825	145.900000
330.120178	145.560000
330.213562	145.640000
330.306854	145.520000
330.400238	145.600000
330.493561	145.100000
330.586945	146.160000
330.680237	146.640000
330.773621	146.680000
330.866974	146.660000
330.960327	147.400000
331.053680	146.700000
331.147003	146.640000
331.240356	146.680000
331.333710	146.680000
331.427063	146.220000
331.520416	146.040000
331.613770	145.700000
331.707123	145.700000
331.800476	145.800000
331.893829	146.760000
331.987152	147.260000
332.080505	147.460000
332.173859	147.540000
332.267212	147.000000
332.360565	146.360000
332.453918	146.020000
332.547333	145.820000
332.640656	145.580000
332.734039	145.960000
332.827362	145.800000
332.920746	146.120000
333.014069	146.300000
333.107452	146.780000
333.200806	146.960000
333.294159	147.180000
333.387543	146.820000
333.480896	146.400000
333.574249	146.100000
333.667603	145.820000
333.760956	146.100000
333.854340	145.900000
333.947693	146.120000
334.041046	146.200000
334.134430	146.360000
334.227783	145.740000
334.321136	145.820000
334.414520	145.520000
334.507874	145.640000
334.601227	145.500000
334.694611	145.440000
334.787964	145.700000
334.881348	146.420000
334.974701	146.280000
335.068085	146.320000
335.161438	146.660000
335.254822	146.580000
335.348175	146.220000
335.441559	145.840000
335.534943	146.300000
335.628296	146.120000
335.721680	146.320000
335.815033	146.640000
335.908417	147.120000
336.001770	146.820000
336.095154	146.820000
336.188538	146.140000
336.281891	145.500000
336.375275	144.880000
336.468658	144.500000
336.562012	144.700000
336.655396	145.520000
336.748779	145.900000
336.842133	146.260000
336.935516	146.880000
337.028900	146.480000
337.122284	146.100000
337.215637	146.280000
337.309021	146.220000
337.402435	145.740000
337.495789	145.940000
337.589203	146.080000
337.682526	145.800000
337.775940	146.140000
337.869324	146.280000
337.962708	145.900000
338.056091	146.200000
338.149475	146.040000
338.242859	146.040000
338.336243	146.080000
338.429626	146.680000
338.523010	146.460000
338.616394	146.260000
338.709778	146.280000
338.803162	146.140000
338.896545	145.860000
338.989929	145.340000
339.083313	145.860000
339.176697	145.300000
339.270081	145.200000
339.363464	145.580000
339.456848	146.080000
339.550232	145.420000
339.643616	145.740000
339.737030	145.820000
339.830383	145.760000
339.923828	145.720000
340.017181	146.100000
340.110596	146.160000
340.203949	146.120000
340.297363	145.640000
340.390778	145.600000
340.484161	145.740000
340.577545	145.880000
340.670959	146.100000
340.764343	146.120000
340.857727	146.180000
340.951111	145.660000
341.044525	145.580000
341.137909	145.080000
341.231293	145.200000
341.324707	144.720000
341.418091	145.580000
341.511505	145.560000
341.604889	145.960000
341.698303	146.380000
341.791687	146.980000
341.885071	146.380000
341.978485	146.280000
342.071899	146.580000
342.165283	146.440000
342.258698	146.420000
342.352081	146.940000
342.445496	147.520000
342.538879	147.140000
342.632324	146.620000
342.725708	146.380000
342.819122	145.840000
342.912506	145.240000
343.005920	145.360000
343.099335	146.300000
343.192719	146.200000
343.286133	146.400000
343.379547	146.560000
343.472931	146.640000
343.566345	146.000000
343.659760	146.240000
343.753143	146.140000
343.846558	145.800000
343.939972	145.840000
344.033386	146.540000
344.126770	146.500000
344.220184	146.580000
344.313599	146.880000
344.407043	147.180000
344.500427	146.040000
344.593872	146.500000
344.687225	146.560000
344.780670	146.460000
344.874054	145.640000
344.967499	146.540000
345.060913	146.120000
345.154327	146.040000
345.247742	145.740000
345.341156	146.040000
345.434570	145.840000
345.527985	145.580000
345.621399	145.700000
345.714813	146.020000
345.808228	146.320000
345.901642	145.880000
345.995056	146.120000
346.088470	145.960000
346.181885	145.980000
346.275299	145.480000
346.368713	145.600000
346.462128	145.180000
346.555573	145.300000
346.648987	145.440000
346.742401	145.600000
346.835815	146.020000
346.929260	145.840000
347.022644	145.600000
347.116119	145.440000
347.209503	145.640000
347.302948	146.300000
347.396362	147.220000
347.489807	147.620000
347.583221	148.280000
347.676636	148.160000
347.770050	146.960000
347.863495	146.240000
347.956909	145.920000
348.050323	145.300000
348.143768	145.360000
348.237183	145.160000
348.330597	145.740000
348.424042	146.140000
348.517456	146.280000
348.610901	146.400000
348.704315	146.720000
348.797760	145.980000
348.891174	145.540000
348.984619	145.160000
349.078033	145.380000
349.171448	146.100000
349.264923	146.560000
349.358337	146.440000
349.451782	146.620000
349.545197	146.020000
349.638641	145.140000
349.732086	144.900000
349.825500	145.540000
349.918945	145.320000
350.012390	145.520000
350.105804	146.100000
350.199249	146.060000
350.292664	146.320000
350.386108	146.340000
350.479553	146.820000
350.572968	146.900000
350.666412	147.160000
350.759857	146.500000
350.853302	147.180000
350.946716	146.540000
351.040161	146.020000
351.133606	145.920000
351.227081	145.920000
351.320465	146.200000
351.413940	146.340000
351.507355	146.700000
351.600830	146.740000
351.694244	146.660000
351.787720	146.120000
351.881104	146.000000
351.974579	145.880000
352.067993	146.560000
352.161469	146.520000
352.254883	146.020000
352.348358	146.300000
352.441803	146.140000
352.535248	145.820000
352.628693	146.260000
352.722137	146.500000
352.815582	146.540000
352.909027	146.640000
353.002472	146.320000
353.095917	146.220000
353.189362	146.580000
353.282806	146.280000
353.376251	146.360000
353.469696	146.020000
353.563141	146.400000
353.656586	145.940000
353.750061	145.780000
353.843475	145.660000
353.936981	146.600000
354.030396	145.720000
354.123871	146.060000
354.217285	146.940000
354.310760	147.440000
354.404175	146.840000
354.497681	146.920000
354.591095	146.660000
354.684570	145.720000
354.777985	145.220000
354.871490	145.060000
354.964935	145.640000
355.058380	145.840000
355.151855	145.640000
355.245300	146.160000
355.338745	146.680000
355.432220	146.400000
355.525665	145.840000
355.619110	146.500000
355.712585	145.880000
355.806030	145.460000
355.899475	145.060000
355.992950	145.940000
356.086426	146.460000
356.179871	146.600000
356.273346	146.780000
356.366791	146.980000
356.460266	147.000000
356.553711	146.320000
356.647186	146.340000
356.740631	146.140000
356.834106	146.040000
356.927551	146.020000
357.021027	145.920000
357.114471	146.040000
357.207947	146.220000
357.301422	146.740000
357.394867	146.620000
357.488342	146.900000
357.581818	147.040000
357.675262	146.840000
357.768738	146.380000
357.862213	145.940000
357.955658	145.920000
358.049133	145.480000
358.142609	145.860000
358.236053	145.860000
358.329529	146.040000
358.423035	146.020000
358.516449	145.920000
358.609955	146.140000
358.703400	146.860000
358.796906	147.060000
358.890350	146.620000
358.983826	147.180000
359.077271	146.440000
359.170776	145.840000
359.264221	145.340000
359.357727	145.780000
359.451172	146.060000
359.544647	146.440000
359.638123	146.460000
359.731598	146.920000
359.825073	147.120000
359.918549	146.440000
360.012024	146.480000
360.105499	146.040000
360.198975	146.100000
360.292450	146.040000
360.385925	146.080000
360.479401	145.500000
360.572876	146.040000
360.666351	146.020000
360.759857	145.880000
360.853302	145.960000
360.946808	145.880000
361.040253	145.880000
361.133759	145.500000
361.227203	145.740000
361.320709	145.360000
361.414154	145.980000
361.507660	146.280000
361.601105	146.800000
361.694641	147.040000
361.788086	147.380000
361.881592	147.460000
361.975067	146.860000
362.068542	147.000000
362.162018	146.860000
362.255524	146.640000
362.348999	146.680000
362.442474	147.200000
362.535950	146.500000
362.629456	146.100000
362.722931	146.160000
362.816406	146.280000
362.909882	146.220000
363.003387	146.280000
363.096863	146.740000
363.190338	146.660000
363.283875	146.100000
363.377319	145.900000
363.470825	146.400000
363.564301	145.580000
363.657806	145.900000
363.751282	145.940000
363.844788	146.920000
363.938232	146.360000
364.031769	147.200000
364.125214	147.160000
364.218750	147.560000
364.312225	146.240000
364.405731	146.340000
364.499207	145.880000
364.592712	145.820000
364.686188	145.620000
364.779694	146.020000
364.873169	145.980000
364.966675	145.620000
365.060150	145.340000
365.153656	145.620000
365.247131	145.400000
365.340637	145.820000
365.434143	146.460000
365.527618	146.820000
365.621155	146.020000
365.714600	146.320000
365.808136	146.280000
365.901611	145.540000
365.995117	145.280000
366.088593	145.660000
366.182129	145.260000
366.275604	145.180000
366.369110	145.580000
366.462585	145.880000
366.556122	146.520000
366.649567	146.800000
366.743103	146.800000
366.836609	146.460000
366.930115	146.360000
367.023590	146.060000
367.117096	146.020000
367.210602	145.660000
367.304108	146.420000
367.397614	147.060000
367.491119	147.180000
367.584595	147.280000
367.678101	147.760000
367.771606	147.520000
367.865112	146.680000
367.958649	146.180000
368.052124	145.780000
368.145660	145.440000
368.239136	145.900000
368.332672	146.240000
368.426147	146.560000
368.519684	146.560000
368.613159	146.940000
368.706696	146.160000
368.800171	146.000000
368.893707	145.720000
368.987183	146.000000
369.080719	145.960000
369.174225	145.880000
369.267731	146.120000
369.361237	146.400000
369.454742	146.300000
369.548248	146.540000
369.641754	146.520000
369.735260	146.200000
369.828766	145.500000
369.922272	146.020000
370.015808	145.540000
370.109314	145.400000
370.202820	145.060000
370.296356	146.100000
370.389832	145.560000
370.483368	145.260000
370.576874	145.300000
370.670410	145.800000
370.763885	144.700000
370.857422	145.040000
370.950928	145.360000
371.044464	146.320000
371.137939	146.400000
371.231476	147.160000
371.324982	147.640000
371.418518	147.660000
371.512024	147.340000
371.605560	147.200000
371.699066	147.260000
371.792572	146.360000
371.886108	146.580000
371.979614	146.080000
372.073120	146.460000
372.166656	146.400000
372.260162	146.800000
372.353668	146.480000
372.447205	146.260000
372.540710	146.100000
372.634277	145.920000
372.727753	145.880000
372.821320	146.060000
372.914795	146.160000
373.008362	145.880000
373.101837	145.940000
373.195404	145.920000
373.288879	145.960000
373.382446	147.000000
373.475922	147.140000
373.569489	147.620000
373.662964	147.920000
373.756531	147.800000
373.850037	147.440000
373.943573	147.240000
374.037109	146.100000
374.130615	145.820000
374.224152	146.060000
374.317657	145.660000
374.411194	146.440000
374.504730	146.880000
374.598236	146.860000
374.691772	146.680000
374.785309	146.760000
374.878815	145.660000
374.972351	145.960000
375.065887	145.660000
375.159454	146.060000
375.252930	145.980000
375.346497	146.520000
375.440002	146.820000
375.533569	146.840000
375.627045	146.100000
375.720612	146.100000
375.814117	146.340000
375.907684	145.980000
376.001160	145.960000
376.094727	145.460000
376.188232	146.100000
376.281799	146.080000
376.375336	145.840000
376.468872	146.700000
376.562408	147.460000
376.655914	146.820000
376.749451	146.520000
376.842987	146.700000
376.936523	145.880000
377.030060	145.520000
377.123596	145.620000
377.217133	145.380000
377.310669	145.260000
377.404205	145.620000
377.497772	146.560000
377.591278	146.520000
377.684845	147.260000
377.778351	147.680000
377.871918	147.380000
377.965424	146.260000
378.058990	146.080000
378.152496	145.640000
378.246063	145.720000
378.339569	146.100000
378.433136	146.700000
378.526642	147.000000
378.620209	146.860000
378.713745	146.240000
378.807312	146.200000
378.900848	145.740000
378.994385	145.640000
379.087921	144.980000
379.181458	145.380000
379.274994	144.720000
379.368530	144.600000
379.462097	144.740000
379.555634	145.600000
379.649170	145.060000
379.742706	145.120000
379.836273	145.820000
379.929810	145.560000
380.023376	145.100000
380.116882	145.300000
380.210449	145.700000
380.303986	145.140000
380.397552	145.000000
380.491058	145.380000
380.584656	145.240000
380.678162	145.160000
380.771729	145.080000
380.865265	145.960000
380.958832	145.700000
381.052368	146.060000
381.145935	146.500000
381.239471	146.860000
381.333008	146.260000
381.426575	146.420000
381.520111	146.680000
381.613647	146.640000
381.707214	146.400000
381.800751	145.780000
381.894318	146.100000
381.987854	145.440000
382.081421	144.860000
382.174988	145.100000
382.268524	145.400000
382.362091	145.140000
382.455627	145.960000
382.549194	145.920000
382.642731	145.340000
382.736298	144.920000
382.829834	144.780000
382.923401	145.120000
383.016937	145.680000
383.110504	146.500000
383.204041	147.220000
383.297607	147.800000
383.391174	146.800000
383.484741	147.200000
383.578278	146.640000
383.671844	146.300000
383.765411	145.380000
383.858948	145.880000
383.952515	145.560000
384.046051	145.960000
384.139618	146.360000
384.233185	147.060000
384.326721	146.940000
384.420288	147.120000
384.513855	147.240000
384.607422	147.480000
384.700989	147.540000
384.794525	147.160000
384.888123	146.740000
384.981659	146.460000
385.075226	145.840000
385.168762	145.180000
385.262360	145.160000
385.355896	144.640000
385.449463	144.660000
385.542999	145.080000
385.636597	146.040000
385.730164	146.420000
385.823730	146.520000
385.917267	146.220000
386.010834	146.080000
386.104401	145.700000
386.197968	145.920000
386.291534	146.400000
386.385101	146.820000
386.478668	147.020000
386.572235	146.740000
386.665802	146.220000
386.759338	146.040000
386.852905	145.600000
386.946472	145.440000
387.040070	145.740000
387.133606	145.880000
387.227203	145.580000
387.320740	146.220000
387.414337	145.740000
387.507874	145.620000
387.601471	145.760000
387.695007	145.700000
387.788605	145.220000
387.882141	145.760000
387.975739	145.760000
388.069275	145.340000
388.162872	146.100000
388.256439	146.060000
388.350037	146.100000
388.443604	145.980000
388.537170	145.960000
388.630737	145.960000
388.724304	146.180000
388.817871	145.760000
388.911438	145.980000
389.005005	146.580000
389.098602	146.700000
389.192169	146.420000
389.285736	147.160000
389.379333	147.000000
389.472870	146.500000
389.566467	146.280000
389.660034	146.660000
389.753632	146.020000
389.847168	146.380000
389.940765	146.580000
390.034332	146.720000
390.127930	146.260000
390.221466	146.160000
390.315063	145.400000
390.408630	144.880000
390.502228	144.060000
390.595795	144.260000
390.689362	144.540000
390.782959	145.100000
390.876526	145.680000
390.970093	146.160000
391.063690	146.640000
391.157257	146.380000
391.250824	146.620000
391.344421	146.520000
391.437988	146.360000
391.531555	146.400000
391.625153	146.640000
391.718750	146.280000
391.812317	145.820000
391.905914	145.660000
391.999481	145.180000
392.093079	145.240000
392.186615	145.820000
392.280243	146.160000
392.373779	146.500000
392.467407	147.040000
392.560944	146.820000
392.654572	146.040000
392.748108	146.160000
392.841736	146.380000
392.935303	145.980000
393.028900	145.740000
393.122467	146.080000
393.216064	145.540000
393.309631	144.780000
393.403229	144.520000
393.496796	144.760000
393.590393	144.020000
393.683990	144.480000
393.777557	145.140000
393.871155	145.380000
393.964722	145.760000
394.058350	146.260000
394.151917	146.120000
394.245514	145.540000
394.339081	145.840000
394.432678	146.220000
394.526245	146.080000
394.619873	145.580000
394.713409	146.140000
394.807037	145.800000
394.900604	145.480000
394.994202	145.820000
395.087769	146.640000
395.181396	146.140000
395.274994	146.760000
395.368561	145.880000
395.462158	146.080000
395.555756	145.460000
395.649353	145.900000
395.742920	145.400000
395.836517	146.200000
395.930115	145.120000
396.023712	145.680000
396.117279	145.620000
396.210876	145.180000
396.304474	145.080000
396.398071	145.920000
396.491669	146.320000
396.585266	146.020000
396.678833	146.300000
396.772461	146.540000
396.866028	146.680000
396.959656	146.520000
397.053223	146.940000
397.146851	147.180000
397.240417	147.420000
397.334015	148.080000
397.427582	148.500000
397.521210	149.680000
397.614807	151.480000
397.708405	153.440000
397.802002	155.940000
397.895599	159.960000
397.989197	164.420000
398.082794	169.940000
398.176392	177.580000
398.269989	185.860000
398.363586	195.920000
398.457184	208.140000
398.550781	221.920000
398.644379	235.620000
398.737976	251.300000
398.831573	268.400000
398.925201	285.320000
399.018768	303.860000
399.112396	325.080000
399.205963	348.620000
399.299591	374.060000
399.393158	402.340000
399.486786	432.220000
399.580353	461.540000
399.673981	488.120000
399.767578	512.560000
399.861206	533.160000
399.954773	547.560000
400.048401	554.140000
400.141998	555.300000
400.235596	549.980000
400.329193	539.600000
400.422791	525.520000
400.516418	511.240000
400.610016	496.840000
400.703613	480.700000
400.797211	460.720000
400.890808	439.880000
400.984436	417.000000
401.078033	391.480000
401.171631	365.900000
401.265259	341.440000
401.358826	317.860000
401.452484	294.560000
401.546051	273.160000
401.639679	251.940000
401.733246	234.040000
401.826904	216.700000
401.920471	201.980000
402.014099	189.180000
402.107697	179.300000
402.201324	170.900000
402.294891	164.840000
402.388550	160.380000
402.482147	157.000000
402.575745	153.940000
402.669373	151.320000
402.762970	149.740000
402.856567	148.740000
402.950195	148.260000
403.043793	147.740000
403.137390	148.040000
403.231018	147.180000
403.324615	147.380000
403.418243	146.640000
403.511841	147.120000
403.605469	147.020000
403.699066	147.320000
403.792694	147.160000
403.886292	147.480000
403.979919	147.100000
404.073517	146.640000
404.167145	146.880000
404.260712	147.020000
404.354370	146.820000
404.447937	147.120000
404.541595	147.440000
404.635162	147.660000
404.728821	147.580000
404.822418	147.360000
404.916046	146.940000
405.009644	147.260000
405.103271	147.320000
405.196899	147.220000
405.290497	147.360000
405.384125	147.540000
405.477722	146.860000
405.571350	146.240000
405.664948	146.140000
405.758575	146.060000
405.852203	145.780000
405.945801	146.120000
406.039429	146.120000
406.133057	146.000000
406.226654	145.980000
406.320312	145.820000
406.413879	145.620000
406.507538	146.040000
406.601135	145.560000
406.694763	145.700000
406.788361	145.740000
406.882019	145.500000
406.975586	145.400000
407.069244	146.260000
407.162872	146.320000
407.256470	146.520000
407.350098	146.720000
407.443726	146.560000
407.537323	146.000000
407.630951	146.100000
407.724579	145.780000
407.818207	146.200000
407.911804	146.140000
408.005432	146.160000
408.099060	146.320000
408.192688	146.740000
408.286285	146.260000
408.379913	146.240000
408.473572	146.420000
408.567169	145.960000
408.660828	146.080000
408.754395	146.060000
408.848053	146.060000
408.941650	146.080000
409.035309	145.860000
409.128906	145.540000
409.222565	145.580000
409.316132	145.640000
409.409790	145.140000
409.503387	145.360000
409.597046	145.660000
409.690674	145.680000
409.784302	145.900000
409.877930	146.220000
409.971558	146.200000
410.065186	146.000000
410.158783	146.160000
410.252411	146.080000
410.346039	146.460000
410.439667	146.420000
410.533295	146.540000
410.626923	146.840000
410.720551	146.460000
410.814209	146.520000
410.907806	146.780000
411.001465	146.220000
411.095062	146.100000
411.188721	146.340000
411.282318	145.800000
411.375977	145.500000
411.469574	145.900000
411.563232	145.280000
411.656830	145.320000
411.750488	145.300000
411.844086	145.220000
411.937744	145.200000
412.031372	145.700000
412.125000	145.580000
412.218628	145.780000
412.312256	146.520000
412.405884	147.060000
412.499512	146.500000
412.593170	146.780000
412.686798	147.000000
412.780426	146.020000
412.874054	146.120000
412.967682	146.660000
413.061310	147.220000
413.154968	147.100000
413.248566	147.580000
413.342224	147.260000
413.435852	147.360000
413.529510	146.680000
413.623108	146.060000
413.716766	145.860000
413.810364	146.220000
413.904022	145.780000
413.997650	145.480000
414.091309	146.480000
414.184906	146.560000
414.278564	145.760000
414.372192	146.080000
414.465851	146.480000
414.559479	145.980000
414.653107	146.840000
414.746735	146.620000
414.840393	146.660000
414.934021	146.740000
415.027649	146.320000
415.121277	145.960000
415.214935	146.480000
415.308563	146.480000
415.402191	145.840000
415.495850	146.300000
415.589478	145.900000
415.683136	145.960000
415.776733	146.280000
415.870422	147.040000
415.964020	146.560000
416.057678	146.840000
416.151306	146.900000
416.244965	146.560000
416.338562	145.920000
416.432251	146.860000
416.525848	147.460000
416.619507	147.580000
416.713165	147.980000
416.806793	148.420000
416.900421	148.120000
416.994080	147.120000
417.087708	146.700000
417.181366	146.040000
417.274994	145.680000
417.368622	145.860000
417.462280	146.400000
417.555908	146.620000
417.649567	146.700000
417.743195	146.840000
417.836853	146.480000
417.930481	146.460000
418.024170	146.380000
418.117767	146.940000
418.211426	147.160000
418.305054	147.420000
418.398712	146.740000
418.492340	146.660000
418.585999	146.720000
418.679626	146.860000
418.773285	146.860000
418.866913	147.480000
418.960571	147.860000
419.054230	147.680000
419.147858	147.680000
419.241516	147.660000
419.335144	147.060000
419.428802	146.960000
419.522461	146.600000
419.616089	145.960000
419.709747	145.840000
419.803375	146.320000
419.897034	146.020000
419.990662	145.980000
420.084320	146.640000
420.177979	146.880000
420.271606	147.080000
420.365295	147.420000
420.458893	147.700000
420.552582	147.600000
420.646210	147.700000
420.739868	147.300000
420.833496	147.060000
420.927155	146.320000
421.020782	146.120000
421.114471	145.460000
421.208069	145.700000
421.301758	145.680000
421.395386	146.240000
421.489044	146.100000
421.582703	146.620000
421.676361	146.840000
421.769989	146.540000
421.863647	146.980000
421.957306	147.100000
422.050934	147.080000
422.144592	146.900000
422.238251	146.660000
422.331909	146.140000
422.425537	146.020000
422.519196	145.800000
422.612854	145.360000
422.706543	145.500000
422.800140	145.980000
422.893829	145.980000
422.987457	145.540000
423.081146	146.020000
423.174744	146.660000
423.268433	145.940000
423.362061	145.600000
423.455750	145.780000
423.549347	145.500000
423.643036	144.860000
423.736664	145.340000
423.830353	145.720000
423.924011	146.160000
424.017639	145.700000
424.111298	145.860000
424.204956	145.780000
424.298615	145.740000
424.392273	145.620000
424.485931	146.040000
424.579559	146.220000
424.673218	146.060000
424.766876	146.400000
424.860535	146.060000
424.954193	145.960000
425.047882	146.500000
425.141510	146.500000
425.235199	146.160000
425.328796	145.960000
425.422485	145.500000
425.516113	144.680000
425.609802	144.460000
425.703430	144.560000
425.797119	144.580000
425.890747	145.100000
425.984436	145.360000
426.078064	145.640000
426.171753	145.940000
426.265411	145.960000
426.359070	145.880000
426.452728	146.020000
426.546356	145.760000
426.640015	145.340000
426.733673	145.620000
426.827332	145.320000
426.920990	146.000000
427.014648	145.840000
427.108307	146.120000
427.201965	146.500000
427.295624	146.920000
427.389282	145.880000
427.482941	146.360000
427.576630	146.200000
427.670258	145.520000
427.763947	145.200000
427.857574	145.340000
427.951263	145.140000
428.044922	144.860000
428.138611	144.900000
428.232239	145.820000
428.325928	146.380000
428.419556	146.860000
428.513245	146.860000
428.606903	147.240000
428.700562	146.440000
428.794220	145.580000
428.887878	145.000000
428.981537	145.200000
429.075195	145.340000
429.168854	145.780000
429.262512	145.860000
429.356201	145.860000
429.449860	145.940000
429.543518	145.800000
429.637177	145.640000
429.730835	145.840000
429.824493	145.940000
429.918182	146.100000
430.011810	145.620000
430.105530	145.220000
430.199158	145.600000
430.292847	145.560000
430.386475	145.340000
430.480164	145.220000
430.573792	145.340000
430.667511	144.980000
430.761139	144.940000
430.854828	145.300000
430.948456	145.620000
431.042145	145.960000
431.135834	145.880000
431.229492	146.340000
431.323151	146.380000
431.416809	146.440000
431.510468	146.580000
431.604156	146.640000
431.697815	146.440000
431.791473	145.880000
431.885132	145.600000
431.978821	145.560000
432.072479	145.800000
432.166138	146.480000
432.259827	146.580000
432.353485	147.260000
432.447174	147.240000
432.540802	147.060000
432.634491	146.560000
432.728149	146.840000
432.821838	147.080000
432.915466	146.660000
433.009186	146.700000
433.102814	146.180000
433.196503	145.840000
433.290131	145.320000
433.383850	145.500000
433.477509	145.420000
433.571167	146.420000
433.664856	146.780000
433.758514	147.100000
433.852173	147.040000
433.945862	146.880000
434.039520	146.420000
434.133179	145.800000
434.226868	145.320000
434.320526	144.860000
434.414185	145.300000
434.507874	144.920000
434.601562	145.420000
434.695221	145.560000
434.788910	146.040000
434.882538	146.180000
434.976257	145.800000
435.069885	145.840000
435.163574	145.980000
435.257233	145.400000
435.350922	145.180000
435.444580	145.480000
435.538269	145.300000
435.631897	145.340000
435.725616	146.000000
435.819275	146.420000
435.912964	146.960000
436.006622	147.320000
436.100311	147.340000
436.193970	147.260000
436.287628	146.760000
436.381317	146.420000
436.474976	145.920000
436.568665	145.380000
436.662323	145.080000
436.756012	145.180000
436.849670	145.040000
436.943390	145.200000
437.037018	145.420000
437.130737	145.740000
437.224365	145.420000
437.318085	145.500000
437.411713	145.500000
437.505432	145.860000
437.599060	146.400000
437.692780	147.000000
437.786407	147.120000
437.880127	147.280000
437.973755	146.760000
438.067474	146.040000
438.161133	145.800000
438.254822	146.000000
438.348480	145.720000
438.442169	146.520000
438.535828	147.000000
438.629517	146.680000
438.723175	145.880000
438.816864	146.280000
438.910553	145.360000
439.004211	145.100000
439.097900	144.900000
439.191559	145.300000
439.285248	144.440000
439.378906	145.080000
439.472626	144.680000
439.566284	144.800000
439.659973	144.860000
439.753632	145.240000
439.847321	145.640000
439.940979	146.100000
440.034698	146.300000
440.128326	146.060000
440.222046	145.900000
440.315674	144.880000
440.409393	144.840000
440.503082	144.820000
440.596741	145.240000
440.690430	145.600000
440.784088	145.660000
440.877777	144.940000
440.971466	144.800000
441.065125	144.500000
441.158813	144.140000
441.252502	144.420000
441.346161	145.000000
441.439850	145.460000
441.533539	145.320000
441.627197	146.060000
441.720886	146.020000
441.814606	146.440000
441.908234	146.540000
442.001953	146.680000
442.095612	146.440000
442.189301	146.620000
442.282959	146.300000
442.376678	145.600000
442.470306	146.260000
442.564026	145.800000
442.657684	145.860000
442.751404	145.840000
442.845032	146.540000
442.938751	145.700000
443.032440	146.000000
443.126099	145.680000
443.219788	146.180000
443.313477	145.980000
443.407166	146.460000
443.500824	146.440000
443.594513	146.820000
443.688202	146.360000
443.781891	145.760000
443.875549	145.260000
443.969238	145.300000
444.062927	145.060000
444.156647	145.220000
444.250275	145.840000
444.343994	146.420000
444.437653	146.320000
444.531372	146.360000
444.625031	146.140000
444.718719	145.640000
444.812378	145.380000
444.906097	145.300000
444.999756	144.860000
445.093445	144.980000
445.187103	145.120000
445.280823	145.540000
445.374512	145.360000
445.468201	145.720000
445.561859	145.220000
445.655548	145.300000
445.749237	144.620000
445.842926	144.800000
445.936615	145.140000
446.030304	145.360000
446.123962	145.660000
446.217651	145.760000
446.311340	145.880000
446.405029	145.340000
446.498749	145.220000
446.592407	144.940000
446.686096	145.200000
446.779755	145.680000
446.873474	145.840000
446.967133	146.340000
447.060852	146.160000
447.154510	145.920000
447.248230	145.700000
447.341858	145.640000
447.435577	145.180000
447.529236	145.100000
447.622955	144.880000
447.716644	144.440000
447.810333	144.600000
447.904022	145.100000
447.997711	145.260000
448.091400	145.820000
448.185059	146.140000
448.278748	146.400000
448.372437	145.960000
448.466125	146.280000
448.559814	146.020000
448.653503	146.320000
448.747192	146.220000
448.840912	146.640000
448.934570	146.340000
449.028290	146.780000
449.121948	146.300000
449.215637	146.100000
449.309296	145.700000
449.403015	145.860000
449.496674	145.760000
449.590393	145.680000
449.684052	145.660000
449.777771	146.540000
449.871429	145.880000
449.965149	145.700000
450.058838	146.100000
450.152527	146.640000
450.246216	145.980000
450.339905	146.360000
450.433594	145.980000
450.527283	146.460000
450.620972	145.600000
450.714661	145.620000
450.808350	146.060000
450.902039	146.480000
450.995728	145.920000
451.089417	145.980000
451.183105	145.820000
451.276794	145.980000
451.370514	145.300000
451.464172	144.700000
451.557892	144.900000
451.651550	145.340000
451.745270	144.860000
451.838928	144.820000
451.932648	145.520000
452.026306	146.060000
452.120026	145.700000
452.213684	146.440000
452.307404	146.840000
452.401062	146.860000
452.494781	146.800000
452.588470	146.960000
452.682159	146.020000
452.775848	146.300000
452.869537	145.820000
452.963226	145.220000
453.056915	145.060000
453.150604	145.200000
453.244293	145.340000
453.337982	146.100000
453.431671	146.680000
453.525360	147.240000
453.619049	147.180000
453.712769	146.820000
453.806427	146.260000
453.900146	145.640000
453.993805	145.380000
454.087555	145.800000
454.181213	145.880000
454.274933	145.580000
454.368591	145.760000
454.462311	145.340000
454.555969	145.000000
454.649689	145.680000
454.743347	145.740000
454.837067	146.560000
454.930756	147.120000
455.024445	147.480000
455.118134	147.080000
455.211853	147.380000
455.305542	146.680000
455.399231	146.280000
455.492920	146.000000
455.586609	145.940000
455.680298	145.880000
455.773987	145.680000
455.867676	145.780000
455.961365	145.840000
456.055084	145.540000
456.148773	145.360000
456.242493	145.640000
456.336151	145.880000
456.429871	146.300000
456.523529	146.940000
456.617249	146.740000
456.710907	147.220000
456.804626	146.920000
456.898315	146.240000
456.992035	145.600000
457.085693	145.600000
457.179413	144.960000
457.273102	145.860000
457.366791	146.200000
457.460480	146.760000
457.554199	147.260000
457.647888	147.440000
457.741577	146.680000
457.835266	146.520000
457.928955	146.540000
458.022644	146.940000
458.116364	146.900000
458.210052	146.840000
458.303741	147.000000
458.397461	146.380000
458.491119	145.600000
458.584839	145.420000
458.678528	145.160000
458.772247	144.920000
458.865906	145.180000
458.959625	146.100000
459.053284	146.380000
459.147003	146.260000
459.240692	146.960000
459.334412	147.160000
459.428070	146.500000
459.521790	146.280000
459.615479	146.740000
459.709198	146.920000
459.802887	146.260000
459.896576	145.940000
459.990265	146.160000
460.083954	146.100000
460.177673	145.240000
460.271362	145.680000
460.365051	146.040000
460.458740	145.700000
460.552429	145.240000
460.646149	145.240000
460.739838	144.980000
460.833527	144.820000
460.927246	144.420000
461.020905	144.520000
461.114655	144.660000
461.208313	144.880000
461.302032	144.620000
461.395691	145.140000
461.489441	145.220000
461.583099	144.980000
461.676819	144.620000
461.770477	145.400000
461.864197	145.040000
461.957916	144.900000
462.051605	144.620000
462.145294	145.560000
462.238983	144.900000
462.332703	145.480000
462.426392	146.140000
462.520081	146.360000
462.613770	145.760000
462.707489	145.900000
462.801178	145.860000
462.894867	145.500000
462.988556	145.620000
463.082275	145.580000
463.175964	145.660000
463.269684	145.800000
463.363342	145.900000
463.457092	145.620000
463.550751	145.780000
463.644470	145.780000
463.738129	145.460000
463.831879	145.700000
463.925537	146.740000
464.019257	146.820000
464.112946	146.760000
464.206665	146.700000
464.300323	146.240000
464.394043	145.420000
464.487762	145.440000
464.581451	145.800000
464.675140	145.640000
464.768829	145.860000
464.862549	145.980000
464.956238	145.940000
465.049927	145.880000
465.143646	146.260000
465.237335	146.140000
465.331024	146.780000
465.424713	146.600000
465.518433	146.260000
465.612152	146.020000
465.705811	145.980000
465.799561	145.200000
465.893219	145.060000
465.986938	145.220000
466.080597	145.060000
466.174347	145.400000
466.268005	145.560000
466.361725	145.660000
466.455414	145.260000
466.549133	145.240000
466.642792	145.200000
466.736542	144.940000
466.830231	144.920000
466.923920	145.140000
467.017609	145.300000
467.111328	144.740000
467.205017	145.120000
467.298706	145.120000
467.392426	145.380000
467.486115	145.480000
467.579803	145.420000
467.673523	145.860000
467.767212	146.040000
467.860901	145.940000
467.954651	146.100000
468.048309	146.520000
468.142029	146.080000
468.235718	146.120000
468.329437	146.000000
468.423096	146.000000
468.516846	145.600000
468.610504	145.260000
468.704224	144.860000
468.797913	144.540000
468.891632	144.780000
468.985291	145.060000
469.079010	145.360000
469.172729	145.060000
469.266418	145.560000
469.360107	145.400000
469.453827	145.200000
469.547516	145.540000
469.641205	146.520000
469.734924	146.620000
469.828613	146.880000
469.922302	147.220000
470.016022	146.920000
470.109711	146.100000
470.203430	145.360000
470.297150	144.260000
470.390808	144.520000
470.484558	144.480000
470.578217	145.220000
470.671936	146.180000
470.765625	147.280000
470.859344	146.840000
470.953003	146.880000
471.046753	146.460000
471.140411	145.720000
471.234131	145.380000
471.327820	146.000000
471.421539	146.200000
471.515228	145.900000
471.608948	146.260000
471.702637	145.880000
471.796326	145.180000
471.890045	145.280000
471.983734	145.620000
472.077423	145.440000
472.171143	145.740000
472.264832	145.860000
472.358521	145.480000
472.452240	145.380000
472.545929	146.100000
472.639648	146.220000
472.733337	146.580000
472.827057	146.560000
472.920746	146.380000
473.014465	146.380000
473.108124	146.040000
473.201874	145.980000
473.295532	145.980000
473.389252	146.760000
473.482941	146.360000
473.576660	146.260000
473.670319	146.060000
473.764069	146.200000
473.857727	145.960000
473.951477	146.080000
474.045166	146.640000
474.138855	146.680000
474.232574	146.500000
474.326263	146.640000
474.419952	146.980000
474.513672	146.660000
474.607361	146.280000
474.701050	146.520000
474.794769	146.460000
474.888458	146.260000
474.982178	146.260000
475.075867	146.600000
475.169586	146.440000
475.263275	146.260000
475.356995	146.180000
475.450653	146.160000
475.544403	145.640000
475.638062	146.500000
475.731812	146.160000
475.825470	145.940000
475.919189	146.140000
476.012878	146.680000
476.106598	145.700000
476.200256	146.000000
476.294006	145.760000
476.387695	145.560000
476.481384	145.280000
476.575104	145.560000
476.668793	145.300000
476.762512	144.880000
476.856201	145.480000
476.949890	145.400000
477.043610	145.000000
477.137299	144.960000
477.230988	145.840000
477.324707	145.340000
477.418396	145.880000
477.512146	146.320000
477.605804	146.320000
477.699524	146.320000
477.793213	146.640000
477.886932	146.400000
477.980591	145.940000
478.074341	145.900000
478.167999	145.280000
478.261749	144.860000
478.355408	144.600000
478.449127	144.800000
478.542816	146.000000
478.636536	146.620000
478.730225	147.000000
478.823944	147.680000
478.917633	147.380000
479.011322	146.680000
479.105042	146.560000
479.198730	146.480000
479.292450	145.980000
479.386139	146.280000
479.479828	146.280000
479.573547	146.520000
479.667267	146.340000
479.760925	146.220000
479.854675	146.700000
479.948334	146.920000
480.042084	146.600000
480.135742	146.900000
480.229462	146.780000
480.323151	146.660000
480.416870	145.800000
480.510529	145.640000
480.604279	145.300000
480.697937	145.820000
480.791656	145.260000
480.885345	145.440000
480.979065	145.580000
481.072754	146.040000
481.166473	146.120000
481.260132	146.340000
481.353882	146.420000
481.447540	146.060000
481.541260	145.580000
481.635010	145.220000
481.728668	145.260000
481.822388	145.040000
481.916077	145.280000
482.009796	145.280000
482.103485	145.400000
482.197205	145.280000
482.290863	145.520000
482.384613	145.460000
482.478271	145.300000
482.571991	145.360000
482.665680	145.420000
482.759399	146.300000
482.853058	146.600000
482.946808	146.660000
483.040466	146.400000
483.134216	146.200000
483.227875	145.400000
483.321594	145.640000
483.415283	145.600000
483.509003	145.740000
483.602661	145.940000
483.696411	146.320000
483.790070	146.100000
483.883789	145.960000
483.977478	146.200000
484.071198	146.320000
484.164917	145.700000
484.258606	145.280000
484.352325	145.780000
484.445984	145.840000
484.539734	145.660000
484.633392	145.260000
484.727142	145.880000
484.820801	145.480000
484.914520	145.220000
485.008209	145.620000
485.101929	146.480000
485.195587	145.600000
485.289337	145.820000
485.382996	146.060000
485.476715	145.820000
485.570404	145.960000
485.664124	146.360000
485.757782	147.080000
485.851532	146.280000
485.945190	146.200000
486.038910	145.960000
486.132599	146.220000
486.226318	145.280000
486.319977	145.760000
486.413727	146.400000
486.507446	146.440000
486.601105	145.920000
486.694855	145.880000
486.788513	145.560000
486.882233	144.880000
486.975922	144.680000
487.069641	144.820000
487.163300	144.960000
487.257050	146.140000
487.350708	146.100000
487.444427	145.860000
487.538116	145.640000
487.631836	145.560000
487.725494	144.860000
487.819214	145.020000
487.912903	145.000000
488.006622	145.480000
488.100281	145.600000
488.194031	145.680000
488.287689	145.860000
488.381409	146.720000
488.475098	146.500000
488.568817	146.540000
488.662476	146.220000
488.756226	145.840000
488.849945	144.820000
488.943604	144.900000
489.037354	145.000000
489.131012	145.180000
489.224731	145.260000
489.318390	145.700000
489.412140	146.000000
489.505798	145.980000
489.599518	145.680000
489.693207	146.080000
489.786926	145.740000
489.880585	145.500000
489.974335	145.540000
490.067993	146.420000
490.161713	146.380000
490.255371	147.320000
490.349121	147.220000
490.442780	146.900000
490.536499	146.060000
490.630188	145.920000
490.723907	145.100000
490.817566	145.480000
490.911285	145.800000
491.004974	145.860000
491.098694	145.620000
491.192413	146.260000
491.286102	146.120000
491.379822	145.960000
491.473480	146.340000
491.567200	146.180000
491.660889	145.340000
491.754608	145.120000
491.848267	145.240000
491.941986	144.840000
492.035675	145.180000
492.129395	145.980000
492.223053	146.020000
492.316772	145.980000
492.410461	146.020000
492.504181	146.080000
492.597839	145.500000
492.691559	145.620000
492.785248	145.720000
492.878967	145.800000
492.972626	145.400000
493.066345	145.620000
493.160034	145.140000
493.253754	145.020000
493.347412	144.380000
493.441132	144.560000
493.534882	145.060000
493.628540	145.740000
493.722260	145.840000
493.815918	146.540000
493.909668	146.960000
494.003326	147.180000
494.097046	146.900000
494.190704	146.580000
494.284454	146.540000
494.378113	146.360000
494.471832	145.760000
494.565491	145.680000
494.659210	145.700000
494.752899	145.700000
494.846619	145.460000
494.940277	145.660000
495.033997	145.640000
495.127686	145.660000
495.221405	145.380000
495.315063	145.440000
495.408783	145.000000
495.502441	145.200000
495.596191	145.440000
495.689850	145.540000
495.783569	145.820000
495.877228	146.120000
495.970947	146.020000
496.064697	145.900000
496.158356	146.560000
496.252075	146.400000
496.345734	146.200000
496.439453	146.760000
496.533142	146.800000
496.626862	147.020000
496.720520	147.100000
496.814240	147.380000
496.907898	146.880000
497.001617	147.140000
497.095306	146.260000
497.189026	146.060000
497.282684	146.040000
497.376404	146.300000
497.470062	145.680000
497.563782	145.800000
497.657471	145.960000
497.751190	145.540000
497.844849	145.060000
497.938568	145.720000
498.032227	146.100000
498.125946	145.900000
498.219635	146.140000
498.313354	146.480000
498.407074	146.220000
498.500732	146.280000
498.594452	146.640000
498.688110	146.180000
498.781830	145.620000
498.875519	145.320000
498.969238	144.960000
499.062897	144.880000
499.156616	145.780000
499.250275	146.420000
499.343994	146.020000
499.437653	146.060000
499.531372	146.160000
499.625061	146.260000
499.718781	146.200000
499.812439	146.900000
499.906158	146.700000
499.999817	146.260000
500.093536	145.720000
500.187195	145.700000
500.280914	145.600000
500.374573	145.720000
500.468323	145.540000
500.561981	145.680000
500.655701	145.420000
500.749420	145.500000
500.843079	145.740000
500.936798	146.040000
501.030457	146.220000
501.124176	146.540000
501.217834	146.600000
501.311554	146.500000
501.405212	146.020000
501.498962	145.260000
501.592621	145.000000
501.686340	145.360000
501.779999	145.360000
501.873718	145.980000
501.967377	146.380000
502.061096	146.740000
502.154755	146.100000
502.248474	145.940000
502.342133	145.760000
502.435852	145.680000
502.529510	146.220000
502.623230	146.680000
502.716888	146.320000
502.810608	146.440000
502.904266	147.100000
502.997986	146.060000
503.091705	145.680000
503.185364	145.860000
503.279083	145.820000
503.372772	145.420000
503.466492	145.160000
503.560150	145.460000
503.653870	145.900000
503.747528	146.100000
503.841248	146.160000
503.934906	146.820000
504.028625	146.340000
504.122284	146.420000
504.216003	146.860000
504.309662	146.300000
504.403381	146.140000
504.497040	146.240000
504.590759	145.780000
504.684418	145.660000
504.778137	146.380000
504.871796	146.580000
504.965515	146.660000
505.059174	146.980000
505.152893	146.460000
505.246521	145.840000
505.340240	145.700000
505.433899	145.760000
505.527618	145.860000
505.621338	146.320000
505.714996	146.220000
505.808716	146.060000
505.902374	146.660000
505.996094	146.460000
506.089752	145.880000
506.183472	146.200000
506.277130	146.260000
506.370850	145.840000
506.464508	145.660000
506.558228	145.840000
506.651886	145.540000
506.745605	145.840000
506.839264	145.960000
506.932983	145.820000
507.026611	145.660000
507.120331	146.240000
507.213989	145.520000
507.307709	145.640000
507.401367	146.200000
507.495087	147.140000
507.588745	146.580000
507.682465	147.520000
507.776123	147.200000
507.869843	147.040000
507.963531	146.420000
508.057190	147.180000
508.150909	146.260000
508.244568	146.240000
508.338287	145.800000
508.431946	145.580000
508.525665	144.900000
508.619324	145.160000
508.713013	145.340000
508.806671	145.940000
508.900391	146.700000
508.994049	147.040000
509.087769	146.640000
509.181427	146.500000
509.275146	146.160000
509.368774	145.160000
509.462494	145.000000
509.556152	145.340000
509.649872	145.660000
509.743530	145.800000
509.837250	146.040000
509.930878	146.200000
510.024597	146.080000
510.118256	145.660000
510.211975	145.400000
510.305695	145.400000
510.399353	145.600000
510.493042	146.320000
510.586700	146.300000
510.680420	147.300000
510.774078	147.140000
510.867798	147.220000
510.961426	146.560000
511.055145	146.760000
511.148804	146.100000
511.242523	146.820000
511.336151	146.580000
511.429871	147.340000
511.523529	147.060000
511.617249	146.500000
511.710876	146.000000
511.804596	145.640000
511.898254	145.060000
511.991974	145.340000
512.085632	145.580000
512.179321	145.520000
512.272949	145.960000
512.366699	146.140000
512.460327	145.960000
512.554077	146.880000
512.647766	146.900000
512.741394	146.820000
512.835144	147.460000
512.928772	147.200000
513.022461	146.620000
513.116150	146.340000
513.209839	146.640000
513.303467	145.460000
513.397217	145.660000
513.490845	145.500000
513.584595	145.660000
513.678223	145.060000
513.771912	144.640000
513.865601	144.640000
513.959290	144.280000
514.052917	144.360000
514.146667	145.060000
514.240295	145.980000
514.333984	146.420000
514.427673	146.540000
514.521362	147.000000
514.614990	146.180000
514.708740	146.140000
514.802368	146.180000
514.896057	146.520000
514.989746	146.800000
515.083435	147.220000
515.177124	147.380000
515.270752	146.880000
515.364502	146.560000
515.458130	146.220000
515.551819	145.680000
515.645508	145.480000
515.739197	145.360000
515.832825	145.460000
515.926575	145.220000
516.020203	145.840000
516.113892	146.140000
516.207520	146.280000
516.301270	146.540000
516.394897	146.720000
516.488586	147.000000
516.582275	146.860000
516.675964	146.540000
516.769592	146.220000
516.863281	146.660000
516.956970	146.700000
517.050659	146.540000
517.144287	146.900000
517.238037	147.100000
517.331665	146.120000
517.425354	145.520000
517.519043	145.220000
517.612732	145.560000
517.706421	145.280000
517.800049	145.360000
517.893738	144.900000
517.987427	145.060000
518.081116	144.380000
518.174744	144.300000
518.268433	144.700000
518.362122	145.700000
518.455811	145.640000
518.549438	146.660000
518.643127	147.740000
518.736816	147.440000
518.830505	146.920000
518.924133	147.120000
519.017822	146.900000
519.111511	146.260000
519.205200	146.820000
519.298828	146.900000
519.392517	146.780000
519.486206	146.700000
519.579895	146.500000
519.673523	145.980000
519.767212	145.920000
519.860901	146.060000
519.954590	145.680000
520.048279	145.320000
520.141907	145.080000
520.235596	145.600000
520.329224	146.060000
520.422974	146.120000
520.516602	146.520000
520.610291	146.500000
520.703918	146.240000
520.797607	145.680000
520.891296	145.620000
520.984985	145.860000
521.078613	146.640000
521.172302	146.440000
521.265930	147.500000
521.359680	148.120000
521.453308	147.840000
521.546997	147.440000
521.640625	147.700000
521.734314	146.620000
521.827942	146.400000
521.921692	146.800000
522.015320	146.840000
522.109009	146.400000
522.202698	146.540000
522.296326	146.520000
522.390015	146.480000
522.483704	146.620000
522.577393	146.500000
522.671021	146.360000
522.764709	145.920000
522.858337	145.980000
522.952026	145.800000
523.045654	146.300000
523.139404	146.880000
523.233032	147.240000
523.326721	147.060000
523.420349	147.080000
523.514038	146.660000
523.607666	146.800000
523.701355	146.220000
523.795044	146.100000
523.888733	146.360000
523.982361	146.700000
524.076050	146.100000
524.169678	146.780000
524.263367	146.400000
524.356995	146.080000
524.450684	146.020000
524.544373	145.980000
524.638062	145.820000
524.731750	146.140000
524.825378	146.240000
524.919067	146.000000
525.012695	146.040000
525.106384	145.560000
525.200012	145.700000
525.293701	145.780000
525.387329	146.220000
525.481018	146.440000
525.574646	146.980000
525.668396	146.900000
525.762024	146.900000
525.855713	146.780000
525.949341	146.080000
526.043030	146.000000
526.136658	145.900000
526.230347	145.820000
526.323975	145.660000
526.417664	146.060000
526.511292	146.000000
526.604980	145.980000
526.698608	145.880000
526.792297	145.880000
526.885925	146.100000
526.979614	146.260000
527.073303	146.460000
527.166931	146.440000
527.260620	146.580000
527.354309	146.820000
527.447998	146.920000
527.541626	146.600000
527.635315	146.620000
527.728943	147.060000
527.822632	146.840000
527.916260	146.660000
528.009949	147.340000
528.103577	147.400000
528.197266	146.740000
528.290894	146.920000
528.384583	147.060000
528.478210	146.820000
528.571899	147.180000
528.665527	147.720000
528.759216	147.640000
528.852844	147.920000
528.946533	147.740000
529.040161	147.620000
529.133850	147.120000
529.227478	147.300000
529.321167	147.000000
529.414856	147.580000
529.508484	147.560000
529.602173	147.380000
529.695801	147.220000
529.789490	147.240000
529.883057	146.460000
529.976746	146.580000
530.070374	147.260000
530.164062	147.300000
530.257690	147.260000
530.351379	147.340000
530.445007	147.200000
530.538696	146.340000
530.632324	146.460000
530.726013	146.520000
530.819641	146.740000
530.913330	146.860000
531.006958	147.040000
531.100647	146.820000
531.194275	146.700000
531.287964	146.480000
531.381592	146.180000
531.475220	146.400000
531.568848	146.240000
531.662537	146.000000
531.756226	146.520000
531.849854	146.280000
531.943542	146.220000
532.037170	145.720000
532.130859	146.280000
532.224487	145.800000
532.318176	145.900000
532.411804	146.420000
532.505432	147.080000
532.599060	146.560000
532.692749	146.600000
532.786377	147.000000
532.880066	146.280000
532.973694	145.960000
533.067383	146.080000
533.161011	146.000000
533.254639	145.780000
533.348267	145.760000
533.441956	146.140000
533.535583	145.940000
533.629272	146.280000
533.722900	145.960000
533.816589	146.360000
533.910156	146.440000
534.003845	146.280000
534.097534	146.240000
534.191162	146.920000
534.284851	146.720000
534.378479	146.200000
534.472107	146.320000
534.565735	146.180000
534.659424	146.200000
534.753052	146.620000
534.846741	146.960000
534.940369	147.760000
535.033997	147.440000
535.127625	147.260000
535.221313	147.320000
535.314941	147.080000
535.408630	146.260000
535.502197	147.100000
535.595886	146.780000
535.689514	146.400000
535.783203	146.760000
535.876831	147.360000
535.970459	146.680000
536.064087	146.580000
536.157776	146.780000
536.251404	146.860000
536.345093	146.200000
536.438721	146.540000
536.532349	146.860000
536.626038	146.340000
536.719666	146.560000
536.813293	146.800000
536.906921	146.600000
537.000610	146.780000
537.094238	147.080000
537.187866	146.640000
537.281494	146.420000
537.375183	146.720000
537.468811	146.180000
537.562439	146.300000
537.656067	146.160000
537.749756	146.500000
537.843384	146.780000
537.937012	147.060000
538.030640	146.760000
538.124329	146.800000
538.217896	146.940000
538.311584	146.660000
538.405212	146.580000
538.498901	147.140000
538.592468	147.680000
538.686157	147.180000
538.779785	146.660000
538.873413	146.560000
538.967102	145.760000
539.060730	145.340000
539.154358	145.840000
539.247986	146.000000
539.341675	146.120000
539.435242	146.240000
539.528931	146.360000
539.622559	145.900000
539.716187	146.620000
539.809814	146.780000
539.903503	146.980000
539.997070	146.760000
540.090759	146.900000
540.184387	146.480000
540.278015	146.760000
540.371643	146.880000
540.465332	147.200000
540.558899	147.100000
540.652588	147.080000
540.746216	146.800000
540.839844	147.140000
540.933472	147.040000
541.027100	147.120000
541.120728	147.000000
541.214417	147.000000
541.308044	147.100000
541.401672	146.960000
541.495300	146.740000
541.588928	147.000000
541.682617	146.880000
541.776184	146.360000
541.869873	146.560000
541.963440	146.860000
542.057129	146.780000
542.150757	146.840000
542.244385	146.580000
542.338013	146.180000
542.431641	145.960000
542.525269	145.780000
542.618958	146.260000
542.712524	146.860000
542.806213	146.940000
542.899780	147.500000
542.993469	147.140000
543.087036	146.580000
543.180725	146.060000
543.274292	146.140000
543.367981	145.940000
543.461548	146.400000
543.555237	146.480000
543.648926	147.300000
543.742493	147.720000
543.836182	148.080000
543.929749	147.960000
544.023437	148.020000
544.117004	147.700000
544.210693	147.540000
544.304260	147.220000
544.397949	147.100000
544.491516	147.140000
544.585205	146.880000
544.678772	146.360000
544.772461	146.700000
544.866028	146.840000
544.959717	147.060000
545.053284	146.980000
545.146973	147.520000
545.240540	147.260000
545.334229	147.800000
545.427795	147.780000
545.521423	148.040000
545.615051	147.800000
545.708679	148.400000
545.802307	148.120000
545.895935	148.320000
545.989624	148.840000
546.083191	148.920000
546.176880	148.500000
546.270447	148.140000
546.364136	148.180000
546.457703	147.820000
546.551331	147.720000
546.644958	147.720000
546.738586	148.060000
546.832214	147.340000
546.925842	146.940000
547.019409	147.160000
547.113098	146.320000
547.206665	145.800000
547.300354	145.880000
547.393921	146.460000
547.487549	146.560000
547.581177	146.820000
547.674805	146.900000
547.768433	146.440000
547.862061	146.160000
547.955627	145.240000
548.049316	145.920000
548.142883	146.080000
548.236572	146.720000
548.330139	146.860000
548.423767	147.260000
548.517456	146.720000
548.611023	147.040000
548.704651	146.280000
548.798279	145.900000
548.891907	146.400000
548.985474	146.340000
549.079163	146.480000
549.172729	146.720000
549.266357	146.340000
549.359985	146.160000
549.453613	145.780000
549.547180	145.260000
549.640869	145.660000
549.734436	145.880000
549.828064	146.020000
549.921631	146.100000
550.015320	145.800000
550.108887	146.060000
550.202515	146.000000
550.296143	145.620000
550.389771	145.880000
550.483337	146.220000
550.576965	146.120000
550.670593	146.680000
550.764221	146.820000
550.857849	146.640000
550.951477	146.240000
551.045105	145.580000
551.138672	145.360000
551.232300	144.860000
551.325928	145.260000
551.419556	145.960000
551.513123	146.160000
551.606750	146.000000
551.700378	146.320000
551.794006	146.040000
551.887573	145.620000
551.981201	146.200000
552.074768	145.760000
552.168457	145.500000
552.262024	146.460000
552.355652	146.400000
552.449219	146.660000
552.542847	147.220000
552.636475	147.260000
552.730103	146.160000
552.823669	146.240000
552.917297	145.600000
553.010864	145.380000
553.104553	145.780000
553.198181	145.920000
553.291748	146.060000
553.385376	146.360000
553.478943	146.360000
553.572571	146.280000
553.666199	146.580000
553.759827	146.260000
553.853394	145.480000
553.947021	145.480000
554.040588	145.340000
554.134216	145.160000
554.227783	146.080000
554.321411	147.020000
554.415039	146.820000
554.508667	146.780000
554.602234	146.780000
554.695862	145.920000
554.789429	145.500000
554.883057	145.720000
554.976624	145.860000
555.070251	145.960000
555.163818	145.740000
555.257507	145.640000
555.351074	145.620000
555.444702	146.500000
555.538330	146.140000
555.631897	146.620000
555.725525	146.480000
555.819092	146.440000
555.912720	145.120000
556.006287	145.700000
556.099915	145.500000
556.193481	146.100000
556.287109	146.520000
556.380676	146.520000
556.474304	146.260000
556.567871	146.740000
556.661499	146.040000
556.755066	146.000000
556.848694	146.180000
556.942261	146.020000
557.035889	145.980000
557.129517	146.400000
557.223145	146.380000
557.316711	146.580000
557.410339	146.700000
557.503906	146.400000
557.597473	146.520000
557.691040	146.220000
557.784668	146.200000
557.878296	146.040000
557.971863	146.400000
558.065491	146.320000
558.159058	146.280000
558.252686	147.160000
558.346252	147.800000
558.439880	147.060000
558.533447	146.520000
558.627075	146.180000
558.720642	145.240000
558.814270	145.040000
558.907837	145.380000
559.001465	145.460000
559.095032	146.220000
559.188660	146.460000
559.282227	145.840000
559.375854	146.300000
559.469360	146.180000
559.562988	146.280000
559.656555	146.300000
559.750183	146.600000
559.843750	146.280000
559.937378	146.540000
560.030945	146.120000
560.124573	0.000000
560.218140	0.000000
560.311707	0.000000
560.405334	0.000000
560.498901	0.000000
560.592529	0.000000
560.686096	0.000000
560.779724	0.000000
560.873291	0.000000
560.966858	0.000000
561.060425	0.000000
561.154053	0.000000
561.247620	0.000000
561.341248	0.000000
561.434814	0.000000
561.528381	0.000000
561.621948	0.000000
561.715576	0.000000
561.809143	0.000000
561.902771	0.000000
561.996277	0.000000
562.089905	0.000000
562.183472	0.000000
562.277100	0.000000
