Model Number: SPM-002-B   
Serial Number: 70087108
Firmware Version: 004.15.4
Exposure Time: 100000.000000us
Data Taken on: 11-12-2020 19:31:07.645
Wavelength	Amplitude
221.570786	0.000000
221.663406	0.000000
221.756027	0.000000
221.848648	0.000000
221.941269	0.000000
222.033905	0.000000
222.126526	0.000000
222.219162	0.000000
222.311798	0.000000
222.404419	0.000000
222.497055	0.000000
222.589676	0.000000
222.682312	0.000000
222.774933	0.000000
222.867569	0.000000
222.960205	0.000000
223.052841	0.000000
223.145462	0.000000
223.238098	0.000000
223.330734	0.000000
223.423386	0.000000
223.516022	0.000000
223.608658	0.000000
223.701309	0.000000
223.793945	0.000000
223.886581	0.000000
223.979218	0.000000
224.071869	0.000000
224.164505	0.000000
224.257156	0.000000
224.349792	0.000000
224.442444	0.000000
224.535095	0.000000
224.627747	0.000000
224.720398	0.000000
224.813034	0.000000
224.905685	0.000000
224.998337	145.860000
225.090988	145.640000
225.183640	145.640000
225.276291	145.520000
225.368942	145.580000
225.461594	146.060000
225.554245	146.500000
225.646912	146.140000
225.739578	146.900000
225.832230	147.440000
225.924896	146.460000
226.017548	146.800000
226.110199	147.480000
226.202866	146.500000
226.295532	146.080000
226.388184	146.100000
226.480850	145.180000
226.573517	144.600000
226.666168	144.860000
226.758835	145.000000
226.851501	145.740000
226.944183	146.220000
227.036850	145.840000
227.129517	146.000000
227.222183	146.280000
227.314850	145.980000
227.407516	146.520000
227.500198	147.640000
227.592865	147.040000
227.685532	146.620000
227.778214	146.640000
227.870880	146.660000
227.963562	146.760000
228.056229	147.700000
228.148926	147.680000
228.241592	148.360000
228.334274	147.980000
228.426956	147.560000
228.519638	146.800000
228.612305	146.620000
228.704987	146.320000
228.797668	145.920000
228.890350	145.700000
228.983032	145.640000
229.075714	146.360000
229.168396	145.940000
229.261108	145.800000
229.353790	145.960000
229.446472	146.420000
229.539169	146.200000
229.631851	146.080000
229.724533	146.460000
229.817230	146.660000
229.909912	147.540000
230.002609	147.480000
230.095306	147.560000
230.187988	147.800000
230.280685	147.920000
230.373383	146.340000
230.466095	146.260000
230.558792	146.500000
230.651474	146.020000
230.744171	145.480000
230.836868	145.680000
230.929581	145.840000
231.022278	145.740000
231.114975	145.880000
231.207672	145.660000
231.300369	146.420000
231.393082	146.240000
231.485779	146.380000
231.578506	146.300000
231.671204	146.580000
231.763916	146.240000
231.856613	146.200000
231.949326	146.340000
232.042023	146.380000
232.134735	146.280000
232.227448	145.840000
232.320160	145.860000
232.412872	145.520000
232.505585	146.320000
232.598297	146.680000
232.691010	146.940000
232.783722	146.920000
232.876450	147.480000
232.969162	147.000000
233.061874	146.680000
233.154587	146.300000
233.247314	146.600000
233.340027	145.780000
233.432739	146.140000
233.525467	145.980000
233.618179	146.800000
233.710907	146.280000
233.803635	147.160000
233.896347	146.680000
233.989090	147.420000
234.081818	147.060000
234.174545	147.260000
234.267258	146.240000
234.359985	146.380000
234.452713	145.920000
234.545441	145.580000
234.638168	145.680000
234.730896	146.420000
234.823639	146.300000
234.916367	146.760000
235.009094	147.120000
235.101822	147.020000
235.194580	147.100000
235.287308	147.120000
235.380051	146.440000
235.472778	146.640000
235.565521	147.020000
235.658249	146.440000
235.750992	146.600000
235.843719	146.880000
235.936462	147.080000
236.029205	146.520000
236.121948	146.220000
236.214691	146.220000
236.307449	146.640000
236.400192	145.860000
236.492935	145.700000
236.585678	146.100000
236.678421	145.960000
236.771164	145.440000
236.863907	146.200000
236.956665	146.820000
237.049408	148.200000
237.142151	148.080000
237.234909	148.920000
237.327652	148.300000
237.420410	147.680000
237.513153	146.680000
237.605927	146.420000
237.698669	145.780000
237.791428	145.400000
237.884186	146.040000
237.976944	145.560000
238.069702	146.160000
238.162445	145.840000
238.255203	146.560000
238.347961	147.000000
238.440720	146.980000
238.533478	146.920000
238.626266	146.660000
238.719025	146.780000
238.811783	146.200000
238.904541	146.280000
238.997314	145.780000
239.090073	145.720000
239.182831	145.960000
239.275604	146.720000
239.368362	146.520000
239.461136	146.860000
239.553909	147.040000
239.646667	146.640000
239.739441	146.060000
239.832214	146.520000
239.925003	146.740000
240.017761	147.440000
240.110535	147.800000
240.203308	147.500000
240.296082	147.540000
240.388855	147.420000
240.481628	147.440000
240.574417	147.620000
240.667191	147.980000
240.759964	147.640000
240.852737	147.540000
240.945526	146.960000
241.038315	146.660000
241.131088	146.360000
241.223877	146.940000
241.316650	146.560000
241.409439	146.960000
241.502228	146.160000
241.595001	146.500000
241.687790	145.920000
241.780579	146.040000
241.873367	146.040000
241.966141	146.640000
242.058929	146.120000
242.151718	146.500000
242.244507	146.780000
242.337311	145.940000
242.430099	146.520000
242.522903	146.820000
242.615692	146.680000
242.708481	146.800000
242.801270	147.700000
242.894073	147.220000
242.986862	147.260000
243.079651	147.720000
243.172455	147.120000
243.265244	146.980000
243.358063	146.540000
243.450867	146.780000
243.543655	146.280000
243.636459	147.020000
243.729263	147.160000
243.822067	147.740000
243.914856	148.320000
244.007660	148.360000
244.100464	147.800000
244.193268	147.480000
244.286072	146.980000
244.378876	145.920000
244.471680	145.820000
244.564499	146.220000
244.657318	146.900000
244.750122	147.340000
244.842926	147.020000
244.935745	147.440000
245.028549	147.060000
245.121368	146.440000
245.214172	146.160000
245.306992	146.900000
245.399796	146.420000
245.492615	146.440000
245.585434	146.320000
245.678253	146.220000
245.771072	145.720000
245.863892	145.940000
245.956711	146.200000
246.049530	146.120000
246.142349	146.240000
246.235168	146.640000
246.327988	147.260000
246.420807	147.100000
246.513626	147.260000
246.606445	147.000000
246.699280	146.820000
246.792099	146.480000
246.884918	146.060000
246.977753	145.640000
247.070587	145.920000
247.163422	146.160000
247.256241	146.000000
247.349075	146.660000
247.441895	146.980000
247.534729	147.040000
247.627563	146.480000
247.720383	146.720000
247.813217	146.420000
247.906052	146.260000
247.998886	146.240000
248.091736	146.420000
248.184570	146.100000
248.277405	146.380000
248.370239	147.260000
248.463074	147.940000
248.555908	148.300000
248.648743	148.320000
248.741592	148.180000
248.834427	147.500000
248.927261	146.520000
249.020111	146.700000
249.112946	147.060000
249.205795	146.780000
249.298630	146.780000
249.391495	146.920000
249.484344	146.380000
249.577179	146.060000
249.670029	146.340000
249.762878	146.700000
249.855728	146.580000
249.948563	146.660000
250.041412	146.380000
250.134262	146.720000
250.227112	146.720000
250.319962	147.140000
250.412827	147.100000
250.505692	146.900000
250.598541	146.540000
250.691391	146.420000
250.784241	146.120000
250.877106	146.560000
250.969955	146.580000
251.062805	147.160000
251.155670	147.700000
251.248520	147.440000
251.341385	147.240000
251.434235	147.080000
251.527100	146.480000
251.619965	145.640000
251.712814	146.560000
251.805695	146.480000
251.898560	147.060000
251.991425	147.360000
252.084290	147.460000
252.177155	146.620000
252.270020	146.400000
252.362885	146.260000
252.455750	146.180000
252.548615	146.120000
252.641479	146.240000
252.734360	146.300000
252.827240	146.100000
252.920105	146.160000
253.012970	146.300000
253.105850	146.100000
253.198715	145.720000
253.291595	145.900000
253.384460	145.600000
253.477341	145.200000
253.570221	145.500000
253.663086	145.600000
253.755966	146.180000
253.848846	146.060000
253.941727	146.600000
254.034592	146.520000
254.127472	146.240000
254.220367	145.860000
254.313248	146.080000
254.406128	145.660000
254.499008	146.020000
254.591904	146.960000
254.684784	147.480000
254.777664	147.520000
254.870544	147.420000
254.963440	147.380000
255.056335	146.920000
255.149216	146.220000
255.242111	146.500000
255.334991	146.820000
255.427887	146.880000
255.520767	147.180000
255.613663	147.380000
255.706558	146.640000
255.799438	146.360000
255.892334	145.880000
255.985229	145.600000
256.078125	145.540000
256.171021	145.760000
256.263916	146.220000
256.356812	146.780000
256.449707	146.980000
256.542603	146.500000
256.635498	146.880000
256.728394	146.920000
256.821289	146.260000
256.914215	146.520000
257.007080	147.320000
257.100006	147.580000
257.192932	147.620000
257.285828	147.840000
257.378723	147.300000
257.471619	146.860000
257.564545	146.200000
257.657440	146.240000
257.750336	146.540000
257.843262	146.520000
257.936157	147.460000
258.029053	148.100000
258.121979	147.960000
258.214874	147.560000
258.307800	147.480000
258.400696	146.480000
258.493622	146.080000
258.586517	145.460000
258.679443	145.700000
258.772339	145.180000
258.865265	145.040000
258.958160	144.840000
259.051086	145.560000
259.144012	145.380000
259.236938	146.580000
259.329834	146.940000
259.422791	146.680000
259.515717	146.060000
259.608612	146.220000
259.701538	146.200000
259.794464	145.680000
259.887390	145.900000
259.980316	145.720000
260.073212	145.300000
260.166138	144.200000
260.259064	144.760000
260.351990	145.460000
260.444916	145.740000
260.537842	146.260000
260.630768	147.180000
260.723694	147.000000
260.816620	146.280000
260.909546	146.640000
261.002472	146.120000
261.095398	145.720000
261.188354	145.680000
261.281281	145.480000
261.374207	145.280000
261.467133	146.380000
261.560089	146.640000
261.653015	146.620000
261.745972	147.380000
261.838867	147.820000
261.931824	147.540000
262.024780	147.000000
262.117706	147.180000
262.210663	147.280000
262.303589	147.240000
262.396515	147.040000
262.489471	148.100000
262.582397	147.960000
262.675354	147.260000
262.768280	147.060000
262.861237	147.140000
262.954163	146.560000
263.047119	146.800000
263.140045	147.000000
263.233002	146.800000
263.325958	146.460000
263.418884	146.100000
263.511841	146.020000
263.604797	145.980000
263.697723	145.920000
263.790680	145.920000
263.883636	146.600000
263.976593	146.480000
264.069550	146.500000
264.162476	146.580000
264.255463	146.640000
264.348419	146.060000
264.441376	146.360000
264.534332	146.140000
264.627289	146.360000
264.720245	147.040000
264.813202	146.740000
264.906158	146.580000
264.999115	146.900000
265.092072	146.760000
265.185028	146.740000
265.277985	147.200000
265.370941	147.240000
265.463898	147.160000
265.556854	146.760000
265.649811	145.920000
265.742798	145.920000
265.835754	145.800000
265.928711	146.140000
266.021667	146.660000
266.114655	146.900000
266.207611	147.500000
266.300568	146.980000
266.393585	146.280000
266.486511	146.320000
266.579498	145.480000
266.672485	144.980000
266.765442	145.320000
266.858429	146.080000
266.951385	145.600000
267.044342	146.400000
267.137329	146.060000
267.230316	146.400000
267.323273	145.540000
267.416260	146.160000
267.509216	146.020000
267.602203	146.140000
267.695160	146.260000
267.788147	146.800000
267.881134	146.480000
267.974091	146.900000
268.067078	146.940000
268.160065	146.740000
268.253052	146.660000
268.346008	146.760000
268.438995	146.360000
268.531982	146.760000
268.624969	146.520000
268.717987	146.920000
268.810944	146.400000
268.903961	146.380000
268.996948	145.740000
269.089905	146.220000
269.182892	146.240000
269.275879	146.740000
269.368866	146.480000
269.461853	146.560000
269.554871	146.460000
269.647858	146.240000
269.740845	146.340000
269.833832	146.920000
269.926819	146.820000
270.019806	146.440000
270.112793	145.960000
270.205811	146.040000
270.298798	145.600000
270.391785	146.420000
270.484772	146.240000
270.577789	146.560000
270.670776	146.180000
270.763763	146.200000
270.856750	146.000000
270.949768	146.000000
271.042786	146.000000
271.135773	146.120000
271.228790	146.720000
271.321808	146.020000
271.414795	145.900000
271.507782	145.640000
271.600800	145.540000
271.693817	145.460000
271.786804	146.140000
271.879822	146.320000
271.972809	146.500000
272.065826	146.640000
272.158844	146.080000
272.251831	146.580000
272.344849	146.880000
272.437866	146.240000
272.530853	146.080000
272.623871	146.360000
272.716888	145.520000
272.809906	145.480000
272.902893	145.760000
272.995911	145.640000
273.088928	145.700000
273.181946	145.820000
273.274963	145.460000
273.367981	145.760000
273.460999	146.020000
273.554047	146.340000
273.647003	146.600000
273.740051	146.660000
273.833069	146.980000
273.926086	147.060000
274.019135	146.580000
274.112152	146.240000
274.205170	146.520000
274.298187	146.700000
274.391205	146.020000
274.484222	146.180000
274.577240	146.260000
274.670258	145.840000
274.763306	145.340000
274.856323	146.300000
274.949341	146.220000
275.042358	146.620000
275.135406	146.900000
275.228424	147.020000
275.321442	146.740000
275.414490	146.360000
275.507507	146.520000
275.600525	146.960000
275.693573	146.760000
275.786591	146.400000
275.879669	147.060000
275.972656	146.600000
276.065735	146.480000
276.158752	147.020000
276.251801	147.820000
276.344818	147.540000
276.437866	147.580000
276.530884	147.020000
276.623932	146.020000
276.716980	146.060000
276.809998	146.200000
276.903046	146.320000
276.996094	147.320000
277.089111	148.340000
277.182159	148.300000
277.275208	148.120000
277.368256	148.180000
277.461304	147.500000
277.554321	146.620000
277.647369	146.400000
277.740417	146.220000
277.833466	146.060000
277.926514	146.160000
278.019562	146.860000
278.112610	146.400000
278.205688	146.520000
278.298706	146.520000
278.391785	146.100000
278.484833	145.460000
278.577881	145.380000
278.670929	145.440000
278.763977	145.420000
278.857025	145.880000
278.950073	146.600000
279.043121	146.580000
279.136169	146.560000
279.229248	146.040000
279.322296	146.040000
279.415344	145.400000
279.508392	145.480000
279.601440	145.540000
279.694519	145.860000
279.787567	145.480000
279.880615	145.620000
279.973694	145.560000
280.066742	145.500000
280.159790	145.900000
280.252869	145.860000
280.345917	145.940000
280.438995	146.020000
280.532074	146.080000
280.625122	146.160000
280.718201	147.000000
280.811279	147.120000
280.904327	147.060000
280.997406	147.440000
281.090454	146.980000
281.183533	146.620000
281.276581	146.460000
281.369659	146.080000
281.462738	145.740000
281.555786	145.960000
281.648865	145.880000
281.741943	145.760000
281.835022	146.840000
281.928070	146.880000
282.021149	146.780000
282.114227	146.700000
282.207306	146.980000
282.300385	147.080000
282.393433	146.960000
282.486511	146.820000
282.579590	147.160000
282.672668	147.260000
282.765747	146.440000
282.858856	146.160000
282.951904	146.440000
283.045013	146.440000
283.138062	146.740000
283.231171	147.280000
283.324249	147.980000
283.417328	147.880000
283.510406	147.480000
283.603485	146.960000
283.696564	146.540000
283.789642	146.500000
283.882751	146.360000
283.975830	147.000000
284.068909	146.700000
284.161987	147.280000
284.255066	146.820000
284.348175	147.140000
284.441254	146.880000
284.534332	147.560000
284.627441	147.100000
284.720520	146.920000
284.813599	146.760000
284.906708	146.780000
284.999786	145.960000
285.092896	145.660000
285.185974	146.640000
285.279053	146.500000
285.372192	146.380000
285.465240	147.360000
285.558380	147.260000
285.651459	146.620000
285.744568	147.000000
285.837677	146.620000
285.930756	146.200000
286.023865	146.680000
286.116943	146.320000
286.210052	146.580000
286.303162	146.640000
286.396240	146.480000
286.489349	146.260000
286.582458	146.960000
286.675568	146.140000
286.768646	146.040000
286.861755	146.600000
286.954865	147.220000
287.047974	146.320000
287.141083	146.380000
287.234161	146.260000
287.327271	145.740000
287.420380	145.800000
287.513519	145.840000
287.606598	145.800000
287.699738	146.360000
287.792816	146.380000
287.885956	145.940000
287.979034	146.140000
288.072174	146.320000
288.165283	146.020000
288.258392	146.320000
288.351501	145.660000
288.444611	146.120000
288.537720	146.720000
288.630859	146.540000
288.723969	146.640000
288.817078	147.480000
288.910187	147.080000
289.003296	146.380000
289.096436	146.200000
289.189545	145.740000
289.282654	145.240000
289.375763	145.600000
289.468903	146.180000
289.562012	146.600000
289.655121	146.740000
289.748260	147.040000
289.841400	147.240000
289.934509	146.920000
290.027649	147.060000
290.120728	146.880000
290.213898	146.680000
290.306976	146.480000
290.400146	146.500000
290.493256	146.100000
290.586395	146.340000
290.679535	146.800000
290.772644	146.380000
290.865784	145.840000
290.958893	145.980000
291.052032	145.820000
291.145172	145.380000
291.238281	145.400000
291.331421	145.680000
291.424561	145.840000
291.517670	145.740000
291.610809	146.260000
291.703949	146.180000
291.797089	146.560000
291.890228	146.180000
291.983337	146.180000
292.076477	145.440000
292.169617	145.860000
292.262756	145.680000
292.355927	145.860000
292.449036	145.700000
292.542206	146.200000
292.635315	146.520000
292.728485	146.580000
292.821625	146.220000
292.914764	147.180000
293.007904	147.140000
293.101044	146.580000
293.194183	146.620000
293.287323	146.940000
293.380463	146.140000
293.473602	145.780000
293.566742	146.380000
293.659882	146.500000
293.753021	146.700000
293.846191	146.820000
293.939331	146.700000
294.032471	146.340000
294.125610	146.160000
294.218781	146.340000
294.311920	146.520000
294.405060	147.000000
294.498230	146.900000
294.591370	146.860000
294.684540	146.400000
294.777679	146.000000
294.870850	146.100000
294.963959	145.880000
295.057159	145.660000
295.150299	146.100000
295.243469	146.480000
295.336609	145.980000
295.429779	146.300000
295.522919	146.880000
295.616089	146.860000
295.709229	147.280000
295.802399	147.500000
295.895569	147.280000
295.988708	147.100000
296.081879	147.040000
296.175018	146.360000
296.268188	146.320000
296.361359	146.820000
296.454529	146.740000
296.547668	146.380000
296.640839	146.700000
296.734009	146.400000
296.827179	146.180000
296.920319	146.420000
297.013519	146.440000
297.106659	146.620000
297.199860	146.840000
297.292999	146.700000
297.386200	146.220000
297.479309	146.420000
297.572510	146.160000
297.665680	145.980000
297.758850	146.120000
297.852020	146.300000
297.945190	146.120000
298.038361	145.680000
298.131531	146.680000
298.224701	146.440000
298.317871	146.020000
298.411072	145.460000
298.504242	145.420000
298.597412	144.780000
298.690582	144.940000
298.783752	144.980000
298.876923	145.840000
298.970093	146.120000
299.063293	146.140000
299.156464	146.500000
299.249634	146.940000
299.342834	146.980000
299.436005	147.400000
299.529205	147.360000
299.622345	147.440000
299.715576	146.900000
299.808716	146.340000
299.901917	146.160000
299.995117	146.260000
300.088287	145.940000
300.181488	146.160000
300.274658	146.180000
300.367828	146.060000
300.461029	146.100000
300.554199	146.540000
300.647400	146.560000
300.740601	147.360000
300.833771	147.300000
300.926971	147.360000
301.020142	146.500000
301.113342	146.360000
301.206512	145.900000
301.299713	146.140000
301.392914	146.160000
301.486084	146.920000
301.579285	146.960000
301.672516	147.340000
301.765686	147.060000
301.858887	146.860000
301.952057	146.600000
302.045288	146.740000
302.138458	146.380000
302.231659	146.500000
302.324860	146.400000
302.418060	145.860000
302.511261	145.520000
302.604462	145.820000
302.697662	145.700000
302.790863	145.680000
302.884064	145.860000
302.977264	146.160000
303.070465	146.120000
303.163666	146.700000
303.256866	147.100000
303.350067	147.560000
303.443268	147.500000
303.536469	147.880000
303.629669	147.180000
303.722870	147.180000
303.816071	146.560000
303.909271	146.680000
304.002472	145.680000
304.095673	145.740000
304.188934	144.960000
304.282104	145.860000
304.375336	145.520000
304.468506	145.820000
304.561768	145.720000
304.654968	146.260000
304.748169	145.920000
304.841370	146.040000
304.934601	146.200000
305.027802	145.780000
305.121002	145.580000
305.214233	145.220000
305.307434	145.520000
305.400665	146.220000
305.493866	146.320000
305.587097	146.680000
305.680298	146.700000
305.773499	147.120000
305.866730	146.380000
305.959930	147.260000
306.053162	147.640000
306.146393	147.480000
306.239594	146.420000
306.332825	146.600000
306.426025	146.620000
306.519287	145.720000
306.612488	145.800000
306.705719	146.400000
306.798920	146.500000
306.892181	145.700000
306.985352	145.760000
307.078613	145.260000
307.171844	145.440000
307.265045	144.780000
307.358276	144.680000
307.451508	145.180000
307.544739	146.220000
307.637970	145.820000
307.731201	146.080000
307.824402	147.080000
307.917633	146.940000
308.010864	147.120000
308.104095	147.840000
308.197327	147.940000
308.290558	147.720000
308.383789	147.500000
308.477020	146.940000
308.570251	145.780000
308.663483	145.640000
308.756714	145.280000
308.849976	145.320000
308.943176	145.620000
309.036438	146.060000
309.129639	145.920000
309.222900	146.380000
309.316101	146.240000
309.409393	145.920000
309.502625	145.660000
309.595856	145.760000
309.689087	145.480000
309.782318	145.620000
309.875580	145.720000
309.968811	145.840000
310.062042	145.960000
310.155273	146.000000
310.248535	146.260000
310.341766	146.040000
310.434998	145.860000
310.528259	145.780000
310.621490	146.160000
310.714722	145.760000
310.807983	146.000000
310.901215	146.020000
310.994476	146.120000
311.087708	145.380000
311.181000	145.600000
311.274200	145.040000
311.367462	145.280000
311.460693	144.960000
311.553986	145.740000
311.647186	145.780000
311.740479	146.640000
311.833710	146.320000
311.926971	146.360000
312.020203	145.280000
312.113464	145.100000
312.206726	144.540000
312.299957	145.120000
312.393219	145.640000
312.486481	146.260000
312.579712	146.360000
312.672974	146.500000
312.766235	146.280000
312.859497	145.980000
312.952759	145.820000
313.045990	146.380000
313.139252	145.900000
313.232513	146.000000
313.325775	146.140000
313.419037	146.200000
313.512299	145.580000
313.605530	146.000000
313.698822	146.100000
313.792053	145.880000
313.885345	145.460000
313.978577	145.480000
314.071869	144.980000
314.165131	145.160000
314.258392	145.780000
314.351654	146.100000
314.444916	145.520000
314.538177	146.540000
314.631439	146.620000
314.724701	146.100000
314.817993	145.900000
314.911255	146.400000
315.004517	145.780000
315.097778	145.700000
315.191040	146.140000
315.284302	146.600000
315.377594	146.420000
315.470856	146.180000
315.564117	145.420000
315.657379	144.700000
315.750671	144.260000
315.843933	144.760000
315.937195	144.800000
316.030518	144.880000
316.123749	145.100000
316.217041	145.920000
316.310303	145.800000
316.403595	146.080000
316.496857	146.640000
316.590149	146.740000
316.683411	145.980000
316.776703	145.800000
316.869965	145.560000
316.963257	145.040000
317.056519	144.760000
317.149811	144.820000
317.243073	144.920000
317.336365	145.080000
317.429626	145.580000
317.522919	146.280000
317.616180	146.200000
317.709473	145.880000
317.802765	145.820000
317.896027	145.600000
317.989319	145.360000
318.082611	145.480000
318.175873	145.660000
318.269165	145.720000
318.362488	145.800000
318.455750	145.860000
318.549042	146.120000
318.642303	146.780000
318.735626	146.740000
318.828888	147.020000
318.922211	146.560000
319.015472	146.840000
319.108765	146.120000
319.202057	145.860000
319.295349	145.840000
319.388641	145.980000
319.481934	145.320000
319.575226	145.080000
319.668518	145.280000
319.761810	145.240000
319.855103	145.420000
319.948395	145.880000
320.041687	145.960000
320.134979	145.980000
320.228271	145.660000
320.321564	145.340000
320.414856	145.380000
320.508148	144.940000
320.601440	145.060000
320.694763	145.120000
320.788025	145.800000
320.881348	145.580000
320.974640	146.060000
321.067963	145.340000
321.161224	145.420000
321.254547	144.580000
321.347839	144.880000
321.441162	144.740000
321.534454	145.440000
321.627747	145.220000
321.721069	146.020000
321.814362	146.320000
321.907654	146.420000
322.000946	146.160000
322.094269	146.820000
322.187561	146.240000
322.280884	146.220000
322.374176	146.660000
322.467468	147.240000
322.560791	147.020000
322.654083	147.700000
322.747406	147.480000
322.840698	147.720000
322.934021	147.820000
323.027344	147.860000
323.120636	147.360000
323.213959	147.200000
323.307251	146.480000
323.400574	146.020000
323.493866	145.700000
323.587219	146.160000
323.680511	146.320000
323.773834	146.660000
323.867157	146.720000
323.960449	147.060000
324.053772	146.680000
324.147095	146.480000
324.240387	146.840000
324.333710	147.240000
324.427032	147.220000
324.520355	147.120000
324.613647	146.860000
324.706970	146.500000
324.800293	146.160000
324.893616	146.220000
324.986938	146.440000
325.080231	146.400000
325.173553	146.500000
325.266876	147.000000
325.360199	146.980000
325.453522	146.300000
325.546875	146.300000
325.640167	146.400000
325.733521	146.240000
325.826813	145.960000
325.920166	145.900000
326.013489	145.700000
326.106812	144.860000
326.200134	144.080000
326.293457	143.700000
326.386780	144.280000
326.480103	144.580000
326.573425	144.760000
326.666748	145.160000
326.760071	145.740000
326.853424	145.460000
326.946747	145.600000
327.040070	146.460000
327.133392	146.320000
327.226715	145.740000
327.320068	145.560000
327.413391	145.900000
327.506714	144.940000
327.600037	145.080000
327.693390	145.400000
327.786713	145.440000
327.880066	145.040000
327.973358	145.580000
328.066742	145.980000
328.160034	146.400000
328.253418	147.100000
328.346710	146.980000
328.440063	146.840000
328.533417	146.360000
328.626740	146.520000
328.720093	146.100000
328.813416	145.940000
328.906769	145.680000
329.000092	145.920000
329.093445	145.380000
329.186768	145.380000
329.280121	146.260000
329.373444	146.980000
329.466797	147.020000
329.560120	147.460000
329.653473	147.500000
329.746796	146.880000
329.840149	146.520000
329.933502	146.400000
330.026825	146.140000
330.120178	146.240000
330.213562	146.080000
330.306854	145.760000
330.400238	145.580000
330.493561	145.300000
330.586945	146.000000
330.680237	146.260000
330.773621	146.440000
330.866974	146.700000
330.960327	147.060000
331.053680	146.140000
331.147003	146.500000
331.240356	146.700000
331.333710	146.600000
331.427063	146.120000
331.520416	146.340000
331.613770	145.700000
331.707123	145.800000
331.800476	145.960000
331.893829	147.040000
331.987152	147.040000
332.080505	147.220000
332.173859	146.800000
332.267212	146.200000
332.360565	145.400000
332.453918	145.140000
332.547333	145.020000
332.640656	145.400000
332.734039	145.960000
332.827362	145.700000
332.920746	146.040000
333.014069	146.320000
333.107452	146.660000
333.200806	146.760000
333.294159	146.940000
333.387543	146.680000
333.480896	146.200000
333.574249	145.620000
333.667603	145.100000
333.760956	145.640000
333.854340	145.620000
333.947693	145.740000
334.041046	145.840000
334.134430	146.200000
334.227783	145.500000
334.321136	145.480000
334.414520	145.460000
334.507874	145.820000
334.601227	145.760000
334.694611	145.700000
334.787964	145.820000
334.881348	146.140000
334.974701	145.840000
335.068085	145.540000
335.161438	145.960000
335.254822	145.760000
335.348175	145.560000
335.441559	145.220000
335.534943	146.080000
335.628296	146.020000
335.721680	146.000000
335.815033	146.400000
335.908417	146.780000
336.001770	146.360000
336.095154	146.140000
336.188538	146.000000
336.281891	145.480000
336.375275	145.100000
336.468658	144.680000
336.562012	144.840000
336.655396	145.460000
336.748779	145.820000
336.842133	146.060000
336.935516	146.280000
337.028900	146.020000
337.122284	145.820000
337.215637	145.980000
337.309021	145.720000
337.402435	145.340000
337.495789	145.140000
337.589203	144.820000
337.682526	144.300000
337.775940	145.020000
337.869324	145.280000
337.962708	145.340000
338.056091	146.080000
338.149475	145.960000
338.242859	145.780000
338.336243	145.600000
338.429626	145.980000
338.523010	145.540000
338.616394	145.760000
338.709778	145.560000
338.803162	146.200000
338.896545	146.320000
338.989929	145.880000
339.083313	145.960000
339.176697	145.680000
339.270081	145.300000
339.363464	145.480000
339.456848	146.040000
339.550232	145.680000
339.643616	145.760000
339.737030	145.640000
339.830383	145.080000
339.923828	145.140000
340.017181	145.300000
340.110596	145.580000
340.203949	145.600000
340.297363	145.580000
340.390778	145.340000
340.484161	145.420000
340.577545	145.380000
340.670959	145.620000
340.764343	145.780000
340.857727	146.140000
340.951111	145.860000
341.044525	145.820000
341.137909	145.660000
341.231293	145.260000
341.324707	144.560000
341.418091	145.540000
341.511505	145.680000
341.604889	146.060000
341.698303	146.760000
341.791687	147.120000
341.885071	146.400000
341.978485	146.220000
342.071899	146.200000
342.165283	145.960000
342.258698	146.080000
342.352081	146.400000
342.445496	146.840000
342.538879	146.380000
342.632324	146.120000
342.725708	146.080000
342.819122	145.840000
342.912506	145.400000
343.005920	145.580000
343.099335	146.420000
343.192719	146.020000
343.286133	146.160000
343.379547	146.460000
343.472931	146.300000
343.566345	145.700000
343.659760	146.200000
343.753143	145.580000
343.846558	145.220000
343.939972	145.400000
344.033386	145.740000
344.126770	145.600000
344.220184	146.240000
344.313599	146.660000
344.407043	146.840000
344.500427	146.340000
344.593872	146.980000
344.687225	146.760000
344.780670	146.280000
344.874054	145.900000
344.967499	146.620000
345.060913	146.300000
345.154327	146.300000
345.247742	146.260000
345.341156	146.460000
345.434570	145.820000
345.527985	145.220000
345.621399	145.240000
345.714813	144.980000
345.808228	145.060000
345.901642	144.960000
345.995056	145.140000
346.088470	145.440000
346.181885	145.900000
346.275299	145.540000
346.368713	145.600000
346.462128	145.260000
346.555573	145.120000
346.648987	145.280000
346.742401	145.660000
346.835815	146.120000
346.929260	146.220000
347.022644	146.180000
347.116119	146.200000
347.209503	146.300000
347.302948	146.920000
347.396362	147.620000
347.489807	147.680000
347.583221	148.220000
347.676636	147.680000
347.770050	146.280000
347.863495	145.640000
347.956909	145.760000
348.050323	145.080000
348.143768	145.400000
348.237183	145.560000
348.330597	146.360000
348.424042	146.360000
348.517456	146.900000
348.610901	147.040000
348.704315	147.260000
348.797760	146.260000
348.891174	145.760000
348.984619	144.880000
349.078033	145.460000
349.171448	146.040000
349.264923	146.440000
349.358337	146.560000
349.451782	146.640000
349.545197	145.440000
349.638641	144.640000
349.732086	144.020000
349.825500	144.380000
349.918945	144.500000
350.012390	145.080000
350.105804	145.820000
350.199249	146.240000
350.292664	146.520000
350.386108	146.460000
350.479553	146.920000
350.572968	146.580000
350.666412	146.860000
350.759857	146.560000
350.853302	147.060000
350.946716	146.240000
351.040161	146.240000
351.133606	146.200000
351.227081	146.000000
351.320465	146.540000
351.413940	146.900000
351.507355	147.000000
351.600830	146.980000
351.694244	146.860000
351.787720	146.240000
351.881104	146.140000
351.974579	146.180000
352.067993	146.620000
352.161469	146.760000
352.254883	146.220000
352.348358	146.200000
352.441803	145.900000
352.535248	145.620000
352.628693	145.820000
352.722137	146.080000
352.815582	146.280000
352.909027	146.620000
353.002472	146.360000
353.095917	146.180000
353.189362	146.560000
353.282806	146.300000
353.376251	146.260000
353.469696	145.800000
353.563141	146.160000
353.656586	145.760000
353.750061	145.520000
353.843475	145.080000
353.936981	146.120000
354.030396	145.520000
354.123871	145.640000
354.217285	146.480000
354.310760	146.960000
354.404175	146.440000
354.497681	146.460000
354.591095	146.640000
354.684570	145.840000
354.777985	145.240000
354.871490	145.040000
354.964935	145.580000
355.058380	145.680000
355.151855	145.500000
355.245300	146.200000
355.338745	146.740000
355.432220	146.660000
355.525665	145.900000
355.619110	146.680000
355.712585	146.320000
355.806030	146.000000
355.899475	145.540000
355.992950	146.300000
356.086426	146.460000
356.179871	146.420000
356.273346	146.700000
356.366791	147.180000
356.460266	147.140000
356.553711	146.700000
356.647186	147.100000
356.740631	146.580000
356.834106	146.140000
356.927551	146.100000
357.021027	145.980000
357.114471	145.760000
357.207947	146.040000
357.301422	146.280000
357.394867	146.200000
357.488342	146.360000
357.581818	146.420000
357.675262	146.800000
357.768738	146.480000
357.862213	146.020000
357.955658	146.140000
358.049133	146.020000
358.142609	146.040000
358.236053	145.920000
358.329529	146.360000
358.423035	146.460000
358.516449	145.980000
358.609955	145.980000
358.703400	146.640000
358.796906	146.480000
358.890350	145.940000
358.983826	146.520000
359.077271	145.820000
359.170776	145.780000
359.264221	145.620000
359.357727	146.060000
359.451172	146.320000
359.544647	146.660000
359.638123	146.360000
359.731598	146.860000
359.825073	147.200000
359.918549	147.020000
360.012024	147.180000
360.105499	146.920000
360.198975	146.920000
360.292450	146.540000
360.385925	146.400000
360.479401	145.940000
360.572876	146.120000
360.666351	146.040000
360.759857	146.040000
360.853302	146.240000
360.946808	145.920000
361.040253	146.280000
361.133759	146.020000
361.227203	146.320000
361.320709	146.140000
361.414154	146.980000
361.507660	146.980000
361.601105	147.220000
361.694641	147.240000
361.788086	146.980000
361.881592	147.100000
361.975067	146.520000
362.068542	146.980000
362.162018	146.780000
362.255524	146.420000
362.348999	146.220000
362.442474	146.740000
362.535950	146.040000
362.629456	145.960000
362.722931	145.940000
362.816406	146.120000
362.909882	146.320000
363.003387	145.980000
363.096863	146.180000
363.190338	146.460000
363.283875	146.060000
363.377319	145.800000
363.470825	146.400000
363.564301	145.980000
363.657806	146.140000
363.751282	145.880000
363.844788	146.580000
363.938232	146.100000
364.031769	146.760000
364.125214	146.980000
364.218750	147.580000
364.312225	146.260000
364.405731	146.560000
364.499207	146.120000
364.592712	145.820000
364.686188	145.680000
364.779694	146.040000
364.873169	146.100000
364.966675	145.880000
365.060150	145.800000
365.153656	146.000000
365.247131	146.160000
365.340637	146.260000
365.434143	146.800000
365.527618	147.020000
365.621155	146.420000
365.714600	146.400000
365.808136	146.480000
365.901611	145.280000
365.995117	145.160000
366.088593	145.180000
366.182129	145.040000
366.275604	144.880000
366.369110	145.520000
366.462585	145.600000
366.556122	146.380000
366.649567	146.640000
366.743103	146.680000
366.836609	146.500000
366.930115	146.560000
367.023590	146.280000
367.117096	146.260000
367.210602	146.240000
367.304108	147.040000
367.397614	147.660000
367.491119	147.700000
367.584595	147.900000
367.678101	148.180000
367.771606	147.960000
367.865112	147.280000
367.958649	146.640000
368.052124	146.060000
368.145660	145.460000
368.239136	145.540000
368.332672	145.540000
368.426147	146.000000
368.519684	146.220000
368.613159	146.760000
368.706696	146.360000
368.800171	146.640000
368.893707	146.620000
368.987183	146.900000
369.080719	146.660000
369.174225	146.280000
369.267731	146.260000
369.361237	146.320000
369.454742	145.980000
369.548248	146.340000
369.641754	146.520000
369.735260	146.360000
369.828766	145.460000
369.922272	146.020000
370.015808	145.720000
370.109314	145.620000
370.202820	145.460000
370.296356	147.020000
370.389832	146.300000
370.483368	145.940000
370.576874	145.860000
370.670410	146.240000
370.763885	144.860000
370.857422	145.000000
370.950928	145.000000
371.044464	146.020000
371.137939	146.000000
371.231476	146.680000
371.324982	147.140000
371.418518	147.440000
371.512024	146.780000
371.605560	146.440000
371.699066	146.320000
371.792572	145.960000
371.886108	146.300000
371.979614	146.440000
372.073120	146.940000
372.166656	146.920000
372.260162	147.080000
372.353668	146.840000
372.447205	146.300000
372.540710	146.100000
372.634277	145.680000
372.727753	145.940000
372.821320	145.740000
372.914795	146.100000
373.008362	146.000000
373.101837	146.460000
373.195404	145.860000
373.288879	145.900000
373.382446	146.540000
373.475922	146.260000
373.569489	146.860000
373.662964	147.480000
373.756531	147.580000
373.850037	147.220000
373.943573	147.400000
374.037109	146.260000
374.130615	146.400000
374.224152	146.460000
374.317657	146.240000
374.411194	146.980000
374.504730	147.140000
374.598236	146.640000
374.691772	146.320000
374.785309	146.260000
374.878815	145.140000
374.972351	145.800000
375.065887	145.840000
375.159454	146.380000
375.252930	146.180000
375.346497	146.600000
375.440002	146.600000
375.533569	146.620000
375.627045	145.840000
375.720612	146.100000
375.814117	146.540000
375.907684	146.120000
376.001160	145.860000
376.094727	145.840000
376.188232	146.500000
376.281799	146.060000
376.375336	146.160000
376.468872	147.080000
376.562408	147.220000
376.655914	146.560000
376.749451	146.700000
376.842987	146.780000
376.936523	146.040000
377.030060	146.180000
377.123596	146.300000
377.217133	145.880000
377.310669	145.900000
377.404205	146.500000
377.497772	147.140000
377.591278	147.120000
377.684845	147.860000
377.778351	148.020000
377.871918	147.440000
377.965424	146.460000
378.058990	146.160000
378.152496	145.980000
378.246063	145.960000
378.339569	146.500000
378.433136	146.620000
378.526642	146.800000
378.620209	146.580000
378.713745	146.220000
378.807312	146.200000
378.900848	146.480000
378.994385	146.620000
379.087921	146.040000
379.181458	146.000000
379.274994	145.240000
379.368530	145.060000
379.462097	144.980000
379.555634	145.660000
379.649170	145.620000
379.742706	145.620000
379.836273	145.800000
379.929810	145.280000
380.023376	144.960000
380.116882	144.920000
380.210449	145.020000
380.303986	144.640000
380.397552	144.840000
380.491058	145.060000
380.584656	145.040000
380.678162	145.300000
380.771729	145.680000
380.865265	146.320000
380.958832	146.280000
381.052368	146.620000
381.145935	146.900000
381.239471	147.160000
381.333008	147.160000
381.426575	147.100000
381.520111	147.500000
381.613647	147.340000
381.707214	147.260000
381.800751	146.540000
381.894318	146.780000
381.987854	145.860000
382.081421	145.520000
382.174988	145.420000
382.268524	145.200000
382.362091	145.240000
382.455627	146.140000
382.549194	146.160000
382.642731	145.620000
382.736298	145.880000
382.829834	145.360000
382.923401	145.480000
383.016937	145.900000
383.110504	146.520000
383.204041	146.860000
383.297607	147.440000
383.391174	146.960000
383.484741	147.280000
383.578278	146.640000
383.671844	146.400000
383.765411	145.800000
383.858948	146.200000
383.952515	145.920000
384.046051	146.660000
384.139618	146.960000
384.233185	147.500000
384.326721	146.920000
384.420288	147.300000
384.513855	147.100000
384.607422	147.100000
384.700989	147.180000
384.794525	147.080000
384.888123	146.640000
384.981659	146.680000
385.075226	146.120000
385.168762	145.520000
385.262360	145.560000
385.355896	145.180000
385.449463	145.140000
385.542999	145.420000
385.636597	146.480000
385.730164	146.920000
385.823730	146.540000
385.917267	145.880000
386.010834	146.180000
386.104401	145.720000
386.197968	145.920000
386.291534	146.480000
386.385101	147.020000
386.478668	147.140000
386.572235	147.060000
386.665802	146.440000
386.759338	146.120000
386.852905	145.800000
386.946472	145.260000
387.040070	145.300000
387.133606	145.360000
387.227203	145.260000
387.320740	145.580000
387.414337	145.680000
387.507874	145.240000
387.601471	145.360000
387.695007	145.360000
387.788605	145.200000
387.882141	145.340000
387.975739	145.480000
388.069275	145.320000
388.162872	145.740000
388.256439	145.800000
388.350037	145.620000
388.443604	145.640000
388.537170	145.600000
388.630737	146.060000
388.724304	145.880000
388.817871	146.140000
388.911438	145.940000
389.005005	146.620000
389.098602	146.780000
389.192169	146.600000
389.285736	146.800000
389.379333	147.160000
389.472870	146.120000
389.566467	145.680000
389.660034	145.920000
389.753632	145.380000
389.847168	145.520000
389.940765	146.080000
390.034332	146.180000
390.127930	145.660000
390.221466	145.940000
390.315063	145.360000
390.408630	144.620000
390.502228	143.800000
390.595795	144.460000
390.689362	144.580000
390.782959	145.240000
390.876526	146.060000
390.970093	146.380000
391.063690	146.980000
391.157257	146.980000
391.250824	146.740000
391.344421	146.320000
391.437988	146.540000
391.531555	146.240000
391.625153	146.380000
391.718750	146.640000
391.812317	146.920000
391.905914	146.720000
391.999481	146.740000
392.093079	146.660000
392.186615	146.720000
392.280243	146.340000
392.373779	146.440000
392.467407	146.860000
392.560944	146.600000
392.654572	146.120000
392.748108	146.420000
392.841736	146.420000
392.935303	145.760000
393.028900	145.840000
393.122467	146.140000
393.216064	145.720000
393.309631	145.520000
393.403229	145.160000
393.496796	145.060000
393.590393	144.520000
393.683990	145.180000
393.777557	145.880000
393.871155	146.120000
393.964722	146.320000
394.058350	146.600000
394.151917	146.400000
394.245514	145.580000
394.339081	146.200000
394.432678	146.660000
394.526245	146.800000
394.619873	146.420000
394.713409	146.840000
394.807037	146.420000
394.900604	146.240000
394.994202	146.260000
395.087769	146.780000
395.181396	146.800000
395.274994	147.420000
395.368561	146.620000
395.462158	146.700000
395.555756	146.420000
395.649353	146.400000
395.742920	145.680000
395.836517	146.520000
395.930115	145.860000
396.023712	146.100000
396.117279	146.340000
396.210876	146.000000
396.304474	145.820000
396.398071	146.180000
396.491669	146.420000
396.585266	146.100000
396.678833	146.600000
396.772461	146.580000
396.866028	146.480000
396.959656	146.660000
397.053223	147.240000
397.146851	147.380000
397.240417	147.760000
397.334015	149.240000
397.427582	149.780000
397.521210	151.100000
397.614807	153.160000
397.708405	155.940000
397.802002	159.100000
397.895599	164.080000
397.989197	169.700000
398.082794	176.040000
398.176392	184.040000
398.269989	193.020000
398.363586	203.860000
398.457184	215.760000
398.550781	229.440000
398.644379	243.180000
398.737976	257.840000
398.831573	272.360000
398.925201	286.920000
399.018768	300.940000
399.112396	316.460000
399.205963	332.860000
399.299591	349.620000
399.393158	367.880000
399.486786	387.540000
399.580353	405.280000
399.673981	421.100000
399.767578	436.020000
399.861206	447.480000
399.954773	454.220000
400.048401	455.340000
400.141998	450.760000
400.235596	441.420000
400.329193	427.900000
400.422791	413.200000
400.516418	398.560000
400.610016	385.260000
400.703613	371.600000
400.797211	357.180000
400.890808	342.280000
400.984436	327.420000
401.078033	311.720000
401.171631	295.760000
401.265259	279.920000
401.358826	264.920000
401.452484	249.740000
401.546051	235.700000
401.639679	221.440000
401.733246	210.080000
401.826904	198.140000
401.920471	187.880000
402.014099	179.160000
402.107697	172.500000
402.201324	166.360000
402.294891	162.120000
402.388550	159.020000
402.482147	156.080000
402.575745	153.500000
402.669373	151.260000
402.762970	149.800000
402.856567	148.880000
402.950195	148.360000
403.043793	148.300000
403.137390	148.700000
403.231018	147.600000
403.324615	148.060000
403.418243	147.500000
403.511841	147.580000
403.605469	147.300000
403.699066	148.140000
403.792694	147.560000
403.886292	148.160000
403.979919	147.660000
404.073517	147.240000
404.167145	147.580000
404.260712	147.620000
404.354370	146.960000
404.447937	147.240000
404.541595	147.600000
404.635162	147.660000
404.728821	147.920000
404.822418	147.740000
404.916046	147.520000
405.009644	147.820000
405.103271	147.860000
405.196899	147.360000
405.290497	147.720000
405.384125	148.000000
405.477722	146.960000
405.571350	146.380000
405.664948	146.540000
405.758575	146.160000
405.852203	145.500000
405.945801	146.000000
406.039429	145.880000
406.133057	145.580000
406.226654	145.920000
406.320312	146.180000
406.413879	146.160000
406.507538	146.480000
406.601135	146.060000
406.694763	146.120000
406.788361	146.080000
406.882019	146.020000
406.975586	146.200000
407.069244	147.320000
407.162872	147.200000
407.256470	146.860000
407.350098	146.740000
407.443726	146.220000
407.537323	145.480000
407.630951	146.060000
407.724579	146.040000
407.818207	146.720000
407.911804	146.620000
408.005432	146.640000
408.099060	146.620000
408.192688	147.220000
408.286285	146.880000
408.379913	146.940000
408.473572	147.120000
408.567169	146.200000
408.660828	145.900000
408.754395	145.680000
408.848053	145.600000
408.941650	145.540000
409.035309	145.760000
409.128906	145.600000
409.222565	145.620000
409.316132	146.160000
409.409790	146.000000
409.503387	146.120000
409.597046	146.440000
409.690674	146.700000
409.784302	146.500000
409.877930	146.340000
409.971558	146.240000
410.065186	146.060000
410.158783	145.780000
410.252411	145.600000
410.346039	146.220000
410.439667	146.360000
410.533295	146.660000
410.626923	147.040000
410.720551	147.100000
410.814209	147.100000
410.907806	147.140000
411.001465	146.640000
411.095062	146.480000
411.188721	146.560000
411.282318	146.100000
411.375977	145.760000
411.469574	145.860000
411.563232	145.600000
411.656830	145.400000
411.750488	145.560000
411.844086	145.400000
411.937744	145.700000
412.031372	145.740000
412.125000	145.840000
412.218628	145.660000
412.312256	146.620000
412.405884	147.040000
412.499512	147.140000
412.593170	147.040000
412.686798	147.460000
412.780426	146.620000
412.874054	146.500000
412.967682	146.560000
413.061310	147.220000
413.154968	147.100000
413.248566	147.340000
413.342224	147.080000
413.435852	147.080000
413.529510	146.560000
413.623108	145.880000
413.716766	145.740000
413.810364	145.980000
413.904022	145.600000
413.997650	145.240000
414.091309	146.360000
414.184906	146.140000
414.278564	145.660000
414.372192	146.300000
414.465851	146.800000
414.559479	146.120000
414.653107	147.220000
414.746735	147.300000
414.840393	147.240000
414.934021	147.360000
415.027649	147.300000
415.121277	146.920000
415.214935	147.340000
415.308563	147.240000
415.402191	146.640000
415.495850	146.560000
415.589478	146.140000
415.683136	145.900000
415.776733	146.320000
415.870422	147.040000
415.964020	146.600000
416.057678	146.640000
416.151306	146.440000
416.244965	145.760000
416.338562	145.380000
416.432251	146.440000
416.525848	147.200000
416.619507	147.580000
416.713165	148.180000
416.806793	148.080000
416.900421	147.880000
416.994080	147.000000
417.087708	146.700000
417.181366	146.060000
417.274994	146.080000
417.368622	145.980000
417.462280	146.800000
417.555908	146.800000
417.649567	146.820000
417.743195	147.120000
417.836853	147.120000
417.930481	147.180000
418.024170	147.440000
418.117767	147.900000
418.211426	148.140000
418.305054	148.320000
418.398712	147.420000
418.492340	147.560000
418.585999	147.800000
418.679626	147.620000
418.773285	147.540000
418.866913	148.420000
418.960571	148.180000
419.054230	148.040000
419.147858	147.900000
419.241516	147.660000
419.335144	146.900000
419.428802	146.760000
419.522461	146.460000
419.616089	145.680000
419.709747	146.040000
419.803375	146.060000
419.897034	146.120000
419.990662	145.840000
420.084320	146.940000
420.177979	147.160000
420.271606	147.360000
420.365295	147.580000
420.458893	147.760000
420.552582	147.680000
420.646210	147.220000
420.739868	147.120000
420.833496	146.960000
420.927155	146.660000
421.020782	146.420000
421.114471	146.240000
421.208069	146.180000
421.301758	146.260000
421.395386	146.540000
421.489044	146.380000
421.582703	146.280000
421.676361	146.600000
421.769989	146.100000
421.863647	146.360000
421.957306	146.560000
422.050934	146.780000
422.144592	146.820000
422.238251	146.940000
422.331909	146.680000
422.425537	146.440000
422.519196	146.660000
422.612854	146.020000
422.706543	145.720000
422.800140	146.000000
422.893829	145.740000
422.987457	145.340000
423.081146	145.720000
423.174744	146.360000
423.268433	145.880000
423.362061	145.940000
423.455750	145.880000
423.549347	145.520000
423.643036	144.940000
423.736664	145.480000
423.830353	145.600000
423.924011	146.040000
424.017639	145.820000
424.111298	145.760000
424.204956	145.720000
424.298615	145.820000
424.392273	145.360000
424.485931	145.700000
424.579559	146.200000
424.673218	145.660000
424.766876	145.520000
424.860535	145.640000
424.954193	145.660000
425.047882	145.940000
425.141510	146.200000
425.235199	146.500000
425.328796	146.280000
425.422485	146.120000
425.516113	145.480000
425.609802	145.480000
425.703430	145.500000
425.797119	145.600000
425.890747	145.840000
425.984436	146.160000
426.078064	146.300000
426.171753	146.280000
426.265411	146.060000
426.359070	146.000000
426.452728	145.700000
426.546356	145.260000
426.640015	144.720000
426.733673	145.160000
426.827332	144.900000
426.920990	145.780000
427.014648	145.780000
427.108307	146.300000
427.201965	146.760000
427.295624	147.300000
427.389282	146.380000
427.482941	146.680000
427.576630	146.300000
427.670258	145.240000
427.763947	144.800000
427.857574	145.160000
427.951263	145.040000
428.044922	145.000000
428.138611	145.540000
428.232239	146.320000
428.325928	146.700000
428.419556	147.220000
428.513245	147.000000
428.606903	146.940000
428.700562	146.080000
428.794220	145.280000
428.887878	144.500000
428.981537	145.040000
429.075195	145.200000
429.168854	145.880000
429.262512	145.960000
429.356201	146.320000
429.449860	146.160000
429.543518	145.800000
429.637177	145.660000
429.730835	145.900000
429.824493	145.620000
429.918182	145.860000
430.011810	145.700000
430.105530	145.320000
430.199158	145.420000
430.292847	145.600000
430.386475	145.360000
430.480164	145.420000
430.573792	145.300000
430.667511	145.060000
430.761139	145.200000
430.854828	145.660000
430.948456	145.640000
431.042145	145.980000
431.135834	145.860000
431.229492	145.900000
431.323151	145.780000
431.416809	145.980000
431.510468	145.740000
431.604156	145.500000
431.697815	145.320000
431.791473	144.820000
431.885132	144.240000
431.978821	144.720000
432.072479	145.200000
432.166138	145.780000
432.259827	145.620000
432.353485	146.400000
432.447174	146.400000
432.540802	146.220000
432.634491	146.160000
432.728149	146.940000
432.821838	147.420000
432.915466	146.840000
433.009186	147.020000
433.102814	146.160000
433.196503	145.640000
433.290131	145.140000
433.383850	145.660000
433.477509	145.680000
433.571167	146.540000
433.664856	147.280000
433.758514	147.640000
433.852173	147.480000
433.945862	147.000000
434.039520	146.480000
434.133179	145.380000
434.226868	144.980000
434.320526	144.500000
434.414185	145.460000
434.507874	145.480000
434.601562	146.160000
434.695221	145.960000
434.788910	146.420000
434.882538	146.120000
434.976257	145.660000
435.069885	145.440000
435.163574	145.700000
435.257233	145.200000
435.350922	145.120000
435.444580	145.440000
435.538269	145.140000
435.631897	145.380000
435.725616	146.080000
435.819275	146.220000
435.912964	146.640000
436.006622	147.200000
436.100311	146.780000
436.193970	145.900000
436.287628	145.860000
436.381317	145.380000
436.474976	144.960000
436.568665	144.820000
436.662323	145.360000
436.756012	145.360000
436.849670	145.360000
436.943390	145.160000
437.037018	145.360000
437.130737	145.440000
437.224365	145.260000
437.318085	145.700000
437.411713	146.300000
437.505432	146.440000
437.599060	146.920000
437.692780	147.640000
437.786407	147.560000
437.880127	147.460000
437.973755	147.460000
438.067474	146.780000
438.161133	146.360000
438.254822	146.580000
438.348480	146.240000
438.442169	146.760000
438.535828	147.100000
438.629517	146.760000
438.723175	146.120000
438.816864	146.900000
438.910553	146.140000
439.004211	145.980000
439.097900	145.660000
439.191559	145.800000
439.285248	144.960000
439.378906	145.360000
439.472626	145.120000
439.566284	145.240000
439.659973	145.720000
439.753632	145.600000
439.847321	145.760000
439.940979	145.880000
440.034698	146.040000
440.128326	145.340000
440.222046	145.580000
440.315674	144.640000
440.409393	144.860000
440.503082	144.920000
440.596741	145.260000
440.690430	145.420000
440.784088	145.840000
440.877777	145.400000
440.971466	145.460000
441.065125	145.220000
441.158813	144.760000
441.252502	144.820000
441.346161	145.360000
441.439850	145.280000
441.533539	145.280000
441.627197	145.900000
441.720886	145.780000
441.814606	146.020000
441.908234	146.220000
442.001953	146.160000
442.095612	146.060000
442.189301	146.100000
442.282959	145.820000
442.376678	145.240000
442.470306	146.060000
442.564026	145.780000
442.657684	145.940000
442.751404	145.920000
442.845032	146.860000
442.938751	146.320000
443.032440	146.700000
443.126099	146.220000
443.219788	146.480000
443.313477	146.140000
443.407166	146.300000
443.500824	146.080000
443.594513	146.600000
443.688202	146.520000
443.781891	146.160000
443.875549	145.940000
443.969238	145.900000
444.062927	145.780000
444.156647	145.500000
444.250275	146.060000
444.343994	146.300000
444.437653	146.100000
444.531372	146.140000
444.625031	145.860000
444.718719	145.420000
444.812378	145.180000
444.906097	145.440000
444.999756	145.260000
445.093445	145.540000
445.187103	145.600000
445.280823	145.960000
445.374512	145.520000
445.468201	145.780000
445.561859	145.540000
445.655548	145.640000
445.749237	145.040000
445.842926	145.740000
445.936615	145.960000
446.030304	145.960000
446.123962	145.860000
446.217651	146.100000
446.311340	146.100000
446.405029	145.600000
446.498749	145.620000
446.592407	145.440000
446.686096	145.660000
446.779755	145.480000
446.873474	145.620000
446.967133	145.680000
447.060852	145.500000
447.154510	145.260000
447.248230	145.220000
447.341858	145.060000
447.435577	144.760000
447.529236	144.820000
447.622955	144.420000
447.716644	144.400000
447.810333	145.220000
447.904022	146.000000
447.997711	146.080000
448.091400	146.800000
448.185059	146.860000
448.278748	146.360000
448.372437	145.860000
448.466125	146.020000
448.559814	145.740000
448.653503	146.020000
448.747192	146.280000
448.840912	146.700000
448.934570	146.620000
449.028290	146.900000
449.121948	146.240000
449.215637	145.600000
449.309296	145.060000
449.403015	145.340000
449.496674	145.320000
449.590393	145.560000
449.684052	145.660000
449.777771	146.760000
449.871429	145.760000
449.965149	145.720000
450.058838	146.040000
450.152527	146.640000
450.246216	145.880000
450.339905	146.680000
450.433594	146.600000
450.527283	147.140000
450.620972	146.700000
450.714661	146.480000
450.808350	146.640000
450.902039	146.560000
450.995728	146.080000
451.089417	145.760000
451.183105	146.160000
451.276794	146.620000
451.370514	146.120000
451.464172	145.540000
451.557892	145.500000
451.651550	145.560000
451.745270	144.600000
451.838928	144.680000
451.932648	145.040000
452.026306	145.740000
452.120026	145.260000
452.213684	145.720000
452.307404	145.780000
452.401062	145.860000
452.494781	145.540000
452.588470	145.660000
452.682159	145.220000
452.775848	145.480000
452.869537	145.120000
452.963226	145.100000
453.056915	145.180000
453.150604	145.520000
453.244293	145.420000
453.337982	146.180000
453.431671	146.420000
453.525360	146.840000
453.619049	146.960000
453.712769	147.360000
453.806427	146.880000
453.900146	146.580000
453.993805	146.260000
454.087555	146.320000
454.181213	146.200000
454.274933	146.160000
454.368591	146.300000
454.462311	146.100000
454.555969	145.600000
454.649689	146.160000
454.743347	145.960000
454.837067	146.820000
454.930756	147.480000
455.024445	147.800000
455.118134	147.320000
455.211853	147.380000
455.305542	146.420000
455.399231	146.040000
455.492920	146.180000
455.586609	146.360000
455.680298	146.760000
455.773987	146.660000
455.867676	146.460000
455.961365	146.340000
456.055084	146.000000
456.148773	145.520000
456.242493	145.760000
456.336151	146.000000
456.429871	146.480000
456.523529	146.760000
456.617249	146.680000
456.710907	147.320000
456.804626	147.300000
456.898315	146.660000
456.992035	146.500000
457.085693	146.360000
457.179413	145.280000
457.273102	146.060000
457.366791	146.160000
457.460480	146.380000
457.554199	147.340000
457.647888	147.580000
457.741577	146.600000
457.835266	146.860000
457.928955	146.920000
458.022644	146.600000
458.116364	147.020000
458.210052	147.240000
458.303741	147.160000
458.397461	146.360000
458.491119	145.920000
458.584839	145.660000
458.678528	145.480000
458.772247	145.080000
458.865906	145.500000
458.959625	146.580000
459.053284	146.620000
459.147003	146.300000
459.240692	147.260000
459.334412	147.460000
459.428070	146.860000
459.521790	146.680000
459.615479	147.040000
459.709198	147.040000
459.802887	146.700000
459.896576	146.260000
459.990265	146.440000
460.083954	146.420000
460.177673	145.460000
460.271362	145.660000
460.365051	145.700000
460.458740	145.520000
460.552429	144.960000
460.646149	145.260000
460.739838	145.020000
460.833527	145.380000
460.927246	145.360000
461.020905	145.340000
461.114655	145.040000
461.208313	145.300000
461.302032	144.780000
461.395691	145.060000
461.489441	145.380000
461.583099	145.640000
461.676819	145.300000
461.770477	145.900000
461.864197	145.760000
461.957916	145.780000
462.051605	145.220000
462.145294	146.140000
462.238983	145.740000
462.332703	146.240000
462.426392	147.000000
462.520081	147.420000
462.613770	146.800000
462.707489	147.020000
462.801178	146.440000
462.894867	146.020000
462.988556	146.040000
463.082275	146.040000
463.175964	145.480000
463.269684	145.960000
463.363342	145.800000
463.457092	145.520000
463.550751	145.760000
463.644470	146.160000
463.738129	145.700000
463.831879	145.700000
463.925537	146.200000
464.019257	146.060000
464.112946	145.780000
464.206665	145.580000
464.300323	145.720000
464.394043	145.700000
464.487762	145.680000
464.581451	146.200000
464.675140	146.660000
464.768829	146.700000
464.862549	146.740000
464.956238	146.840000
465.049927	146.780000
465.143646	146.500000
465.237335	146.100000
465.331024	146.420000
465.424713	146.660000
465.518433	146.600000
465.612152	146.260000
465.705811	146.580000
465.799561	146.020000
465.893219	145.280000
465.986938	145.320000
466.080597	145.300000
466.174347	145.200000
466.268005	145.480000
466.361725	145.820000
466.455414	145.760000
466.549133	145.740000
466.642792	146.260000
466.736542	145.740000
466.830231	145.880000
466.923920	145.660000
467.017609	145.900000
467.111328	144.980000
467.205017	145.240000
467.298706	145.240000
467.392426	145.700000
467.486115	146.000000
467.579803	146.100000
467.673523	146.280000
467.767212	146.260000
467.860901	145.920000
467.954651	145.700000
468.048309	146.260000
468.142029	146.000000
468.235718	145.900000
468.329437	145.360000
468.423096	145.240000
468.516846	145.180000
468.610504	144.960000
468.704224	144.520000
468.797913	145.100000
468.891632	145.460000
468.985291	145.000000
469.079010	145.000000
469.172729	144.940000
469.266418	145.480000
469.360107	145.300000
469.453827	145.100000
469.547516	145.360000
469.641205	146.000000
469.734924	145.640000
469.828613	146.060000
469.922302	146.420000
470.016022	146.500000
470.109711	146.380000
470.203430	145.680000
470.297150	144.820000
470.390808	145.420000
470.484558	145.300000
470.578217	145.780000
470.671936	146.480000
470.765625	147.280000
470.859344	146.660000
470.953003	146.680000
471.046753	145.920000
471.140411	145.200000
471.234131	145.140000
471.327820	145.740000
471.421539	146.140000
471.515228	146.160000
471.608948	146.700000
471.702637	146.320000
471.796326	145.740000
471.890045	145.520000
471.983734	145.780000
472.077423	145.620000
472.171143	145.760000
472.264832	145.820000
472.358521	145.660000
472.452240	145.080000
472.545929	145.780000
472.639648	145.980000
472.733337	146.480000
472.827057	146.600000
472.920746	146.960000
473.014465	146.960000
473.108124	147.040000
473.201874	146.700000
473.295532	146.500000
473.389252	147.000000
473.482941	146.620000
473.576660	146.220000
473.670319	146.220000
473.764069	146.420000
473.857727	146.380000
473.951477	146.560000
474.045166	146.880000
474.138855	146.680000
474.232574	146.680000
474.326263	146.580000
474.419952	146.860000
474.513672	146.700000
474.607361	146.660000
474.701050	146.840000
474.794769	147.040000
474.888458	146.860000
474.982178	147.100000
475.075867	147.260000
475.169586	147.100000
475.263275	146.800000
475.356995	146.620000
475.450653	146.220000
475.544403	145.960000
475.638062	146.800000
475.731812	146.540000
475.825470	146.220000
475.919189	146.600000
476.012878	146.860000
476.106598	145.720000
476.200256	146.000000
476.294006	146.140000
476.387695	146.000000
476.481384	146.040000
476.575104	146.460000
476.668793	146.020000
476.762512	145.800000
476.856201	146.280000
476.949890	145.700000
477.043610	145.140000
477.137299	145.380000
477.230988	145.880000
477.324707	145.260000
477.418396	146.120000
477.512146	146.380000
477.605804	146.480000
477.699524	146.220000
477.793213	145.960000
477.886932	145.600000
477.980591	145.480000
478.074341	145.160000
478.167999	144.580000
478.261749	144.960000
478.355408	144.640000
478.449127	145.000000
478.542816	145.920000
478.636536	146.860000
478.730225	146.820000
478.823944	147.420000
478.917633	147.460000
479.011322	147.300000
479.105042	147.000000
479.198730	147.300000
479.292450	147.020000
479.386139	147.140000
479.479828	147.220000
479.573547	147.480000
479.667267	147.420000
479.760925	147.460000
479.854675	147.640000
479.948334	147.380000
480.042084	146.580000
480.135742	146.620000
480.229462	146.220000
480.323151	145.920000
480.416870	145.200000
480.510529	145.520000
480.604279	144.880000
480.697937	145.360000
480.791656	145.020000
480.885345	145.260000
480.979065	145.380000
481.072754	146.060000
481.166473	146.260000
481.260132	146.420000
481.353882	146.440000
481.447540	146.200000
481.541260	145.820000
481.635010	145.440000
481.728668	145.340000
481.822388	145.180000
481.916077	145.420000
482.009796	145.420000
482.103485	145.640000
482.197205	145.780000
482.290863	146.140000
482.384613	146.100000
482.478271	145.800000
482.571991	145.740000
482.665680	145.460000
482.759399	145.940000
482.853058	146.380000
482.946808	146.780000
483.040466	146.480000
483.134216	146.600000
483.227875	145.760000
483.321594	145.920000
483.415283	145.900000
483.509003	145.800000
483.602661	145.600000
483.696411	146.080000
483.790070	145.520000
483.883789	145.400000
483.977478	145.780000
484.071198	146.060000
484.164917	145.840000
484.258606	145.860000
484.352325	146.180000
484.445984	146.240000
484.539734	146.200000
484.633392	145.740000
484.727142	145.980000
484.820801	145.720000
484.914520	145.460000
485.008209	145.400000
485.101929	145.940000
485.195587	145.920000
485.289337	145.940000
485.382996	146.200000
485.476715	146.500000
485.570404	146.780000
485.664124	146.460000
485.757782	146.960000
485.851532	146.600000
485.945190	146.140000
486.038910	146.140000
486.132599	146.620000
486.226318	145.960000
486.319977	146.040000
486.413727	146.720000
486.507446	146.100000
486.601105	145.520000
486.694855	145.320000
486.788513	145.020000
486.882233	144.760000
486.975922	145.060000
487.069641	145.060000
487.163300	145.200000
487.257050	146.480000
487.350708	146.280000
487.444427	145.900000
487.538116	145.900000
487.631836	145.780000
487.725494	145.440000
487.819214	145.440000
487.912903	145.940000
488.006622	146.380000
488.100281	146.780000
488.194031	146.400000
488.287689	146.620000
488.381409	147.180000
488.475098	147.120000
488.568817	147.080000
488.662476	146.880000
488.756226	146.460000
488.849945	145.260000
488.943604	145.040000
489.037354	145.240000
489.131012	145.300000
489.224731	145.280000
489.318390	145.480000
489.412140	145.420000
489.505798	145.060000
489.599518	144.740000
489.693207	145.000000
489.786926	144.900000
489.880585	144.840000
489.974335	145.080000
490.067993	146.280000
490.161713	146.780000
490.255371	147.560000
490.349121	147.500000
490.442780	147.160000
490.536499	146.320000
490.630188	146.100000
490.723907	145.440000
490.817566	145.600000
490.911285	145.800000
491.004974	145.540000
491.098694	145.160000
491.192413	146.140000
491.286102	146.220000
491.379822	146.320000
491.473480	146.600000
491.567200	146.860000
491.660889	145.820000
491.754608	145.980000
491.848267	145.580000
491.941986	145.420000
492.035675	145.300000
492.129395	145.920000
492.223053	145.560000
492.316772	146.060000
492.410461	146.080000
492.504181	146.120000
492.597839	145.680000
492.691559	146.060000
492.785248	145.900000
492.878967	145.920000
492.972626	145.660000
493.066345	146.080000
493.160034	145.300000
493.253754	145.380000
493.347412	144.980000
493.441132	145.240000
493.534882	145.360000
493.628540	145.960000
493.722260	145.960000
493.815918	146.420000
493.909668	146.840000
494.003326	146.960000
494.097046	146.980000
494.190704	146.820000
494.284454	146.800000
494.378113	146.400000
494.471832	146.140000
494.565491	145.920000
494.659210	145.960000
494.752899	145.860000
494.846619	145.900000
494.940277	145.680000
495.033997	145.420000
495.127686	144.980000
495.221405	144.860000
495.315063	144.700000
495.408783	144.700000
495.502441	145.280000
495.596191	145.900000
495.689850	145.900000
495.783569	146.120000
495.877228	146.480000
495.970947	146.060000
496.064697	145.840000
496.158356	146.600000
496.252075	146.660000
496.345734	146.220000
496.439453	147.100000
496.533142	147.080000
496.626862	147.060000
496.720520	146.960000
496.814240	147.320000
496.907898	146.840000
497.001617	147.100000
497.095306	146.260000
497.189026	146.420000
497.282684	146.220000
497.376404	146.320000
497.470062	145.960000
497.563782	146.480000
497.657471	146.080000
497.751190	146.140000
497.844849	146.040000
497.938568	146.200000
498.032227	146.100000
498.125946	146.140000
498.219635	145.680000
498.313354	145.520000
498.407074	145.600000
498.500732	145.640000
498.594452	145.860000
498.688110	145.960000
498.781830	145.600000
498.875519	145.380000
498.969238	145.280000
499.062897	144.840000
499.156616	145.340000
499.250275	145.780000
499.343994	145.540000
499.437653	145.240000
499.531372	145.320000
499.625061	145.700000
499.718781	145.580000
499.812439	146.300000
499.906158	146.500000
499.999817	146.560000
500.093536	145.920000
500.187195	146.040000
500.280914	145.860000
500.374573	146.000000
500.468323	145.740000
500.561981	145.920000
500.655701	145.600000
500.749420	145.300000
500.843079	145.700000
500.936798	146.040000
501.030457	146.340000
501.124176	146.740000
501.217834	146.800000
501.311554	146.380000
501.405212	146.580000
501.498962	146.000000
501.592621	146.060000
501.686340	146.620000
501.779999	146.800000
501.873718	146.780000
501.967377	146.800000
502.061096	146.820000
502.154755	145.940000
502.248474	145.940000
502.342133	145.780000
502.435852	146.080000
502.529510	146.540000
502.623230	147.440000
502.716888	146.600000
502.810608	146.780000
502.904266	147.160000
502.997986	146.680000
503.091705	146.040000
503.185364	146.660000
503.279083	146.600000
503.372772	146.280000
503.466492	145.760000
503.560150	145.980000
503.653870	146.200000
503.747528	146.300000
503.841248	145.780000
503.934906	145.920000
504.028625	145.680000
504.122284	145.700000
504.216003	146.120000
504.309662	146.160000
504.403381	146.420000
504.497040	146.260000
504.590759	146.040000
504.684418	146.080000
504.778137	146.560000
504.871796	146.860000
504.965515	146.880000
505.059174	146.900000
505.152893	146.140000
505.246521	145.320000
505.340240	144.680000
505.433899	145.300000
505.527618	145.400000
505.621338	145.760000
505.714996	145.860000
505.808716	145.980000
505.902374	146.180000
505.996094	146.200000
506.089752	145.760000
506.183472	146.000000
506.277130	146.240000
506.370850	145.780000
506.464508	145.340000
506.558228	145.720000
506.651886	145.320000
506.745605	145.320000
506.839264	145.380000
506.932983	145.860000
507.026611	145.820000
507.120331	146.520000
507.213989	146.080000
507.307709	146.020000
507.401367	145.940000
507.495087	146.600000
507.588745	146.280000
507.682465	147.380000
507.776123	147.400000
507.869843	147.280000
507.963531	146.660000
508.057190	147.180000
508.150909	146.180000
508.244568	146.220000
508.338287	145.960000
508.431946	145.740000
508.525665	145.220000
508.619324	145.160000
508.713013	145.140000
508.806671	145.560000
508.900391	146.400000
508.994049	146.660000
509.087769	146.700000
509.181427	146.600000
509.275146	146.300000
509.368774	145.400000
509.462494	145.340000
509.556152	145.360000
509.649872	145.820000
509.743530	146.200000
509.837250	146.460000
509.930878	146.560000
510.024597	146.920000
510.118256	146.320000
510.211975	146.040000
510.305695	146.000000
510.399353	146.300000
510.493042	146.500000
510.586700	146.780000
510.680420	147.540000
510.774078	147.180000
510.867798	146.860000
510.961426	146.280000
511.055145	145.920000
511.148804	145.120000
511.242523	145.660000
511.336151	145.740000
511.429871	145.860000
511.523529	145.940000
511.617249	145.760000
511.710876	145.440000
511.804596	145.280000
511.898254	145.520000
511.991974	145.680000
512.085632	145.780000
512.179321	145.960000
512.272949	146.200000
512.366699	146.560000
512.460327	146.340000
512.554077	147.140000
512.647766	147.080000
512.741394	146.840000
512.835144	146.820000
512.928772	146.820000
513.022461	146.400000
513.116150	146.180000
513.209839	146.820000
513.303467	146.000000
513.397217	145.920000
513.490845	145.940000
513.584595	145.580000
513.678223	144.720000
513.771912	144.560000
513.865601	144.920000
513.959290	144.560000
514.052917	144.780000
514.146667	145.500000
514.240295	146.020000
514.333984	146.240000
514.427673	146.320000
514.521362	147.040000
514.614990	146.340000
514.708740	146.260000
514.802368	146.200000
514.896057	146.200000
514.989746	146.420000
515.083435	146.360000
515.177124	146.700000
515.270752	146.220000
515.364502	146.100000
515.458130	145.940000
515.551819	146.020000
515.645508	145.560000
515.739197	145.760000
515.832825	145.960000
515.926575	145.220000
516.020203	145.400000
516.113892	145.920000
516.207520	145.860000
516.301270	145.960000
516.394897	146.420000
516.488586	146.860000
516.582275	146.740000
516.675964	146.180000
516.769592	145.800000
516.863281	146.160000
516.956970	146.400000
517.050659	146.000000
517.144287	146.560000
517.238037	147.140000
517.331665	146.520000
517.425354	145.900000
517.519043	145.900000
517.612732	146.220000
517.706421	145.740000
517.800049	145.620000
517.893738	145.360000
517.987427	145.600000
518.081116	145.420000
518.174744	145.140000
518.268433	145.680000
518.362122	146.480000
518.455811	146.300000
518.549438	146.840000
518.643127	147.900000
518.736816	147.400000
518.830505	146.820000
518.924133	146.680000
519.017822	146.260000
519.111511	145.800000
519.205200	146.640000
519.298828	146.680000
519.392517	146.860000
519.486206	146.980000
519.579895	146.680000
519.673523	146.020000
519.767212	145.960000
519.860901	146.240000
519.954590	145.820000
520.048279	145.660000
520.141907	145.420000
520.235596	146.340000
520.329224	146.400000
520.422974	146.400000
520.516602	146.580000
520.610291	146.580000
520.703918	146.120000
520.797607	145.700000
520.891296	145.840000
520.984985	146.160000
521.078613	146.960000
521.172302	146.320000
521.265930	147.240000
521.359680	148.000000
521.453308	147.560000
521.546997	146.940000
521.640625	147.400000
521.734314	146.700000
521.827942	146.180000
521.921692	146.460000
522.015320	146.740000
522.109009	146.220000
522.202698	146.080000
522.296326	146.160000
522.390015	146.420000
522.483704	146.340000
522.577393	146.520000
522.671021	146.220000
522.764709	145.440000
522.858337	145.500000
522.952026	145.440000
523.045654	146.060000
523.139404	147.060000
523.233032	147.480000
523.326721	147.180000
523.420349	147.240000
523.514038	146.440000
523.607666	146.380000
523.701355	145.940000
523.795044	146.020000
523.888733	146.100000
523.982361	146.640000
524.076050	145.980000
524.169678	146.680000
524.263367	146.080000
524.356995	145.800000
524.450684	145.500000
524.544373	145.260000
524.638062	145.040000
524.731750	145.740000
524.825378	145.600000
524.919067	145.220000
525.012695	145.560000
525.106384	145.360000
525.200012	145.300000
525.293701	145.240000
525.387329	145.780000
525.481018	145.940000
525.574646	146.220000
525.668396	145.940000
525.762024	146.580000
525.855713	146.700000
525.949341	146.120000
526.043030	146.080000
526.136658	146.180000
526.230347	145.760000
526.323975	145.140000
526.417664	145.200000
526.511292	145.280000
526.604980	145.480000
526.698608	145.520000
526.792297	145.880000
526.885925	146.260000
526.979614	146.260000
527.073303	145.860000
527.166931	145.800000
527.260620	145.960000
527.354309	146.000000
527.447998	145.900000
527.541626	146.000000
527.635315	146.240000
527.728943	146.500000
527.822632	146.700000
527.916260	146.800000
528.009949	146.840000
528.103577	146.540000
528.197266	145.620000
528.290894	145.380000
528.384583	145.020000
528.478210	144.880000
528.571899	145.300000
528.665527	146.180000
528.759216	146.480000
528.852844	147.040000
528.946533	147.340000
529.040161	147.060000
529.133850	146.320000
529.227478	146.640000
529.321167	146.580000
529.414856	146.560000
529.508484	146.960000
529.602173	147.160000
529.695801	146.660000
529.789490	146.740000
529.883057	146.740000
529.976746	146.560000
530.070374	147.000000
530.164062	146.800000
530.257690	146.840000
530.351379	146.780000
530.445007	146.780000
530.538696	146.260000
530.632324	146.680000
530.726013	146.800000
530.819641	146.860000
530.913330	146.760000
531.006958	146.860000
531.100647	146.640000
531.194275	146.240000
531.287964	146.140000
531.381592	145.840000
531.475220	145.840000
531.568848	146.100000
531.662537	145.940000
531.756226	146.520000
531.849854	146.760000
531.943542	146.860000
532.037170	146.220000
532.130859	146.640000
532.224487	146.180000
532.318176	145.720000
532.411804	146.180000
532.505432	146.420000
532.599060	145.920000
532.692749	145.600000
532.786377	146.240000
532.880066	145.640000
532.973694	145.500000
533.067383	145.540000
533.161011	145.400000
533.254639	144.940000
533.348267	144.900000
533.441956	145.360000
533.535583	145.660000
533.629272	146.020000
533.722900	145.980000
533.816589	146.020000
533.910156	145.700000
534.003845	145.360000
534.097534	145.840000
534.191162	146.480000
534.284851	146.520000
534.378479	146.560000
534.472107	146.680000
534.565735	145.940000
534.659424	146.040000
534.753052	146.320000
534.846741	145.840000
534.940369	146.240000
535.033997	146.460000
535.127625	146.120000
535.221313	146.420000
535.314941	146.820000
535.408630	145.940000
535.502197	146.280000
535.595886	145.960000
535.689514	145.600000
535.783203	145.900000
535.876831	146.880000
535.970459	146.660000
536.064087	146.740000
536.157776	146.560000
536.251404	146.580000
536.345093	145.820000
536.438721	145.940000
536.532349	146.160000
536.626038	146.000000
536.719666	146.000000
536.813293	146.060000
536.906921	145.980000
537.000610	146.100000
537.094238	146.440000
537.187866	146.140000
537.281494	146.540000
537.375183	146.660000
537.468811	146.600000
537.562439	146.640000
537.656067	146.600000
537.749756	146.600000
537.843384	146.880000
537.937012	147.020000
538.030640	146.740000
538.124329	147.020000
538.217896	147.260000
538.311584	147.020000
538.405212	146.720000
538.498901	146.760000
538.592468	146.980000
538.686157	146.180000
538.779785	145.480000
538.873413	145.340000
538.967102	145.200000
539.060730	144.660000
539.154358	145.000000
539.247986	145.460000
539.341675	145.600000
539.435242	145.720000
539.528931	145.900000
539.622559	145.680000
539.716187	146.300000
539.809814	146.100000
539.903503	146.380000
539.997070	146.280000
540.090759	146.480000
540.184387	146.200000
540.278015	147.020000
540.371643	147.200000
540.465332	147.400000
540.558899	147.380000
540.652588	147.400000
540.746216	146.800000
540.839844	146.720000
540.933472	146.560000
541.027100	146.460000
541.120728	146.340000
541.214417	146.600000
541.308044	146.900000
541.401672	146.760000
541.495300	146.900000
541.588928	146.880000
541.682617	146.600000
541.776184	145.820000
541.869873	146.180000
541.963440	146.240000
542.057129	146.260000
542.150757	146.640000
542.244385	146.820000
542.338013	146.620000
542.431641	146.560000
542.525269	146.380000
542.618958	146.380000
542.712524	146.800000
542.806213	146.760000
542.899780	146.780000
542.993469	146.600000
543.087036	146.360000
543.180725	145.660000
543.274292	146.080000
543.367981	146.260000
543.461548	146.580000
543.555237	146.480000
543.648926	147.440000
543.742493	147.800000
543.836182	147.720000
543.929749	147.760000
544.023437	147.760000
544.117004	147.240000
544.210693	146.880000
544.304260	146.820000
544.397949	146.620000
544.491516	147.040000
544.585205	146.980000
544.678772	146.680000
544.772461	147.120000
544.866028	147.040000
544.959717	146.960000
545.053284	146.780000
545.146973	147.100000
545.240540	147.340000
545.334229	148.160000
545.427795	148.180000
545.521423	148.500000
545.615051	148.320000
545.708679	148.460000
545.802307	148.080000
545.895935	148.280000
545.989624	148.860000
546.083191	148.620000
546.176880	148.280000
546.270447	147.460000
546.364136	147.560000
546.457703	146.940000
546.551331	147.060000
546.644958	146.720000
546.738586	147.240000
546.832214	146.520000
546.925842	146.460000
547.019409	146.840000
547.113098	146.620000
547.206665	146.440000
547.300354	146.660000
547.393921	146.680000
547.487549	146.600000
547.581177	146.520000
547.674805	146.520000
547.768433	145.840000
547.862061	145.980000
547.955627	145.240000
548.049316	145.860000
548.142883	146.420000
548.236572	147.220000
548.330139	147.300000
548.423767	147.840000
548.517456	147.380000
548.611023	147.140000
548.704651	146.660000
548.798279	146.620000
548.891907	146.740000
548.985474	146.600000
549.079163	146.480000
549.172729	146.180000
549.266357	145.400000
549.359985	145.160000
549.453613	144.920000
549.547180	144.900000
549.640869	145.440000
549.734436	145.620000
549.828064	146.040000
549.921631	145.900000
550.015320	145.560000
550.108887	145.940000
550.202515	146.120000
550.296143	145.440000
550.389771	145.840000
550.483337	145.720000
550.576965	145.120000
550.670593	145.740000
550.764221	145.880000
550.857849	145.780000
550.951477	145.800000
551.045105	145.480000
551.138672	145.120000
551.232300	144.800000
551.325928	145.200000
551.419556	145.400000
551.513123	145.840000
551.606750	145.420000
551.700378	145.940000
551.794006	145.660000
551.887573	145.740000
551.981201	145.960000
552.074768	145.960000
552.168457	145.700000
552.262024	146.500000
552.355652	146.560000
552.449219	147.020000
552.542847	147.340000
552.636475	147.260000
552.730103	146.260000
552.823669	145.880000
552.917297	145.100000
553.010864	144.720000
553.104553	145.260000
553.198181	145.260000
553.291748	145.780000
553.385376	145.900000
553.478943	146.200000
553.572571	145.740000
553.666199	146.120000
553.759827	145.800000
553.853394	145.500000
553.947021	145.560000
554.040588	145.580000
554.134216	145.640000
554.227783	146.420000
554.321411	147.400000
554.415039	146.800000
554.508667	146.800000
554.602234	147.040000
554.695862	145.980000
554.789429	145.420000
554.883057	145.900000
554.976624	145.960000
555.070251	145.620000
555.163818	145.920000
555.257507	145.960000
555.351074	146.020000
555.444702	147.100000
555.538330	146.660000
555.631897	147.180000
555.725525	147.080000
555.819092	146.980000
555.912720	145.480000
556.006287	146.280000
556.099915	145.780000
556.193481	145.920000
556.287109	146.000000
556.380676	146.200000
556.474304	146.000000
556.567871	146.620000
556.661499	146.080000
556.755066	146.360000
556.848694	146.620000
556.942261	146.320000
557.035889	145.940000
557.129517	146.300000
557.223145	146.280000
557.316711	146.060000
557.410339	146.260000
557.503906	146.100000
557.597473	146.560000
557.691040	146.460000
557.784668	146.520000
557.878296	146.460000
557.971863	146.620000
558.065491	146.420000
558.159058	146.120000
558.252686	147.040000
558.346252	147.720000
558.439880	147.240000
558.533447	147.180000
558.627075	147.140000
558.720642	146.540000
558.814270	146.260000
558.907837	146.540000
559.001465	146.180000
559.095032	146.700000
559.188660	146.740000
559.282227	146.040000
559.375854	146.640000
559.469360	146.380000
559.562988	146.520000
559.656555	146.360000
559.750183	146.900000
559.843750	146.640000
559.937378	147.200000
560.030945	146.920000
560.124573	0.000000
560.218140	0.000000
560.311707	0.000000
560.405334	0.000000
560.498901	0.000000
560.592529	0.000000
560.686096	0.000000
560.779724	0.000000
560.873291	0.000000
560.966858	0.000000
561.060425	0.000000
561.154053	0.000000
561.247620	0.000000
561.341248	0.000000
561.434814	0.000000
561.528381	0.000000
561.621948	0.000000
561.715576	0.000000
561.809143	0.000000
561.902771	0.000000
561.996277	0.000000
562.089905	0.000000
562.183472	0.000000
562.277100	0.000000
