Model Number: SPM-002-B   
Serial Number: 70087108
Firmware Version: 004.15.4
Exposure Time: 100000.000000us
Data Taken on: 11-12-2020 19:31:12.964
Wavelength	Amplitude
221.570786	0.000000
221.663406	0.000000
221.756027	0.000000
221.848648	0.000000
221.941269	0.000000
222.033905	0.000000
222.126526	0.000000
222.219162	0.000000
222.311798	0.000000
222.404419	0.000000
222.497055	0.000000
222.589676	0.000000
222.682312	0.000000
222.774933	0.000000
222.867569	0.000000
222.960205	0.000000
223.052841	0.000000
223.145462	0.000000
223.238098	0.000000
223.330734	0.000000
223.423386	0.000000
223.516022	0.000000
223.608658	0.000000
223.701309	0.000000
223.793945	0.000000
223.886581	0.000000
223.979218	0.000000
224.071869	0.000000
224.164505	0.000000
224.257156	0.000000
224.349792	0.000000
224.442444	0.000000
224.535095	0.000000
224.627747	0.000000
224.720398	0.000000
224.813034	0.000000
224.905685	0.000000
224.998337	145.760000
225.090988	145.520000
225.183640	145.540000
225.276291	145.100000
225.368942	145.900000
225.461594	146.260000
225.554245	146.460000
225.646912	146.360000
225.739578	146.920000
225.832230	147.160000
225.924896	146.280000
226.017548	146.720000
226.110199	147.300000
226.202866	146.800000
226.295532	146.380000
226.388184	146.560000
226.480850	145.940000
226.573517	145.380000
226.666168	145.760000
226.758835	146.220000
226.851501	146.900000
226.944183	147.240000
227.036850	147.100000
227.129517	146.900000
227.222183	146.880000
227.314850	146.580000
227.407516	146.700000
227.500198	147.480000
227.592865	147.480000
227.685532	147.000000
227.778214	146.860000
227.870880	147.140000
227.963562	147.320000
228.056229	147.500000
228.148926	147.720000
228.241592	148.420000
228.334274	148.120000
228.426956	147.700000
228.519638	147.900000
228.612305	147.580000
228.704987	147.320000
228.797668	147.060000
228.890350	147.180000
228.983032	146.440000
229.075714	146.860000
229.168396	146.540000
229.261108	146.300000
229.353790	145.800000
229.446472	146.340000
229.539169	146.060000
229.631851	145.660000
229.724533	145.940000
229.817230	146.180000
229.909912	147.020000
230.002609	147.320000
230.095306	147.620000
230.187988	147.720000
230.280685	147.520000
230.373383	146.180000
230.466095	146.100000
230.558792	146.640000
230.651474	146.400000
230.744171	146.620000
230.836868	146.780000
230.929581	146.720000
231.022278	146.380000
231.114975	146.320000
231.207672	145.840000
231.300369	146.340000
231.393082	146.280000
231.485779	146.000000
231.578506	146.160000
231.671204	146.600000
231.763916	146.540000
231.856613	146.500000
231.949326	146.640000
232.042023	146.400000
232.134735	146.320000
232.227448	145.620000
232.320160	145.920000
232.412872	145.880000
232.505585	146.780000
232.598297	147.420000
232.691010	147.720000
232.783722	147.100000
232.876450	147.740000
232.969162	147.300000
233.061874	146.700000
233.154587	146.580000
233.247314	147.040000
233.340027	146.360000
233.432739	146.600000
233.525467	146.240000
233.618179	146.620000
233.710907	146.300000
233.803635	146.720000
233.896347	146.340000
233.989090	147.280000
234.081818	147.200000
234.174545	147.460000
234.267258	146.960000
234.359985	147.300000
234.452713	146.860000
234.545441	146.460000
234.638168	146.440000
234.730896	146.940000
234.823639	146.500000
234.916367	146.820000
235.009094	146.980000
235.101822	147.060000
235.194580	146.880000
235.287308	147.200000
235.380051	146.400000
235.472778	146.620000
235.565521	146.740000
235.658249	146.560000
235.750992	146.420000
235.843719	146.960000
235.936462	147.360000
236.029205	147.060000
236.121948	146.920000
236.214691	147.320000
236.307449	147.940000
236.400192	147.140000
236.492935	147.040000
236.585678	147.060000
236.678421	146.680000
236.771164	146.380000
236.863907	147.020000
236.956665	147.420000
237.049408	149.240000
237.142151	149.040000
237.234909	149.340000
237.327652	149.320000
237.420410	148.880000
237.513153	147.560000
237.605927	147.340000
237.698669	146.680000
237.791428	146.300000
237.884186	146.860000
237.976944	146.480000
238.069702	146.980000
238.162445	146.680000
238.255203	146.860000
238.347961	147.120000
238.440720	147.200000
238.533478	147.140000
238.626266	146.840000
238.719025	146.920000
238.811783	146.380000
238.904541	146.240000
238.997314	146.120000
239.090073	146.160000
239.182831	146.160000
239.275604	146.900000
239.368362	146.720000
239.461136	147.040000
239.553909	147.220000
239.646667	147.140000
239.739441	146.700000
239.832214	147.400000
239.925003	147.120000
240.017761	147.720000
240.110535	148.000000
240.203308	147.480000
240.296082	147.280000
240.388855	147.280000
240.481628	147.220000
240.574417	147.340000
240.667191	147.680000
240.759964	147.180000
240.852737	147.180000
240.945526	146.640000
241.038315	146.280000
241.131088	146.320000
241.223877	146.760000
241.316650	146.340000
241.409439	146.760000
241.502228	146.240000
241.595001	146.520000
241.687790	146.240000
241.780579	146.340000
241.873367	146.300000
241.966141	146.760000
242.058929	146.320000
242.151718	146.820000
242.244507	147.400000
242.337311	146.660000
242.430099	147.140000
242.522903	147.440000
242.615692	146.620000
242.708481	146.460000
242.801270	147.300000
242.894073	146.960000
242.986862	146.680000
243.079651	147.300000
243.172455	147.040000
243.265244	147.020000
243.358063	146.580000
243.450867	146.760000
243.543655	147.020000
243.636459	147.300000
243.729263	147.640000
243.822067	148.300000
243.914856	148.740000
244.007660	148.700000
244.100464	148.740000
244.193268	148.100000
244.286072	147.880000
244.378876	147.040000
244.471680	146.500000
244.564499	146.440000
244.657318	147.060000
244.750122	147.160000
244.842926	146.580000
244.935745	147.120000
245.028549	147.000000
245.121368	146.780000
245.214172	146.600000
245.306992	147.540000
245.399796	147.100000
245.492615	147.120000
245.585434	146.940000
245.678253	147.120000
245.771072	146.640000
245.863892	147.120000
245.956711	147.200000
246.049530	146.820000
246.142349	146.320000
246.235168	146.740000
246.327988	147.400000
246.420807	147.340000
246.513626	147.660000
246.606445	147.760000
246.699280	147.440000
246.792099	146.340000
246.884918	146.020000
246.977753	145.500000
247.070587	145.560000
247.163422	145.640000
247.256241	146.020000
247.349075	146.420000
247.441895	146.760000
247.534729	146.900000
247.627563	146.900000
247.720383	147.440000
247.813217	147.360000
247.906052	147.120000
247.998886	147.160000
248.091736	147.020000
248.184570	146.260000
248.277405	146.220000
248.370239	147.200000
248.463074	148.080000
248.555908	148.580000
248.648743	148.500000
248.741592	148.460000
248.834427	147.880000
248.927261	146.220000
249.020111	146.200000
249.112946	146.700000
249.205795	146.580000
249.298630	146.500000
249.391495	147.020000
249.484344	146.740000
249.577179	146.520000
249.670029	146.780000
249.762878	147.300000
249.855728	147.620000
249.948563	147.840000
250.041412	147.500000
250.134262	147.340000
250.227112	147.060000
250.319962	146.940000
250.412827	146.840000
250.505692	146.720000
250.598541	146.720000
250.691391	146.480000
250.784241	146.540000
250.877106	146.580000
250.969955	146.440000
251.062805	146.920000
251.155670	147.440000
251.248520	147.180000
251.341385	147.280000
251.434235	147.400000
251.527100	147.080000
251.619965	146.660000
251.712814	147.580000
251.805695	147.400000
251.898560	147.560000
251.991425	147.580000
252.084290	147.820000
252.177155	146.800000
252.270020	146.680000
252.362885	146.620000
252.455750	146.500000
252.548615	145.940000
252.641479	146.100000
252.734360	146.020000
252.827240	145.740000
252.920105	145.900000
253.012970	146.100000
253.105850	146.100000
253.198715	145.840000
253.291595	146.180000
253.384460	145.900000
253.477341	145.600000
253.570221	146.000000
253.663086	146.160000
253.755966	146.640000
253.848846	146.740000
253.941727	147.320000
254.034592	147.000000
254.127472	146.960000
254.220367	146.760000
254.313248	146.800000
254.406128	146.380000
254.499008	146.840000
254.591904	147.580000
254.684784	147.900000
254.777664	147.780000
254.870544	147.600000
254.963440	147.140000
255.056335	146.840000
255.149216	146.500000
255.242111	147.160000
255.334991	147.700000
255.427887	147.760000
255.520767	147.600000
255.613663	147.540000
255.706558	146.800000
255.799438	146.280000
255.892334	145.860000
255.985229	146.040000
256.078125	145.900000
256.171021	146.220000
256.263916	146.860000
256.356812	147.500000
256.449707	147.740000
256.542603	147.520000
256.635498	147.760000
256.728394	147.320000
256.821289	146.820000
256.914215	146.800000
257.007080	147.260000
257.100006	147.140000
257.192932	147.880000
257.285828	148.380000
257.378723	148.160000
257.471619	147.640000
257.564545	147.460000
257.657440	147.360000
257.750336	147.780000
257.843262	147.560000
257.936157	148.860000
258.029053	149.180000
258.121979	149.060000
258.214874	148.320000
258.307800	148.400000
258.400696	147.240000
258.493622	146.780000
258.586517	146.020000
258.679443	146.520000
258.772339	145.820000
258.865265	145.800000
258.958160	145.640000
259.051086	146.360000
259.144012	146.140000
259.236938	147.180000
259.329834	147.200000
259.422791	147.020000
259.515717	146.500000
259.608612	146.360000
259.701538	146.220000
259.794464	146.300000
259.887390	146.580000
259.980316	146.660000
260.073212	146.400000
260.166138	145.660000
260.259064	145.880000
260.351990	146.440000
260.444916	146.500000
260.537842	146.900000
260.630768	147.560000
260.723694	147.580000
260.816620	147.200000
260.909546	147.280000
261.002472	147.020000
261.095398	146.580000
261.188354	146.360000
261.281281	145.860000
261.374207	146.040000
261.467133	146.700000
261.560089	146.660000
261.653015	146.660000
261.745972	147.500000
261.838867	147.820000
261.931824	147.760000
262.024780	147.580000
262.117706	147.840000
262.210663	147.680000
262.303589	147.100000
262.396515	146.820000
262.489471	148.140000
262.582397	147.860000
262.675354	147.540000
262.768280	147.580000
262.861237	147.680000
262.954163	147.280000
263.047119	147.400000
263.140045	147.340000
263.233002	147.240000
263.325958	146.760000
263.418884	145.940000
263.511841	146.120000
263.604797	146.320000
263.697723	146.580000
263.790680	146.700000
263.883636	147.120000
263.976593	146.700000
264.069550	146.740000
264.162476	146.220000
264.255463	146.440000
264.348419	146.260000
264.441376	146.720000
264.534332	146.040000
264.627289	146.520000
264.720245	147.120000
264.813202	146.800000
264.906158	146.980000
264.999115	147.900000
265.092072	147.720000
265.185028	147.780000
265.277985	148.200000
265.370941	147.680000
265.463898	147.540000
265.556854	147.280000
265.649811	146.060000
265.742798	146.020000
265.835754	146.240000
265.928711	146.320000
266.021667	146.680000
266.114655	147.320000
266.207611	147.600000
266.300568	146.900000
266.393585	146.380000
266.486511	146.620000
266.579498	146.000000
266.672485	145.720000
266.765442	145.840000
266.858429	146.380000
266.951385	145.800000
267.044342	146.140000
267.137329	145.960000
267.230316	146.200000
267.323273	145.740000
267.416260	146.520000
267.509216	146.420000
267.602203	146.360000
267.695160	146.860000
267.788147	147.000000
267.881134	146.260000
267.974091	146.660000
268.067078	146.860000
268.160065	146.500000
268.253052	146.260000
268.346008	146.500000
268.438995	146.100000
268.531982	146.200000
268.624969	146.200000
268.717987	146.500000
268.810944	146.400000
268.903961	146.440000
268.996948	146.260000
269.089905	146.480000
269.182892	146.620000
269.275879	147.100000
269.368866	146.820000
269.461853	147.040000
269.554871	146.860000
269.647858	146.800000
269.740845	146.860000
269.833832	147.220000
269.926819	146.860000
270.019806	147.040000
270.112793	146.760000
270.205811	146.820000
270.298798	146.560000
270.391785	147.260000
270.484772	147.040000
270.577789	147.060000
270.670776	146.400000
270.763763	146.740000
270.856750	146.680000
270.949768	146.320000
271.042786	146.340000
271.135773	146.560000
271.228790	146.980000
271.321808	146.220000
271.414795	146.200000
271.507782	146.120000
271.600800	145.860000
271.693817	145.440000
271.786804	146.120000
271.879822	146.640000
271.972809	146.740000
272.065826	147.300000
272.158844	146.920000
272.251831	147.440000
272.344849	147.040000
272.437866	146.560000
272.530853	146.320000
272.623871	146.640000
272.716888	145.560000
272.809906	146.100000
272.902893	146.360000
272.995911	145.940000
273.088928	146.260000
273.181946	146.640000
273.274963	146.420000
273.367981	146.440000
273.460999	146.860000
273.554047	146.880000
273.647003	147.260000
273.740051	147.160000
273.833069	147.840000
273.926086	147.920000
274.019135	147.520000
274.112152	146.980000
274.205170	147.020000
274.298187	146.700000
274.391205	146.140000
274.484222	146.120000
274.577240	146.120000
274.670258	146.100000
274.763306	145.800000
274.856323	146.300000
274.949341	146.400000
275.042358	146.840000
275.135406	146.760000
275.228424	146.860000
275.321442	146.840000
275.414490	146.580000
275.507507	146.780000
275.600525	147.180000
275.693573	147.000000
275.786591	146.620000
275.879669	146.960000
275.972656	146.600000
276.065735	146.280000
276.158752	146.920000
276.251801	147.640000
276.344818	147.780000
276.437866	147.760000
276.530884	147.580000
276.623932	147.080000
276.716980	146.980000
276.809998	146.620000
276.903046	146.840000
276.996094	147.780000
277.089111	147.980000
277.182159	148.160000
277.275208	148.020000
277.368256	147.760000
277.461304	147.040000
277.554321	146.460000
277.647369	146.260000
277.740417	146.380000
277.833466	146.100000
277.926514	146.240000
278.019562	147.100000
278.112610	146.540000
278.205688	146.580000
278.298706	146.700000
278.391785	146.400000
278.484833	145.640000
278.577881	145.320000
278.670929	145.400000
278.763977	145.720000
278.857025	146.060000
278.950073	146.280000
279.043121	146.420000
279.136169	146.660000
279.229248	146.180000
279.322296	146.140000
279.415344	146.140000
279.508392	146.360000
279.601440	146.120000
279.694519	146.080000
279.787567	145.920000
279.880615	145.940000
279.973694	146.120000
280.066742	146.120000
280.159790	146.600000
280.252869	146.360000
280.345917	146.620000
280.438995	146.480000
280.532074	146.360000
280.625122	146.380000
280.718201	147.480000
280.811279	147.300000
280.904327	147.220000
280.997406	147.400000
281.090454	147.420000
281.183533	146.260000
281.276581	145.980000
281.369659	145.620000
281.462738	145.680000
281.555786	145.880000
281.648865	146.300000
281.741943	146.200000
281.835022	147.020000
281.928070	146.880000
282.021149	146.380000
282.114227	146.440000
282.207306	146.480000
282.300385	146.580000
282.393433	146.900000
282.486511	147.020000
282.579590	147.080000
282.672668	147.560000
282.765747	146.940000
282.858856	146.500000
282.951904	146.580000
283.045013	146.820000
283.138062	146.840000
283.231171	147.300000
283.324249	147.780000
283.417328	147.760000
283.510406	146.940000
283.603485	146.600000
283.696564	146.380000
283.789642	146.200000
283.882751	146.000000
283.975830	146.960000
284.068909	146.840000
284.161987	147.300000
284.255066	146.760000
284.348175	147.080000
284.441254	146.460000
284.534332	147.020000
284.627441	146.580000
284.720520	146.560000
284.813599	146.260000
284.906708	146.540000
284.999786	145.800000
285.092896	145.460000
285.185974	146.480000
285.279053	146.100000
285.372192	146.120000
285.465240	146.680000
285.558380	146.860000
285.651459	146.320000
285.744568	147.420000
285.837677	146.900000
285.930756	146.900000
286.023865	147.020000
286.116943	146.580000
286.210052	146.240000
286.303162	146.580000
286.396240	146.400000
286.489349	145.980000
286.582458	146.420000
286.675568	145.840000
286.768646	145.820000
286.861755	146.380000
286.954865	147.380000
287.047974	146.780000
287.141083	146.820000
287.234161	146.480000
287.327271	145.860000
287.420380	145.960000
287.513519	146.120000
287.606598	146.320000
287.699738	146.500000
287.792816	146.660000
287.885956	146.260000
287.979034	146.400000
288.072174	146.280000
288.165283	146.440000
288.258392	146.680000
288.351501	146.240000
288.444611	146.640000
288.537720	147.220000
288.630859	147.120000
288.723969	147.100000
288.817078	147.440000
288.910187	147.020000
289.003296	146.400000
289.096436	146.240000
289.189545	145.900000
289.282654	145.680000
289.375763	146.220000
289.468903	146.700000
289.562012	146.960000
289.655121	147.260000
289.748260	147.280000
289.841400	147.260000
289.934509	147.040000
290.027649	146.900000
290.120728	146.460000
290.213898	146.360000
290.306976	145.940000
290.400146	146.040000
290.493256	145.520000
290.586395	145.940000
290.679535	146.460000
290.772644	146.320000
290.865784	145.800000
290.958893	146.340000
291.052032	146.080000
291.145172	145.800000
291.238281	145.660000
291.331421	145.700000
291.424561	145.960000
291.517670	145.900000
291.610809	145.960000
291.703949	146.200000
291.797089	146.520000
291.890228	145.920000
291.983337	145.880000
292.076477	145.760000
292.169617	146.240000
292.262756	146.140000
292.355927	146.220000
292.449036	146.180000
292.542206	146.260000
292.635315	145.980000
292.728485	146.320000
292.821625	145.980000
292.914764	147.100000
293.007904	147.600000
293.101044	147.620000
293.194183	147.280000
293.287323	147.760000
293.380463	146.780000
293.473602	146.120000
293.566742	146.480000
293.659882	147.240000
293.753021	147.400000
293.846191	147.420000
293.939331	146.940000
294.032471	146.680000
294.125610	145.820000
294.218781	146.340000
294.311920	146.780000
294.405060	147.600000
294.498230	147.480000
294.591370	147.900000
294.684540	147.140000
294.777679	146.480000
294.870850	146.560000
294.963959	146.620000
295.057159	146.220000
295.150299	146.540000
295.243469	146.520000
295.336609	145.740000
295.429779	145.660000
295.522919	146.020000
295.616089	145.820000
295.709229	146.680000
295.802399	147.080000
295.895569	146.980000
295.988708	146.760000
296.081879	147.040000
296.175018	146.460000
296.268188	146.340000
296.361359	146.580000
296.454529	146.780000
296.547668	146.680000
296.640839	147.180000
296.734009	147.100000
296.827179	146.960000
296.920319	147.120000
297.013519	146.840000
297.106659	146.720000
297.199860	146.640000
297.292999	146.700000
297.386200	146.280000
297.479309	146.280000
297.572510	146.080000
297.665680	146.040000
297.758850	146.060000
297.852020	145.920000
297.945190	146.040000
298.038361	145.600000
298.131531	146.600000
298.224701	146.620000
298.317871	146.720000
298.411072	146.140000
298.504242	146.260000
298.597412	145.460000
298.690582	145.280000
298.783752	145.200000
298.876923	145.760000
298.970093	145.540000
299.063293	145.640000
299.156464	145.940000
299.249634	146.400000
299.342834	146.360000
299.436005	146.960000
299.529205	146.920000
299.622345	146.840000
299.715576	146.120000
299.808716	145.960000
299.901917	145.940000
299.995117	146.320000
300.088287	146.520000
300.181488	146.500000
300.274658	146.500000
300.367828	146.280000
300.461029	146.040000
300.554199	146.020000
300.647400	146.400000
300.740601	147.020000
300.833771	147.040000
300.926971	147.360000
301.020142	146.900000
301.113342	146.700000
301.206512	146.180000
301.299713	146.480000
301.392914	146.340000
301.486084	146.900000
301.579285	147.000000
301.672516	147.560000
301.765686	147.080000
301.858887	146.980000
301.952057	146.780000
302.045288	146.740000
302.138458	146.260000
302.231659	146.140000
302.324860	145.920000
302.418060	145.400000
302.511261	145.340000
302.604462	145.600000
302.697662	145.660000
302.790863	145.540000
302.884064	145.520000
302.977264	145.820000
303.070465	146.120000
303.163666	146.680000
303.256866	146.800000
303.350067	147.000000
303.443268	146.880000
303.536469	146.900000
303.629669	146.320000
303.722870	146.820000
303.816071	146.700000
303.909271	146.780000
304.002472	145.980000
304.095673	146.280000
304.188934	145.400000
304.282104	146.440000
304.375336	146.240000
304.468506	146.240000
304.561768	145.960000
304.654968	146.600000
304.748169	145.540000
304.841370	145.500000
304.934601	146.040000
305.027802	146.020000
305.121002	145.500000
305.214233	145.760000
305.307434	145.740000
305.400665	146.180000
305.493866	145.640000
305.587097	146.020000
305.680298	145.940000
305.773499	146.500000
305.866730	145.900000
305.959930	146.900000
306.053162	147.340000
306.146393	147.160000
306.239594	146.420000
306.332825	146.320000
306.426025	146.420000
306.519287	145.620000
306.612488	145.860000
306.705719	145.980000
306.798920	146.200000
306.892181	145.640000
306.985352	145.740000
307.078613	145.220000
307.171844	145.820000
307.265045	145.260000
307.358276	144.920000
307.451508	145.460000
307.544739	146.200000
307.637970	145.620000
307.731201	145.540000
307.824402	146.680000
307.917633	146.380000
308.010864	146.440000
308.104095	146.900000
308.197327	147.280000
308.290558	146.800000
308.383789	146.840000
308.477020	146.220000
308.570251	145.520000
308.663483	145.260000
308.756714	145.180000
308.849976	145.260000
308.943176	146.060000
309.036438	146.320000
309.129639	146.400000
309.222900	146.480000
309.316101	146.260000
309.409393	145.540000
309.502625	145.520000
309.595856	145.760000
309.689087	145.520000
309.782318	145.600000
309.875580	146.020000
309.968811	146.000000
310.062042	145.540000
310.155273	145.620000
310.248535	145.720000
310.341766	145.660000
310.434998	145.420000
310.528259	145.700000
310.621490	145.960000
310.714722	145.660000
310.807983	145.460000
310.901215	145.840000
310.994476	145.960000
311.087708	145.680000
311.181000	145.960000
311.274200	145.760000
311.367462	145.720000
311.460693	145.620000
311.553986	146.360000
311.647186	146.560000
311.740479	147.180000
311.833710	146.880000
311.926971	146.840000
312.020203	145.840000
312.113464	145.600000
312.206726	144.860000
312.299957	145.120000
312.393219	145.420000
312.486481	145.980000
312.579712	146.120000
312.672974	146.640000
312.766235	146.580000
312.859497	146.480000
312.952759	146.420000
313.045990	147.140000
313.139252	146.640000
313.232513	147.180000
313.325775	147.320000
313.419037	147.060000
313.512299	145.940000
313.605530	146.560000
313.698822	146.540000
313.792053	146.720000
313.885345	146.520000
313.978577	146.900000
314.071869	146.340000
314.165131	146.360000
314.258392	146.400000
314.351654	146.620000
314.444916	145.840000
314.538177	146.640000
314.631439	146.600000
314.724701	145.940000
314.817993	145.900000
314.911255	146.620000
315.004517	145.680000
315.097778	145.540000
315.191040	146.480000
315.284302	146.780000
315.377594	146.640000
315.470856	147.180000
315.564117	146.640000
315.657379	145.780000
315.750671	145.220000
315.843933	145.560000
315.937195	144.920000
316.030518	145.000000
316.123749	145.040000
316.217041	146.160000
316.310303	146.040000
316.403595	146.760000
316.496857	147.220000
316.590149	147.400000
316.683411	146.280000
316.776703	145.900000
316.869965	145.860000
316.963257	145.420000
317.056519	144.920000
317.149811	145.120000
317.243073	145.260000
317.336365	145.200000
317.429626	145.380000
317.522919	146.260000
317.616180	146.400000
317.709473	146.200000
317.802765	145.980000
317.896027	146.140000
317.989319	146.080000
318.082611	145.700000
318.175873	145.620000
318.269165	145.920000
318.362488	146.000000
318.455750	145.700000
318.549042	146.520000
318.642303	147.260000
318.735626	146.860000
318.828888	146.880000
318.922211	146.420000
319.015472	146.720000
319.108765	145.840000
319.202057	145.680000
319.295349	145.780000
319.388641	146.080000
319.481934	145.320000
319.575226	145.560000
319.668518	146.060000
319.761810	145.780000
319.855103	145.880000
319.948395	146.200000
320.041687	146.300000
320.134979	146.100000
320.228271	146.100000
320.321564	145.900000
320.414856	145.980000
320.508148	145.760000
320.601440	145.800000
320.694763	145.820000
320.788025	146.560000
320.881348	146.160000
320.974640	146.420000
321.067963	145.960000
321.161224	145.840000
321.254547	145.180000
321.347839	145.940000
321.441162	145.620000
321.534454	145.940000
321.627747	145.840000
321.721069	146.520000
321.814362	146.240000
321.907654	146.340000
322.000946	146.360000
322.094269	147.260000
322.187561	146.440000
322.280884	146.240000
322.374176	146.280000
322.467468	146.920000
322.560791	146.420000
322.654083	147.100000
322.747406	147.440000
322.840698	147.780000
322.934021	147.600000
323.027344	147.660000
323.120636	147.180000
323.213959	147.040000
323.307251	146.560000
323.400574	146.200000
323.493866	145.880000
323.587219	146.220000
323.680511	146.480000
323.773834	146.680000
323.867157	146.900000
323.960449	146.940000
324.053772	146.780000
324.147095	146.700000
324.240387	147.440000
324.333710	147.360000
324.427032	147.800000
324.520355	147.840000
324.613647	147.100000
324.706970	146.440000
324.800293	146.080000
324.893616	146.180000
324.986938	146.260000
325.080231	146.440000
325.173553	146.900000
325.266876	147.440000
325.360199	146.940000
325.453522	146.460000
325.546875	146.300000
325.640167	146.220000
325.733521	146.380000
325.826813	146.880000
325.920166	146.880000
326.013489	146.900000
326.106812	145.860000
326.200134	145.520000
326.293457	145.000000
326.386780	145.320000
326.480103	145.180000
326.573425	145.600000
326.666748	145.380000
326.760071	145.820000
326.853424	146.100000
326.946747	146.340000
327.040070	147.020000
327.133392	147.100000
327.226715	146.460000
327.320068	145.820000
327.413391	146.320000
327.506714	145.820000
327.600037	146.220000
327.693390	146.640000
327.786713	146.900000
327.880066	146.540000
327.973358	146.920000
328.066742	147.060000
328.160034	147.000000
328.253418	147.540000
328.346710	147.560000
328.440063	147.260000
328.533417	146.780000
328.626740	147.000000
328.720093	146.660000
328.813416	146.720000
328.906769	146.780000
329.000092	146.860000
329.093445	146.640000
329.186768	146.160000
329.280121	146.020000
329.373444	146.180000
329.466797	146.140000
329.560120	146.200000
329.653473	146.640000
329.746796	146.560000
329.840149	146.300000
329.933502	146.480000
330.026825	146.460000
330.120178	145.960000
330.213562	145.760000
330.306854	145.740000
330.400238	145.560000
330.493561	145.300000
330.586945	146.160000
330.680237	146.700000
330.773621	146.760000
330.866974	146.640000
330.960327	146.800000
331.053680	146.220000
331.147003	146.240000
331.240356	146.580000
331.333710	146.720000
331.427063	146.380000
331.520416	146.300000
331.613770	145.820000
331.707123	145.880000
331.800476	146.260000
331.893829	147.600000
331.987152	147.960000
332.080505	148.220000
332.173859	147.920000
332.267212	147.120000
332.360565	146.040000
332.453918	145.880000
332.547333	145.760000
332.640656	145.900000
332.734039	146.220000
332.827362	146.480000
332.920746	146.940000
333.014069	147.140000
333.107452	147.400000
333.200806	147.700000
333.294159	147.580000
333.387543	147.000000
333.480896	146.900000
333.574249	146.680000
333.667603	146.380000
333.760956	146.620000
333.854340	146.740000
333.947693	146.860000
334.041046	146.740000
334.134430	146.980000
334.227783	146.620000
334.321136	146.340000
334.414520	145.920000
334.507874	146.160000
334.601227	146.160000
334.694611	146.060000
334.787964	146.460000
334.881348	146.900000
334.974701	146.700000
335.068085	146.220000
335.161438	146.820000
335.254822	146.620000
335.348175	146.660000
335.441559	146.300000
335.534943	147.240000
335.628296	146.680000
335.721680	146.740000
335.815033	146.800000
335.908417	147.260000
336.001770	146.860000
336.095154	146.880000
336.188538	146.500000
336.281891	146.060000
336.375275	145.720000
336.468658	145.420000
336.562012	145.420000
336.655396	145.940000
336.748779	146.440000
336.842133	146.700000
336.935516	146.960000
337.028900	147.060000
337.122284	146.780000
337.215637	146.880000
337.309021	146.560000
337.402435	145.880000
337.495789	145.860000
337.589203	145.860000
337.682526	145.440000
337.775940	145.740000
337.869324	146.340000
337.962708	145.840000
338.056091	146.480000
338.149475	146.200000
338.242859	146.180000
338.336243	145.680000
338.429626	146.320000
338.523010	145.640000
338.616394	145.820000
338.709778	146.020000
338.803162	146.640000
338.896545	146.440000
338.989929	146.280000
339.083313	146.640000
339.176697	146.320000
339.270081	146.100000
339.363464	146.580000
339.456848	147.020000
339.550232	146.280000
339.643616	146.000000
339.737030	145.920000
339.830383	145.540000
339.923828	145.740000
340.017181	146.180000
340.110596	146.460000
340.203949	146.520000
340.297363	146.160000
340.390778	145.880000
340.484161	145.980000
340.577545	145.720000
340.670959	145.740000
340.764343	146.040000
340.857727	145.720000
340.951111	145.120000
341.044525	145.440000
341.137909	145.020000
341.231293	145.120000
341.324707	145.300000
341.418091	146.160000
341.511505	146.340000
341.604889	146.760000
341.698303	146.660000
341.791687	146.780000
341.885071	146.460000
341.978485	146.180000
342.071899	146.360000
342.165283	146.780000
342.258698	147.140000
342.352081	147.400000
342.445496	148.260000
342.538879	148.040000
342.632324	147.580000
342.725708	147.600000
342.819122	147.120000
342.912506	146.220000
343.005920	146.160000
343.099335	147.060000
343.192719	146.760000
343.286133	146.940000
343.379547	147.080000
343.472931	147.440000
343.566345	146.720000
343.659760	146.780000
343.753143	146.340000
343.846558	146.200000
343.939972	145.740000
344.033386	146.100000
344.126770	145.920000
344.220184	146.380000
344.313599	146.940000
344.407043	147.320000
344.500427	146.700000
344.593872	147.180000
344.687225	146.740000
344.780670	146.140000
344.874054	146.000000
344.967499	146.400000
345.060913	146.320000
345.154327	146.440000
345.247742	146.080000
345.341156	145.740000
345.434570	145.480000
345.527985	145.160000
345.621399	145.380000
345.714813	145.960000
345.808228	146.220000
345.901642	146.160000
345.995056	145.840000
346.088470	145.960000
346.181885	145.700000
346.275299	145.520000
346.368713	145.360000
346.462128	145.540000
346.555573	145.340000
346.648987	145.640000
346.742401	145.540000
346.835815	146.360000
346.929260	146.080000
347.022644	146.140000
347.116119	146.220000
347.209503	146.760000
347.302948	147.140000
347.396362	147.720000
347.489807	148.040000
347.583221	148.360000
347.676636	148.080000
347.770050	146.900000
347.863495	146.280000
347.956909	146.320000
348.050323	145.580000
348.143768	145.180000
348.237183	145.160000
348.330597	145.980000
348.424042	146.020000
348.517456	146.600000
348.610901	147.040000
348.704315	147.240000
348.797760	146.600000
348.891174	146.000000
348.984619	145.260000
349.078033	145.420000
349.171448	145.940000
349.264923	145.740000
349.358337	145.500000
349.451782	145.940000
349.545197	145.660000
349.638641	144.820000
349.732086	144.700000
349.825500	145.360000
349.918945	145.140000
350.012390	145.520000
350.105804	146.120000
350.199249	146.560000
350.292664	146.820000
350.386108	147.020000
350.479553	147.580000
350.572968	147.460000
350.666412	147.740000
350.759857	147.560000
350.853302	148.060000
350.946716	147.240000
351.040161	147.540000
351.133606	147.520000
351.227081	147.380000
351.320465	147.800000
351.413940	147.900000
351.507355	147.600000
351.600830	147.660000
351.694244	147.280000
351.787720	146.540000
351.881104	146.600000
351.974579	146.300000
352.067993	146.980000
352.161469	147.400000
352.254883	146.920000
352.348358	146.640000
352.441803	146.820000
352.535248	145.920000
352.628693	146.420000
352.722137	146.260000
352.815582	146.520000
352.909027	146.600000
353.002472	146.680000
353.095917	146.240000
353.189362	146.880000
353.282806	146.820000
353.376251	146.740000
353.469696	146.480000
353.563141	146.980000
353.656586	146.620000
353.750061	146.100000
353.843475	146.120000
353.936981	146.520000
354.030396	145.920000
354.123871	145.920000
354.217285	146.860000
354.310760	147.220000
354.404175	147.140000
354.497681	146.920000
354.591095	146.820000
354.684570	146.120000
354.777985	145.760000
354.871490	145.340000
354.964935	145.820000
355.058380	146.360000
355.151855	146.040000
355.245300	146.280000
355.338745	146.720000
355.432220	146.560000
355.525665	145.900000
355.619110	146.760000
355.712585	146.620000
355.806030	146.540000
355.899475	146.220000
355.992950	146.780000
356.086426	147.040000
356.179871	146.920000
356.273346	146.700000
356.366791	146.980000
356.460266	147.220000
356.553711	146.600000
356.647186	146.620000
356.740631	146.540000
356.834106	146.240000
356.927551	146.160000
357.021027	146.080000
357.114471	146.440000
357.207947	146.840000
357.301422	147.100000
357.394867	147.000000
357.488342	147.360000
357.581818	147.400000
357.675262	147.360000
357.768738	146.900000
357.862213	146.020000
357.955658	145.920000
358.049133	145.380000
358.142609	145.440000
358.236053	145.820000
358.329529	146.580000
358.423035	146.720000
358.516449	146.820000
358.609955	147.100000
358.703400	147.560000
358.796906	147.720000
358.890350	147.200000
358.983826	147.420000
359.077271	146.600000
359.170776	145.980000
359.264221	145.480000
359.357727	145.680000
359.451172	145.900000
359.544647	146.360000
359.638123	146.240000
359.731598	146.720000
359.825073	146.860000
359.918549	146.560000
360.012024	146.500000
360.105499	146.460000
360.198975	146.220000
360.292450	146.080000
360.385925	146.120000
360.479401	145.900000
360.572876	146.120000
360.666351	146.720000
360.759857	146.820000
360.853302	146.940000
360.946808	146.620000
361.040253	146.760000
361.133759	146.200000
361.227203	146.260000
361.320709	145.960000
361.414154	146.820000
361.507660	147.100000
361.601105	147.540000
361.694641	147.920000
361.788086	147.580000
361.881592	147.880000
361.975067	147.400000
362.068542	147.540000
362.162018	147.440000
362.255524	147.480000
362.348999	146.760000
362.442474	147.120000
362.535950	146.420000
362.629456	146.120000
362.722931	146.320000
362.816406	146.800000
362.909882	146.980000
363.003387	146.940000
363.096863	147.460000
363.190338	147.240000
363.283875	146.880000
363.377319	146.640000
363.470825	147.260000
363.564301	146.560000
363.657806	146.840000
363.751282	146.420000
363.844788	146.920000
363.938232	146.360000
364.031769	147.260000
364.125214	147.500000
364.218750	148.420000
364.312225	147.320000
364.405731	147.260000
364.499207	146.300000
364.592712	145.860000
364.686188	145.560000
364.779694	146.200000
364.873169	146.500000
364.966675	146.520000
365.060150	146.640000
365.153656	146.860000
365.247131	146.680000
365.340637	146.920000
365.434143	147.600000
365.527618	147.500000
365.621155	146.580000
365.714600	146.500000
365.808136	146.240000
365.901611	145.020000
365.995117	145.040000
366.088593	145.140000
366.182129	144.840000
366.275604	145.040000
366.369110	145.400000
366.462585	145.540000
366.556122	146.240000
366.649567	146.520000
366.743103	146.340000
366.836609	146.220000
366.930115	146.400000
367.023590	146.400000
367.117096	146.400000
367.210602	146.440000
367.304108	147.340000
367.397614	147.740000
367.491119	147.540000
367.584595	147.480000
367.678101	147.520000
367.771606	147.120000
367.865112	146.280000
367.958649	145.800000
368.052124	145.860000
368.145660	145.660000
368.239136	146.140000
368.332672	146.600000
368.426147	146.800000
368.519684	146.420000
368.613159	146.620000
368.706696	145.900000
368.800171	145.560000
368.893707	145.400000
368.987183	145.760000
369.080719	145.920000
369.174225	146.160000
369.267731	146.540000
369.361237	146.760000
369.454742	146.620000
369.548248	146.780000
369.641754	146.160000
369.735260	145.900000
369.828766	145.280000
369.922272	145.940000
370.015808	145.720000
370.109314	145.820000
370.202820	145.440000
370.296356	146.480000
370.389832	145.960000
370.483368	145.580000
370.576874	145.700000
370.670410	146.160000
370.763885	145.400000
370.857422	145.480000
370.950928	145.500000
371.044464	146.220000
371.137939	146.400000
371.231476	146.720000
371.324982	147.140000
371.418518	147.340000
371.512024	147.020000
371.605560	146.840000
371.699066	147.020000
371.792572	146.600000
371.886108	146.640000
371.979614	146.600000
372.073120	146.600000
372.166656	146.620000
372.260162	146.980000
372.353668	146.740000
372.447205	146.640000
372.540710	146.820000
372.634277	146.500000
372.727753	146.280000
372.821320	146.540000
372.914795	146.440000
373.008362	146.240000
373.101837	146.560000
373.195404	146.680000
373.288879	146.320000
373.382446	147.160000
373.475922	147.000000
373.569489	147.580000
373.662964	147.820000
373.756531	147.860000
373.850037	147.480000
373.943573	147.480000
374.037109	146.220000
374.130615	146.000000
374.224152	146.520000
374.317657	146.160000
374.411194	147.040000
374.504730	147.340000
374.598236	147.140000
374.691772	146.720000
374.785309	146.800000
374.878815	145.800000
374.972351	146.120000
375.065887	145.700000
375.159454	146.240000
375.252930	145.940000
375.346497	146.500000
375.440002	146.960000
375.533569	147.120000
375.627045	146.420000
375.720612	146.780000
375.814117	146.960000
375.907684	146.560000
376.001160	146.420000
376.094727	146.280000
376.188232	146.820000
376.281799	146.680000
376.375336	146.500000
376.468872	147.480000
376.562408	147.900000
376.655914	147.300000
376.749451	147.240000
376.842987	147.400000
376.936523	146.760000
377.030060	146.560000
377.123596	146.820000
377.217133	146.020000
377.310669	146.080000
377.404205	146.300000
377.497772	146.700000
377.591278	146.240000
377.684845	147.180000
377.778351	147.540000
377.871918	147.360000
377.965424	146.420000
378.058990	146.440000
378.152496	146.420000
378.246063	146.220000
378.339569	146.300000
378.433136	146.760000
378.526642	146.980000
378.620209	146.620000
378.713745	146.140000
378.807312	146.660000
378.900848	146.660000
378.994385	146.840000
379.087921	146.300000
379.181458	146.680000
379.274994	145.740000
379.368530	145.660000
379.462097	145.520000
379.555634	146.220000
379.649170	145.780000
379.742706	146.020000
379.836273	146.240000
379.929810	146.200000
380.023376	145.800000
380.116882	146.040000
380.210449	146.000000
380.303986	145.740000
380.397552	145.300000
380.491058	145.880000
380.584656	145.640000
380.678162	146.020000
380.771729	146.260000
380.865265	147.320000
380.958832	147.060000
381.052368	147.440000
381.145935	147.440000
381.239471	147.780000
381.333008	147.320000
381.426575	147.340000
381.520111	147.560000
381.613647	147.700000
381.707214	147.220000
381.800751	146.660000
381.894318	146.800000
381.987854	146.000000
382.081421	145.860000
382.174988	146.300000
382.268524	146.180000
382.362091	146.140000
382.455627	147.280000
382.549194	146.900000
382.642731	146.080000
382.736298	146.120000
382.829834	145.760000
382.923401	145.780000
383.016937	146.320000
383.110504	146.560000
383.204041	146.940000
383.297607	147.500000
383.391174	146.500000
383.484741	146.780000
383.578278	146.540000
383.671844	146.280000
383.765411	145.660000
383.858948	146.200000
383.952515	146.060000
384.046051	146.760000
384.139618	147.300000
384.233185	147.420000
384.326721	147.320000
384.420288	147.440000
384.513855	147.180000
384.607422	147.120000
384.700989	147.460000
384.794525	147.360000
384.888123	147.260000
384.981659	147.500000
385.075226	147.140000
385.168762	146.660000
385.262360	146.600000
385.355896	145.440000
385.449463	145.100000
385.542999	145.040000
385.636597	145.880000
385.730164	145.900000
385.823730	146.280000
385.917267	145.960000
386.010834	146.160000
386.104401	145.640000
386.197968	145.700000
386.291534	146.000000
386.385101	146.480000
386.478668	146.800000
386.572235	146.920000
386.665802	146.580000
386.759338	146.120000
386.852905	145.840000
386.946472	145.480000
387.040070	145.400000
387.133606	145.520000
387.227203	145.760000
387.320740	145.960000
387.414337	145.640000
387.507874	145.520000
387.601471	145.500000
387.695007	145.500000
387.788605	145.220000
387.882141	145.760000
387.975739	145.740000
388.069275	145.500000
388.162872	145.640000
388.256439	145.740000
388.350037	145.400000
388.443604	145.360000
388.537170	145.500000
388.630737	146.180000
388.724304	146.340000
388.817871	146.040000
388.911438	146.000000
389.005005	146.300000
389.098602	146.220000
389.192169	145.900000
389.285736	146.620000
389.379333	146.560000
389.472870	146.320000
389.566467	146.020000
389.660034	146.240000
389.753632	145.600000
389.847168	146.260000
389.940765	146.440000
390.034332	146.440000
390.127930	145.880000
390.221466	146.000000
390.315063	145.360000
390.408630	144.780000
390.502228	143.940000
390.595795	144.520000
390.689362	144.680000
390.782959	144.980000
390.876526	145.600000
390.970093	145.920000
391.063690	146.380000
391.157257	146.500000
391.250824	146.800000
391.344421	146.580000
391.437988	147.140000
391.531555	147.100000
391.625153	147.060000
391.718750	147.020000
391.812317	146.760000
391.905914	146.280000
391.999481	146.200000
392.093079	146.120000
392.186615	146.200000
392.280243	146.580000
392.373779	146.460000
392.467407	146.740000
392.560944	146.760000
392.654572	146.340000
392.748108	146.240000
392.841736	146.340000
392.935303	145.660000
393.028900	145.360000
393.122467	145.420000
393.216064	145.120000
393.309631	144.820000
393.403229	144.660000
393.496796	144.860000
393.590393	144.120000
393.683990	144.580000
393.777557	145.460000
393.871155	145.940000
393.964722	146.340000
394.058350	146.920000
394.151917	146.820000
394.245514	146.240000
394.339081	146.520000
394.432678	146.600000
394.526245	146.720000
394.619873	146.380000
394.713409	146.720000
394.807037	146.180000
394.900604	146.120000
394.994202	146.200000
395.087769	146.720000
395.181396	146.200000
395.274994	147.120000
395.368561	146.400000
395.462158	146.500000
395.555756	146.060000
395.649353	146.660000
395.742920	145.940000
395.836517	146.720000
395.930115	145.880000
396.023712	146.420000
396.117279	146.440000
396.210876	146.000000
396.304474	145.660000
396.398071	146.220000
396.491669	145.980000
396.585266	145.780000
396.678833	145.900000
396.772461	146.540000
396.866028	146.540000
396.959656	146.760000
397.053223	147.460000
397.146851	147.880000
397.240417	148.160000
397.334015	149.520000
397.427582	150.400000
397.521210	151.480000
397.614807	154.020000
397.708405	156.540000
397.802002	160.180000
397.895599	165.400000
397.989197	171.680000
398.082794	179.180000
398.176392	189.400000
398.269989	200.400000
398.363586	214.060000
398.457184	229.540000
398.550781	247.160000
398.644379	264.440000
398.737976	283.980000
398.831573	303.780000
398.925201	323.300000
399.018768	343.180000
399.112396	365.620000
399.205963	388.720000
399.299591	413.400000
399.393158	440.320000
399.486786	467.640000
399.580353	493.180000
399.673981	515.880000
399.767578	535.580000
399.861206	550.620000
399.954773	558.600000
400.048401	558.260000
400.141998	550.320000
400.235596	535.680000
400.329193	515.020000
400.422791	491.640000
400.516418	467.800000
400.610016	445.560000
400.703613	422.760000
400.797211	399.100000
400.890808	376.380000
400.984436	354.680000
401.078033	331.480000
401.171631	309.420000
401.265259	289.060000
401.358826	270.380000
401.452484	252.240000
401.546051	236.780000
401.639679	221.620000
401.733246	209.120000
401.826904	197.020000
401.920471	186.380000
402.014099	177.720000
402.107697	171.080000
402.201324	165.520000
402.294891	161.120000
402.388550	158.100000
402.482147	155.260000
402.575745	152.680000
402.669373	150.320000
402.762970	149.100000
402.856567	148.420000
402.950195	148.040000
403.043793	147.960000
403.137390	148.800000
403.231018	148.020000
403.324615	148.160000
403.418243	147.540000
403.511841	148.080000
403.605469	147.560000
403.699066	148.260000
403.792694	147.980000
403.886292	148.240000
403.979919	147.720000
404.073517	147.100000
404.167145	147.220000
404.260712	147.240000
404.354370	147.040000
404.447937	147.120000
404.541595	147.520000
404.635162	147.220000
404.728821	147.420000
404.822418	147.320000
404.916046	147.120000
405.009644	147.280000
405.103271	147.460000
405.196899	147.000000
405.290497	147.060000
405.384125	147.160000
405.477722	146.340000
405.571350	145.840000
405.664948	145.700000
405.758575	145.660000
405.852203	145.500000
405.945801	145.960000
406.039429	146.120000
406.133057	145.980000
406.226654	145.800000
406.320312	145.680000
406.413879	145.980000
406.507538	146.240000
406.601135	146.040000
406.694763	146.760000
406.788361	146.680000
406.882019	146.280000
406.975586	146.540000
407.069244	147.500000
407.162872	147.040000
407.256470	147.100000
407.350098	147.280000
407.443726	146.640000
407.537323	145.820000
407.630951	145.960000
407.724579	145.780000
407.818207	146.140000
407.911804	146.360000
408.005432	146.560000
408.099060	146.660000
408.192688	147.000000
408.286285	146.940000
408.379913	146.320000
408.473572	146.480000
408.567169	145.980000
408.660828	145.940000
408.754395	145.440000
408.848053	145.780000
408.941650	145.920000
409.035309	145.880000
409.128906	145.880000
409.222565	146.020000
409.316132	146.380000
409.409790	146.180000
409.503387	146.620000
409.597046	146.500000
409.690674	146.600000
409.784302	146.540000
409.877930	146.440000
409.971558	146.380000
410.065186	146.600000
410.158783	146.260000
410.252411	145.960000
410.346039	146.400000
410.439667	146.240000
410.533295	146.280000
410.626923	146.620000
410.720551	146.640000
410.814209	146.740000
410.907806	146.820000
411.001465	146.400000
411.095062	146.640000
411.188721	146.920000
411.282318	146.500000
411.375977	146.240000
411.469574	146.520000
411.563232	145.940000
411.656830	145.440000
411.750488	145.120000
411.844086	144.720000
411.937744	144.880000
412.031372	145.040000
412.125000	145.240000
412.218628	145.400000
412.312256	146.560000
412.405884	147.160000
412.499512	147.360000
412.593170	147.500000
412.686798	147.800000
412.780426	146.940000
412.874054	146.380000
412.967682	146.180000
413.061310	146.820000
413.154968	146.880000
413.248566	147.200000
413.342224	147.240000
413.435852	147.540000
413.529510	146.860000
413.623108	146.100000
413.716766	145.780000
413.810364	146.040000
413.904022	145.780000
413.997650	145.540000
414.091309	146.540000
414.184906	146.740000
414.278564	145.940000
414.372192	146.260000
414.465851	146.500000
414.559479	146.300000
414.653107	147.000000
414.746735	147.200000
414.840393	146.700000
414.934021	147.180000
415.027649	146.560000
415.121277	146.000000
415.214935	146.200000
415.308563	146.700000
415.402191	145.860000
415.495850	145.840000
415.589478	145.780000
415.683136	145.920000
415.776733	145.980000
415.870422	146.640000
415.964020	146.300000
416.057678	146.400000
416.151306	146.220000
416.244965	146.080000
416.338562	145.780000
416.432251	146.700000
416.525848	147.380000
416.619507	147.600000
416.713165	147.780000
416.806793	147.860000
416.900421	147.700000
416.994080	146.640000
417.087708	146.360000
417.181366	145.940000
417.274994	145.920000
417.368622	145.980000
417.462280	146.920000
417.555908	146.980000
417.649567	147.020000
417.743195	147.040000
417.836853	147.020000
417.930481	146.860000
418.024170	146.920000
418.117767	147.200000
418.211426	147.480000
418.305054	147.600000
418.398712	147.040000
418.492340	147.000000
418.585999	147.140000
418.679626	147.100000
418.773285	147.060000
418.866913	147.260000
418.960571	147.420000
419.054230	147.260000
419.147858	147.200000
419.241516	147.220000
419.335144	147.080000
419.428802	146.820000
419.522461	146.620000
419.616089	146.320000
419.709747	146.380000
419.803375	146.780000
419.897034	146.560000
419.990662	146.400000
420.084320	146.840000
420.177979	146.840000
420.271606	146.740000
420.365295	147.440000
420.458893	147.520000
420.552582	147.560000
420.646210	147.440000
420.739868	147.160000
420.833496	146.560000
420.927155	146.260000
421.020782	145.800000
421.114471	145.620000
421.208069	145.720000
421.301758	146.300000
421.395386	146.540000
421.489044	146.580000
421.582703	146.620000
421.676361	147.120000
421.769989	146.640000
421.863647	147.080000
421.957306	147.260000
422.050934	147.440000
422.144592	146.900000
422.238251	146.700000
422.331909	146.160000
422.425537	145.860000
422.519196	145.920000
422.612854	145.560000
422.706543	145.320000
422.800140	145.760000
422.893829	145.580000
422.987457	145.160000
423.081146	145.660000
423.174744	146.460000
423.268433	145.880000
423.362061	145.880000
423.455750	145.680000
423.549347	145.520000
423.643036	144.640000
423.736664	145.340000
423.830353	145.380000
423.924011	145.900000
424.017639	145.540000
424.111298	145.720000
424.204956	145.600000
424.298615	145.800000
424.392273	145.420000
424.485931	145.700000
424.579559	145.780000
424.673218	145.440000
424.766876	145.360000
424.860535	145.260000
424.954193	145.260000
425.047882	146.000000
425.141510	145.960000
425.235199	146.260000
425.328796	146.140000
425.422485	145.860000
425.516113	145.060000
425.609802	145.320000
425.703430	145.140000
425.797119	145.140000
425.890747	145.420000
425.984436	145.660000
426.078064	145.700000
426.171753	145.900000
426.265411	146.000000
426.359070	146.180000
426.452728	146.180000
426.546356	145.960000
426.640015	145.320000
426.733673	145.600000
426.827332	145.300000
426.920990	146.040000
427.014648	145.900000
427.108307	146.660000
427.201965	146.960000
427.295624	147.120000
427.389282	146.140000
427.482941	146.580000
427.576630	146.200000
427.670258	145.460000
427.763947	145.220000
427.857574	145.580000
427.951263	145.380000
428.044922	145.140000
428.138611	145.460000
428.232239	146.080000
428.325928	146.520000
428.419556	147.060000
428.513245	147.100000
428.606903	147.200000
428.700562	146.460000
428.794220	145.520000
428.887878	144.740000
428.981537	145.180000
429.075195	145.240000
429.168854	145.860000
429.262512	146.300000
429.356201	146.360000
429.449860	146.220000
429.543518	146.240000
429.637177	146.340000
429.730835	146.200000
429.824493	146.360000
429.918182	146.680000
430.011810	146.220000
430.105530	145.440000
430.199158	145.900000
430.292847	145.740000
430.386475	145.540000
430.480164	145.420000
430.573792	145.380000
430.667511	145.020000
430.761139	145.160000
430.854828	145.420000
430.948456	145.980000
431.042145	146.940000
431.135834	146.600000
431.229492	146.960000
431.323151	146.860000
431.416809	146.640000
431.510468	146.320000
431.604156	146.520000
431.697815	146.340000
431.791473	145.820000
431.885132	145.440000
431.978821	145.760000
432.072479	146.280000
432.166138	146.700000
432.259827	146.680000
432.353485	147.220000
432.447174	146.980000
432.540802	146.820000
432.634491	146.500000
432.728149	146.960000
432.821838	147.300000
432.915466	147.040000
433.009186	146.780000
433.102814	146.140000
433.196503	146.060000
433.290131	145.940000
433.383850	146.300000
433.477509	146.420000
433.571167	147.320000
433.664856	147.580000
433.758514	147.680000
433.852173	147.420000
433.945862	147.500000
434.039520	147.260000
434.133179	146.480000
434.226868	146.120000
434.320526	145.700000
434.414185	146.040000
434.507874	145.840000
434.601562	146.260000
434.695221	146.320000
434.788910	146.460000
434.882538	146.600000
434.976257	146.160000
435.069885	146.260000
435.163574	146.440000
435.257233	146.160000
435.350922	145.540000
435.444580	145.680000
435.538269	145.360000
435.631897	145.320000
435.725616	146.200000
435.819275	146.940000
435.912964	147.460000
436.006622	147.860000
436.100311	147.720000
436.193970	147.080000
436.287628	146.440000
436.381317	146.040000
436.474976	145.680000
436.568665	145.420000
436.662323	145.240000
436.756012	145.300000
436.849670	145.200000
436.943390	145.060000
437.037018	144.960000
437.130737	145.660000
437.224365	145.360000
437.318085	145.600000
437.411713	145.800000
437.505432	146.500000
437.599060	146.580000
437.692780	147.360000
437.786407	147.220000
437.880127	147.140000
437.973755	146.820000
438.067474	146.140000
438.161133	145.640000
438.254822	146.040000
438.348480	145.900000
438.442169	146.540000
438.535828	146.960000
438.629517	146.840000
438.723175	146.480000
438.816864	147.040000
438.910553	146.180000
439.004211	145.840000
439.097900	145.560000
439.191559	145.320000
439.285248	144.940000
439.378906	145.140000
439.472626	145.100000
439.566284	145.180000
439.659973	145.680000
439.753632	145.340000
439.847321	145.920000
439.940979	146.020000
440.034698	146.420000
440.128326	146.060000
440.222046	146.240000
440.315674	145.200000
440.409393	145.320000
440.503082	144.900000
440.596741	145.140000
440.690430	145.620000
440.784088	145.680000
440.877777	145.200000
440.971466	145.260000
441.065125	145.040000
441.158813	144.580000
441.252502	144.800000
441.346161	145.200000
441.439850	145.520000
441.533539	145.680000
441.627197	146.040000
441.720886	145.880000
441.814606	146.300000
441.908234	146.360000
442.001953	145.940000
442.095612	145.900000
442.189301	146.420000
442.282959	146.380000
442.376678	145.780000
442.470306	146.860000
442.564026	146.500000
442.657684	146.300000
442.751404	146.260000
442.845032	147.460000
442.938751	146.520000
443.032440	146.820000
443.126099	146.640000
443.219788	146.740000
443.313477	146.100000
443.407166	146.560000
443.500824	146.480000
443.594513	146.880000
443.688202	146.700000
443.781891	145.800000
443.875549	145.500000
443.969238	145.460000
444.062927	145.440000
444.156647	145.200000
444.250275	146.480000
444.343994	146.560000
444.437653	146.780000
444.531372	146.700000
444.625031	146.660000
444.718719	145.900000
444.812378	145.900000
444.906097	145.720000
444.999756	145.260000
445.093445	145.180000
445.187103	145.440000
445.280823	145.720000
445.374512	145.440000
445.468201	145.980000
445.561859	146.080000
445.655548	146.180000
445.749237	145.880000
445.842926	146.180000
445.936615	146.480000
446.030304	146.400000
446.123962	146.760000
446.217651	146.600000
446.311340	146.780000
446.405029	146.120000
446.498749	146.100000
446.592407	145.460000
446.686096	145.760000
446.779755	145.580000
446.873474	145.660000
446.967133	145.820000
447.060852	145.540000
447.154510	145.420000
447.248230	145.540000
447.341858	145.580000
447.435577	145.380000
447.529236	145.440000
447.622955	145.280000
447.716644	145.100000
447.810333	144.980000
447.904022	145.400000
447.997711	145.620000
448.091400	145.880000
448.185059	146.220000
448.278748	146.400000
448.372437	146.340000
448.466125	146.760000
448.559814	146.740000
448.653503	146.880000
448.747192	147.340000
448.840912	147.600000
448.934570	147.400000
449.028290	147.580000
449.121948	146.740000
449.215637	146.020000
449.309296	145.340000
449.403015	145.500000
449.496674	145.440000
449.590393	145.880000
449.684052	145.920000
449.777771	146.860000
449.871429	146.200000
449.965149	146.020000
450.058838	146.260000
450.152527	147.180000
450.246216	146.640000
450.339905	147.000000
450.433594	146.680000
450.527283	147.140000
450.620972	146.500000
450.714661	146.580000
450.808350	146.700000
450.902039	147.140000
450.995728	146.620000
451.089417	146.020000
451.183105	145.820000
451.276794	145.960000
451.370514	145.380000
451.464172	144.700000
451.557892	144.980000
451.651550	145.280000
451.745270	144.900000
451.838928	144.880000
451.932648	145.460000
452.026306	146.180000
452.120026	145.740000
452.213684	146.300000
452.307404	146.420000
452.401062	146.600000
452.494781	146.420000
452.588470	146.320000
452.682159	145.380000
452.775848	145.480000
452.869537	144.880000
452.963226	144.500000
453.056915	144.620000
453.150604	145.240000
453.244293	145.780000
453.337982	146.580000
453.431671	147.000000
453.525360	147.520000
453.619049	147.640000
453.712769	147.260000
453.806427	146.700000
453.900146	146.400000
453.993805	146.100000
454.087555	146.200000
454.181213	146.640000
454.274933	146.440000
454.368591	146.180000
454.462311	146.200000
454.555969	145.720000
454.649689	146.040000
454.743347	146.220000
454.837067	147.020000
454.930756	147.460000
455.024445	147.640000
455.118134	146.920000
455.211853	147.060000
455.305542	146.480000
455.399231	146.380000
455.492920	146.500000
455.586609	146.680000
455.680298	147.000000
455.773987	146.880000
455.867676	146.700000
455.961365	146.920000
456.055084	146.780000
456.148773	146.520000
456.242493	146.580000
456.336151	146.440000
456.429871	146.480000
456.523529	146.840000
456.617249	146.620000
456.710907	147.260000
456.804626	147.280000
456.898315	146.700000
456.992035	146.480000
457.085693	146.260000
457.179413	145.500000
457.273102	146.400000
457.366791	146.780000
457.460480	146.920000
457.554199	147.820000
457.647888	147.940000
457.741577	147.320000
457.835266	147.280000
457.928955	147.380000
458.022644	147.300000
458.116364	147.400000
458.210052	147.040000
458.303741	147.140000
458.397461	146.600000
458.491119	146.020000
458.584839	146.320000
458.678528	146.020000
458.772247	145.700000
458.865906	146.340000
458.959625	147.040000
459.053284	146.740000
459.147003	146.820000
459.240692	147.440000
459.334412	147.140000
459.428070	146.580000
459.521790	146.400000
459.615479	146.500000
459.709198	146.780000
459.802887	146.540000
459.896576	146.480000
459.990265	146.940000
460.083954	147.000000
460.177673	146.060000
460.271362	145.900000
460.365051	145.780000
460.458740	145.400000
460.552429	145.000000
460.646149	145.360000
460.739838	145.340000
460.833527	145.480000
460.927246	145.260000
461.020905	145.320000
461.114655	144.940000
461.208313	145.200000
461.302032	144.820000
461.395691	145.200000
461.489441	145.620000
461.583099	145.820000
461.676819	145.680000
461.770477	146.160000
461.864197	145.940000
461.957916	145.720000
462.051605	145.220000
462.145294	146.020000
462.238983	145.900000
462.332703	146.180000
462.426392	146.720000
462.520081	147.260000
462.613770	146.540000
462.707489	146.860000
462.801178	146.500000
462.894867	146.300000
462.988556	146.360000
463.082275	146.640000
463.175964	145.760000
463.269684	146.200000
463.363342	146.100000
463.457092	145.560000
463.550751	145.760000
463.644470	146.320000
463.738129	146.180000
463.831879	146.100000
463.925537	147.040000
464.019257	146.920000
464.112946	146.960000
464.206665	146.720000
464.300323	146.660000
464.394043	146.140000
464.487762	145.980000
464.581451	146.200000
464.675140	146.360000
464.768829	146.680000
464.862549	146.820000
464.956238	146.880000
465.049927	146.740000
465.143646	147.040000
465.237335	146.440000
465.331024	146.720000
465.424713	146.520000
465.518433	146.560000
465.612152	146.100000
465.705811	146.540000
465.799561	146.080000
465.893219	146.140000
465.986938	145.980000
466.080597	146.020000
466.174347	146.360000
466.268005	146.760000
466.361725	146.780000
466.455414	146.880000
466.549133	146.640000
466.642792	146.420000
466.736542	145.900000
466.830231	145.800000
466.923920	145.540000
467.017609	145.600000
467.111328	145.100000
467.205017	145.260000
467.298706	145.240000
467.392426	145.320000
467.486115	145.760000
467.579803	145.660000
467.673523	145.940000
467.767212	146.040000
467.860901	145.980000
467.954651	145.780000
468.048309	146.280000
468.142029	145.800000
468.235718	145.740000
468.329437	145.540000
468.423096	145.660000
468.516846	145.380000
468.610504	145.300000
468.704224	145.220000
468.797913	145.400000
468.891632	145.520000
468.985291	145.580000
469.079010	145.820000
469.172729	145.620000
469.266418	145.980000
469.360107	145.680000
469.453827	145.640000
469.547516	145.660000
469.641205	146.100000
469.734924	146.180000
469.828613	146.720000
469.922302	146.840000
470.016022	146.640000
470.109711	146.100000
470.203430	145.500000
470.297150	144.600000
470.390808	145.060000
470.484558	144.860000
470.578217	145.580000
470.671936	146.040000
470.765625	146.780000
470.859344	146.260000
470.953003	146.940000
471.046753	146.360000
471.140411	146.060000
471.234131	146.060000
471.327820	146.620000
471.421539	146.460000
471.515228	146.180000
471.608948	146.460000
471.702637	145.880000
471.796326	145.400000
471.890045	145.640000
471.983734	146.080000
472.077423	145.740000
472.171143	146.100000
472.264832	146.200000
472.358521	145.780000
472.452240	145.500000
472.545929	146.260000
472.639648	146.400000
472.733337	146.560000
472.827057	146.760000
472.920746	147.220000
473.014465	147.000000
473.108124	146.800000
473.201874	146.700000
473.295532	146.420000
473.389252	146.420000
473.482941	146.560000
473.576660	146.380000
473.670319	146.280000
473.764069	146.640000
473.857727	146.760000
473.951477	146.780000
474.045166	147.300000
474.138855	147.160000
474.232574	147.160000
474.326263	147.040000
474.419952	147.000000
474.513672	146.980000
474.607361	147.180000
474.701050	146.960000
474.794769	147.300000
474.888458	147.480000
474.982178	147.480000
475.075867	147.480000
475.169586	147.640000
475.263275	147.340000
475.356995	147.060000
475.450653	146.740000
475.544403	146.360000
475.638062	146.900000
475.731812	146.520000
475.825470	146.380000
475.919189	146.720000
476.012878	146.940000
476.106598	146.240000
476.200256	146.580000
476.294006	146.380000
476.387695	146.280000
476.481384	146.220000
476.575104	146.380000
476.668793	145.880000
476.762512	145.780000
476.856201	146.020000
476.949890	145.820000
477.043610	145.220000
477.137299	145.620000
477.230988	145.880000
477.324707	145.560000
477.418396	146.040000
477.512146	146.440000
477.605804	146.340000
477.699524	146.460000
477.793213	146.020000
477.886932	145.680000
477.980591	145.620000
478.074341	145.520000
478.167999	145.040000
478.261749	145.460000
478.355408	145.440000
478.449127	145.840000
478.542816	146.800000
478.636536	147.640000
478.730225	147.520000
478.823944	148.140000
478.917633	147.880000
479.011322	147.560000
479.105042	147.240000
479.198730	147.400000
479.292450	146.620000
479.386139	146.780000
479.479828	146.660000
479.573547	146.880000
479.667267	146.680000
479.760925	147.000000
479.854675	147.140000
479.948334	147.220000
480.042084	146.600000
480.135742	147.180000
480.229462	146.780000
480.323151	146.220000
480.416870	145.540000
480.510529	145.880000
480.604279	145.080000
480.697937	145.580000
480.791656	145.560000
480.885345	145.640000
480.979065	145.460000
481.072754	146.220000
481.166473	146.720000
481.260132	146.960000
481.353882	147.180000
481.447540	147.160000
481.541260	146.880000
481.635010	146.000000
481.728668	145.920000
481.822388	145.640000
481.916077	145.860000
482.009796	145.700000
482.103485	146.340000
482.197205	146.360000
482.290863	146.820000
482.384613	146.320000
482.478271	146.040000
482.571991	145.700000
482.665680	145.540000
482.759399	146.020000
482.853058	146.440000
482.946808	146.800000
483.040466	146.720000
483.134216	146.920000
483.227875	146.280000
483.321594	146.600000
483.415283	146.720000
483.509003	146.400000
483.602661	146.060000
483.696411	146.320000
483.790070	146.220000
483.883789	145.620000
483.977478	146.180000
484.071198	146.580000
484.164917	146.220000
484.258606	145.500000
484.352325	146.100000
484.445984	146.260000
484.539734	146.220000
484.633392	145.720000
484.727142	146.460000
484.820801	146.180000
484.914520	145.780000
485.008209	145.960000
485.101929	146.720000
485.195587	146.380000
485.289337	146.540000
485.382996	146.600000
485.476715	146.280000
485.570404	146.460000
485.664124	146.400000
485.757782	146.940000
485.851532	146.840000
485.945190	146.960000
486.038910	146.860000
486.132599	147.160000
486.226318	146.220000
486.319977	146.060000
486.413727	146.520000
486.507446	146.180000
486.601105	145.500000
486.694855	145.520000
486.788513	145.520000
486.882233	145.280000
486.975922	145.200000
487.069641	145.440000
487.163300	145.540000
487.257050	146.880000
487.350708	146.460000
487.444427	146.320000
487.538116	146.440000
487.631836	146.440000
487.725494	145.340000
487.819214	145.440000
487.912903	145.580000
488.006622	145.820000
488.100281	146.080000
488.194031	146.440000
488.287689	146.860000
488.381409	147.320000
488.475098	147.100000
488.568817	146.940000
488.662476	146.700000
488.756226	145.780000
488.849945	145.100000
488.943604	145.220000
489.037354	145.540000
489.131012	145.400000
489.224731	145.760000
489.318390	145.860000
489.412140	145.920000
489.505798	145.880000
489.599518	145.540000
489.693207	145.840000
489.786926	145.800000
489.880585	145.760000
489.974335	145.580000
490.067993	146.740000
490.161713	147.040000
490.255371	147.960000
490.349121	148.060000
490.442780	147.980000
490.536499	147.000000
490.630188	146.900000
490.723907	146.180000
490.817566	146.200000
490.911285	146.180000
491.004974	146.380000
491.098694	145.860000
491.192413	146.680000
491.286102	146.140000
491.379822	146.540000
491.473480	146.940000
491.567200	147.160000
491.660889	146.120000
491.754608	146.320000
491.848267	145.880000
491.941986	145.240000
492.035675	145.280000
492.129395	145.960000
492.223053	145.860000
492.316772	146.060000
492.410461	146.420000
492.504181	146.660000
492.597839	146.080000
492.691559	146.140000
492.785248	146.220000
492.878967	146.240000
492.972626	145.600000
493.066345	145.940000
493.160034	145.900000
493.253754	145.900000
493.347412	145.380000
493.441132	145.800000
493.534882	145.840000
493.628540	146.080000
493.722260	146.420000
493.815918	146.720000
493.909668	147.280000
494.003326	147.700000
494.097046	147.400000
494.190704	146.620000
494.284454	146.820000
494.378113	146.460000
494.471832	145.720000
494.565491	145.460000
494.659210	146.000000
494.752899	145.920000
494.846619	146.100000
494.940277	146.480000
495.033997	147.020000
495.127686	146.340000
495.221405	146.160000
495.315063	145.820000
495.408783	145.760000
495.502441	145.680000
495.596191	146.040000
495.689850	146.040000
495.783569	146.300000
495.877228	146.280000
495.970947	146.280000
496.064697	146.240000
496.158356	147.180000
496.252075	147.020000
496.345734	146.920000
496.439453	147.500000
496.533142	147.740000
496.626862	147.500000
496.720520	147.780000
496.814240	148.020000
496.907898	147.420000
497.001617	147.460000
497.095306	146.520000
497.189026	146.080000
497.282684	146.000000
497.376404	146.380000
497.470062	146.260000
497.563782	146.840000
497.657471	146.960000
497.751190	146.720000
497.844849	146.760000
497.938568	146.980000
498.032227	146.980000
498.125946	146.940000
498.219635	146.920000
498.313354	146.820000
498.407074	146.300000
498.500732	146.280000
498.594452	146.460000
498.688110	146.220000
498.781830	145.860000
498.875519	146.220000
498.969238	145.900000
499.062897	145.500000
499.156616	146.120000
499.250275	146.340000
499.343994	145.820000
499.437653	145.880000
499.531372	146.500000
499.625061	146.760000
499.718781	146.920000
499.812439	147.620000
499.906158	147.620000
499.999817	147.220000
500.093536	146.860000
500.187195	146.740000
500.280914	146.500000
500.374573	146.560000
500.468323	146.260000
500.561981	145.960000
500.655701	145.560000
500.749420	145.560000
500.843079	145.540000
500.936798	145.860000
501.030457	146.680000
501.124176	147.240000
501.217834	147.240000
501.311554	147.300000
501.405212	147.060000
501.498962	146.040000
501.592621	145.600000
501.686340	145.860000
501.779999	145.880000
501.873718	146.220000
501.967377	146.520000
502.061096	146.980000
502.154755	146.380000
502.248474	146.900000
502.342133	146.820000
502.435852	146.800000
502.529510	147.240000
502.623230	148.040000
502.716888	146.920000
502.810608	146.660000
502.904266	147.240000
502.997986	146.540000
503.091705	145.600000
503.185364	146.040000
503.279083	146.360000
503.372772	146.060000
503.466492	145.680000
503.560150	145.940000
503.653870	146.040000
503.747528	145.800000
503.841248	145.580000
503.934906	146.060000
504.028625	146.040000
504.122284	146.260000
504.216003	146.540000
504.309662	146.160000
504.403381	146.140000
504.497040	146.060000
504.590759	145.500000
504.684418	145.740000
504.778137	146.500000
504.871796	146.800000
504.965515	146.660000
505.059174	146.960000
505.152893	146.420000
505.246521	145.820000
505.340240	145.440000
505.433899	145.780000
505.527618	146.240000
505.621338	146.760000
505.714996	147.020000
505.808716	146.760000
505.902374	147.000000
505.996094	146.780000
506.089752	146.240000
506.183472	146.580000
506.277130	146.800000
506.370850	146.740000
506.464508	146.360000
506.558228	146.420000
506.651886	145.840000
506.745605	146.020000
506.839264	145.960000
506.932983	146.240000
507.026611	146.200000
507.120331	146.740000
507.213989	146.200000
507.307709	146.200000
507.401367	146.380000
507.495087	147.460000
507.588745	146.880000
507.682465	147.980000
507.776123	147.600000
507.869843	147.320000
507.963531	146.540000
508.057190	147.180000
508.150909	146.120000
508.244568	146.780000
508.338287	146.460000
508.431946	146.080000
508.525665	145.720000
508.619324	145.680000
508.713013	145.440000
508.806671	145.980000
508.900391	146.840000
508.994049	146.720000
509.087769	146.700000
509.181427	146.700000
509.275146	146.380000
509.368774	145.540000
509.462494	145.860000
509.556152	145.960000
509.649872	146.420000
509.743530	146.220000
509.837250	146.620000
509.930878	146.340000
510.024597	146.420000
510.118256	145.880000
510.211975	146.220000
510.305695	145.620000
510.399353	146.100000
510.493042	146.740000
510.586700	147.160000
510.680420	147.780000
510.774078	148.160000
510.867798	147.960000
510.961426	147.420000
511.055145	147.040000
511.148804	146.320000
511.242523	146.600000
511.336151	146.760000
511.429871	147.040000
511.523529	146.760000
511.617249	146.680000
511.710876	146.520000
511.804596	146.060000
511.898254	145.760000
511.991974	146.240000
512.085632	146.040000
512.179321	145.760000
512.272949	146.060000
512.366699	146.380000
512.460327	146.260000
512.554077	147.180000
512.647766	147.640000
512.741394	147.480000
512.835144	147.840000
512.928772	147.580000
513.022461	147.440000
513.116150	147.040000
513.209839	147.500000
513.303467	146.760000
513.397217	146.660000
513.490845	146.300000
513.584595	146.060000
513.678223	145.240000
513.771912	144.800000
513.865601	145.060000
513.959290	144.540000
514.052917	144.820000
514.146667	145.640000
514.240295	146.380000
514.333984	146.520000
514.427673	146.740000
514.521362	147.100000
514.614990	146.300000
514.708740	146.380000
514.802368	146.180000
514.896057	146.480000
514.989746	146.980000
515.083435	147.120000
515.177124	147.040000
515.270752	146.840000
515.364502	146.560000
515.458130	146.100000
515.551819	145.900000
515.645508	145.660000
515.739197	146.040000
515.832825	146.280000
515.926575	145.860000
516.020203	146.120000
516.113892	146.620000
516.207520	146.640000
516.301270	146.640000
516.394897	146.640000
516.488586	146.940000
516.582275	146.620000
516.675964	145.680000
516.769592	145.320000
516.863281	146.060000
516.956970	146.140000
517.050659	145.840000
517.144287	146.580000
517.238037	146.880000
517.331665	146.160000
517.425354	145.980000
517.519043	146.040000
517.612732	146.340000
517.706421	146.320000
517.800049	146.200000
517.893738	145.980000
517.987427	145.780000
518.081116	145.320000
518.174744	145.020000
518.268433	145.660000
518.362122	146.280000
518.455811	146.340000
518.549438	146.940000
518.643127	148.100000
518.736816	147.580000
518.830505	146.720000
518.924133	147.020000
519.017822	146.940000
519.111511	146.180000
519.205200	146.780000
519.298828	147.180000
519.392517	146.980000
519.486206	146.940000
519.579895	147.180000
519.673523	146.680000
519.767212	146.480000
519.860901	146.760000
519.954590	146.280000
520.048279	145.780000
520.141907	145.880000
520.235596	147.080000
520.329224	147.240000
520.422974	147.640000
520.516602	147.460000
520.610291	147.240000
520.703918	146.520000
520.797607	146.040000
520.891296	145.920000
520.984985	146.520000
521.078613	147.180000
521.172302	146.680000
521.265930	147.860000
521.359680	148.340000
521.453308	148.140000
521.546997	147.880000
521.640625	148.140000
521.734314	147.160000
521.827942	146.780000
521.921692	147.160000
522.015320	147.300000
522.109009	147.340000
522.202698	147.440000
522.296326	147.360000
522.390015	147.400000
522.483704	147.180000
522.577393	146.840000
522.671021	146.700000
522.764709	145.980000
522.858337	146.140000
522.952026	145.920000
523.045654	146.680000
523.139404	147.380000
523.233032	148.200000
523.326721	147.840000
523.420349	147.880000
523.514038	147.320000
523.607666	147.320000
523.701355	146.720000
523.795044	146.700000
523.888733	147.160000
523.982361	147.420000
524.076050	146.600000
524.169678	147.380000
524.263367	146.800000
524.356995	146.260000
524.450684	146.040000
524.544373	145.940000
524.638062	145.620000
524.731750	145.960000
524.825378	145.860000
524.919067	145.120000
525.012695	145.460000
525.106384	144.860000
525.200012	145.080000
525.293701	145.300000
525.387329	146.100000
525.481018	146.380000
525.574646	147.000000
525.668396	146.880000
525.762024	147.000000
525.855713	147.260000
525.949341	146.720000
526.043030	146.900000
526.136658	146.540000
526.230347	146.140000
526.323975	145.760000
526.417664	145.840000
526.511292	145.860000
526.604980	146.340000
526.698608	146.400000
526.792297	146.580000
526.885925	147.020000
526.979614	146.920000
527.073303	147.200000
527.166931	147.200000
527.260620	147.400000
527.354309	147.400000
527.447998	146.980000
527.541626	146.480000
527.635315	146.460000
527.728943	146.720000
527.822632	146.640000
527.916260	147.080000
528.009949	147.360000
528.103577	147.440000
528.197266	146.500000
528.290894	146.520000
528.384583	146.460000
528.478210	146.120000
528.571899	146.360000
528.665527	146.940000
528.759216	147.120000
528.852844	147.620000
528.946533	147.680000
529.040161	147.580000
529.133850	147.400000
529.227478	147.360000
529.321167	147.240000
529.414856	147.820000
529.508484	148.340000
529.602173	147.900000
529.695801	147.820000
529.789490	147.500000
529.883057	146.780000
529.976746	146.520000
530.070374	147.260000
530.164062	147.000000
530.257690	146.940000
530.351379	147.640000
530.445007	147.820000
530.538696	147.200000
530.632324	147.740000
530.726013	148.040000
530.819641	147.860000
530.913330	147.700000
531.006958	147.820000
531.100647	147.280000
531.194275	147.000000
531.287964	146.580000
531.381592	146.180000
531.475220	146.440000
531.568848	147.060000
531.662537	146.780000
531.756226	147.360000
531.849854	147.260000
531.943542	146.840000
532.037170	145.800000
532.130859	146.580000
532.224487	146.060000
532.318176	146.000000
532.411804	146.680000
532.505432	147.220000
532.599060	146.660000
532.692749	146.500000
532.786377	147.040000
532.880066	146.320000
532.973694	145.820000
533.067383	145.960000
533.161011	146.100000
533.254639	146.040000
533.348267	146.180000
533.441956	146.640000
533.535583	146.240000
533.629272	146.360000
533.722900	145.860000
533.816589	146.020000
533.910156	146.160000
534.003845	146.060000
534.097534	146.300000
534.191162	147.220000
534.284851	147.300000
534.378479	147.240000
534.472107	147.400000
534.565735	147.040000
534.659424	146.600000
534.753052	146.540000
534.846741	146.120000
534.940369	146.740000
535.033997	146.700000
535.127625	146.800000
535.221313	147.400000
535.314941	147.540000
535.408630	146.680000
535.502197	146.960000
535.595886	146.580000
535.689514	145.960000
535.783203	146.480000
535.876831	147.040000
535.970459	146.840000
536.064087	146.640000
536.157776	146.700000
536.251404	146.300000
536.345093	146.220000
536.438721	146.220000
536.532349	146.420000
536.626038	146.340000
536.719666	146.580000
536.813293	146.000000
536.906921	146.180000
537.000610	146.540000
537.094238	146.420000
537.187866	146.480000
537.281494	146.740000
537.375183	146.840000
537.468811	146.600000
537.562439	146.760000
537.656067	146.720000
537.749756	146.720000
537.843384	147.080000
537.937012	147.160000
538.030640	147.220000
538.124329	146.880000
538.217896	147.440000
538.311584	147.240000
538.405212	147.240000
538.498901	147.340000
538.592468	148.140000
538.686157	146.980000
538.779785	146.280000
538.873413	146.500000
538.967102	146.200000
539.060730	145.180000
539.154358	146.040000
539.247986	146.340000
539.341675	146.100000
539.435242	146.180000
539.528931	146.580000
539.622559	146.060000
539.716187	146.400000
539.809814	146.540000
539.903503	146.480000
539.997070	146.180000
540.090759	146.540000
540.184387	146.500000
540.278015	146.680000
540.371643	146.780000
540.465332	147.080000
540.558899	147.080000
540.652588	146.700000
540.746216	146.200000
540.839844	146.640000
540.933472	146.700000
541.027100	146.380000
541.120728	146.740000
541.214417	147.300000
541.308044	147.300000
541.401672	146.860000
541.495300	146.920000
541.588928	146.600000
541.682617	146.020000
541.776184	145.500000
541.869873	145.960000
541.963440	146.320000
542.057129	146.560000
542.150757	146.600000
542.244385	146.340000
542.338013	145.820000
542.431641	145.620000
542.525269	145.660000
542.618958	146.160000
542.712524	146.540000
542.806213	146.500000
542.899780	146.620000
542.993469	146.160000
543.087036	145.720000
543.180725	145.200000
543.274292	145.720000
543.367981	146.080000
543.461548	146.840000
543.555237	146.620000
543.648926	147.480000
543.742493	148.000000
543.836182	147.720000
543.929749	147.200000
544.023437	147.540000
544.117004	147.420000
544.210693	147.120000
544.304260	147.200000
544.397949	147.240000
544.491516	147.460000
544.585205	147.420000
544.678772	147.160000
544.772461	147.480000
544.866028	147.360000
544.959717	147.160000
545.053284	146.720000
545.146973	147.280000
545.240540	146.900000
545.334229	147.700000
545.427795	147.800000
545.521423	148.060000
545.615051	147.960000
545.708679	148.640000
545.802307	148.240000
545.895935	148.640000
545.989624	149.100000
546.083191	148.780000
546.176880	148.300000
546.270447	147.900000
546.364136	147.920000
546.457703	147.360000
546.551331	147.420000
546.644958	147.640000
546.738586	147.960000
546.832214	147.200000
546.925842	147.160000
547.019409	147.300000
547.113098	146.720000
547.206665	146.360000
547.300354	146.640000
547.393921	146.900000
547.487549	146.760000
547.581177	146.860000
547.674805	146.720000
547.768433	146.320000
547.862061	146.200000
547.955627	145.560000
548.049316	145.860000
548.142883	146.520000
548.236572	146.900000
548.330139	147.240000
548.423767	147.500000
548.517456	147.280000
548.611023	147.200000
548.704651	146.620000
548.798279	146.220000
548.891907	146.720000
548.985474	146.580000
549.079163	146.500000
549.172729	146.620000
549.266357	146.260000
549.359985	146.000000
549.453613	145.680000
549.547180	145.520000
549.640869	146.080000
549.734436	146.120000
549.828064	146.260000
549.921631	146.400000
550.015320	145.820000
550.108887	145.680000
550.202515	145.580000
550.296143	145.060000
550.389771	145.240000
550.483337	145.620000
550.576965	145.320000
550.670593	145.840000
550.764221	146.280000
550.857849	146.100000
550.951477	145.560000
551.045105	145.480000
551.138672	145.340000
551.232300	144.660000
551.325928	144.940000
551.419556	145.620000
551.513123	145.740000
551.606750	145.660000
551.700378	146.040000
551.794006	145.880000
551.887573	145.720000
551.981201	146.500000
552.074768	146.420000
552.168457	146.100000
552.262024	147.100000
552.355652	147.140000
552.449219	146.940000
552.542847	147.280000
552.636475	147.000000
552.730103	145.680000
552.823669	145.520000
552.917297	145.000000
553.010864	144.640000
553.104553	145.280000
553.198181	145.400000
553.291748	146.100000
553.385376	146.300000
553.478943	146.340000
553.572571	146.340000
553.666199	146.560000
553.759827	145.920000
553.853394	145.460000
553.947021	145.500000
554.040588	145.420000
554.134216	145.360000
554.227783	146.060000
554.321411	146.800000
554.415039	146.420000
554.508667	146.340000
554.602234	146.520000
554.695862	145.880000
554.789429	145.620000
554.883057	146.040000
554.976624	146.000000
555.070251	145.860000
555.163818	145.620000
555.257507	145.480000
555.351074	145.300000
555.444702	146.700000
555.538330	146.760000
555.631897	147.160000
555.725525	147.300000
555.819092	147.500000
555.912720	145.960000
556.006287	146.700000
556.099915	146.220000
556.193481	145.920000
556.287109	146.020000
556.380676	146.080000
556.474304	145.380000
556.567871	145.820000
556.661499	145.260000
556.755066	145.020000
556.848694	145.320000
556.942261	145.140000
557.035889	145.440000
557.129517	146.340000
557.223145	146.920000
557.316711	146.880000
557.410339	147.220000
557.503906	146.640000
557.597473	146.580000
557.691040	146.020000
557.784668	146.220000
557.878296	146.140000
557.971863	146.580000
558.065491	146.720000
558.159058	146.820000
558.252686	147.540000
558.346252	148.240000
558.439880	147.620000
558.533447	147.280000
558.627075	146.900000
558.720642	146.060000
558.814270	145.500000
558.907837	145.900000
559.001465	145.800000
559.095032	146.500000
559.188660	146.640000
559.282227	145.980000
559.375854	146.540000
559.469360	146.260000
559.562988	146.620000
559.656555	146.600000
559.750183	147.220000
559.843750	146.940000
559.937378	147.300000
560.030945	146.720000
560.124573	0.000000
560.218140	0.000000
560.311707	0.000000
560.405334	0.000000
560.498901	0.000000
560.592529	0.000000
560.686096	0.000000
560.779724	0.000000
560.873291	0.000000
560.966858	0.000000
561.060425	0.000000
561.154053	0.000000
561.247620	0.000000
561.341248	0.000000
561.434814	0.000000
561.528381	0.000000
561.621948	0.000000
561.715576	0.000000
561.809143	0.000000
561.902771	0.000000
561.996277	0.000000
562.089905	0.000000
562.183472	0.000000
562.277100	0.000000
