Model Number: SPM-002-B   
Serial Number: 70087108
Firmware Version: 004.15.4
Exposure Time: 100000.000000us
Data Taken on: 11-12-2020 19:31:29.835
Wavelength	Amplitude
221.570786	0.000000
221.663406	0.000000
221.756027	0.000000
221.848648	0.000000
221.941269	0.000000
222.033905	0.000000
222.126526	0.000000
222.219162	0.000000
222.311798	0.000000
222.404419	0.000000
222.497055	0.000000
222.589676	0.000000
222.682312	0.000000
222.774933	0.000000
222.867569	0.000000
222.960205	0.000000
223.052841	0.000000
223.145462	0.000000
223.238098	0.000000
223.330734	0.000000
223.423386	0.000000
223.516022	0.000000
223.608658	0.000000
223.701309	0.000000
223.793945	0.000000
223.886581	0.000000
223.979218	0.000000
224.071869	0.000000
224.164505	0.000000
224.257156	0.000000
224.349792	0.000000
224.442444	0.000000
224.535095	0.000000
224.627747	0.000000
224.720398	0.000000
224.813034	0.000000
224.905685	0.000000
224.998337	146.040000
225.090988	145.480000
225.183640	145.480000
225.276291	145.280000
225.368942	145.540000
225.461594	146.440000
225.554245	146.900000
225.646912	146.800000
225.739578	147.460000
225.832230	147.500000
225.924896	146.000000
226.017548	146.000000
226.110199	146.760000
226.202866	146.020000
226.295532	146.000000
226.388184	146.540000
226.480850	146.000000
226.573517	145.480000
226.666168	145.880000
226.758835	146.160000
226.851501	146.620000
226.944183	146.940000
227.036850	146.520000
227.129517	146.360000
227.222183	146.220000
227.314850	146.120000
227.407516	146.180000
227.500198	146.920000
227.592865	146.520000
227.685532	146.100000
227.778214	145.840000
227.870880	146.280000
227.963562	146.600000
228.056229	147.380000
228.148926	147.560000
228.241592	148.500000
228.334274	148.100000
228.426956	147.820000
228.519638	147.460000
228.612305	147.060000
228.704987	146.520000
228.797668	146.660000
228.890350	146.000000
228.983032	145.480000
229.075714	146.360000
229.168396	146.080000
229.261108	145.620000
229.353790	145.580000
229.446472	145.960000
229.539169	145.340000
229.631851	145.220000
229.724533	145.620000
229.817230	146.040000
229.909912	146.960000
230.002609	147.160000
230.095306	147.140000
230.187988	146.880000
230.280685	146.580000
230.373383	145.340000
230.466095	145.240000
230.558792	145.580000
230.651474	145.560000
230.744171	145.680000
230.836868	145.720000
230.929581	145.820000
231.022278	145.300000
231.114975	145.360000
231.207672	145.080000
231.300369	145.800000
231.393082	146.100000
231.485779	146.540000
231.578506	146.680000
231.671204	147.060000
231.763916	146.720000
231.856613	146.420000
231.949326	146.460000
232.042023	146.160000
232.134735	145.860000
232.227448	145.820000
232.320160	146.160000
232.412872	146.220000
232.505585	146.940000
232.598297	147.400000
232.691010	147.480000
232.783722	146.880000
232.876450	147.040000
232.969162	146.640000
233.061874	146.200000
233.154587	145.860000
233.247314	146.500000
233.340027	145.920000
233.432739	146.400000
233.525467	146.440000
233.618179	146.780000
233.710907	146.300000
233.803635	147.060000
233.896347	146.640000
233.989090	147.160000
234.081818	146.880000
234.174545	146.880000
234.267258	145.940000
234.359985	146.020000
234.452713	145.820000
234.545441	145.960000
234.638168	146.080000
234.730896	147.000000
234.823639	146.880000
234.916367	146.960000
235.009094	146.940000
235.101822	146.800000
235.194580	146.440000
235.287308	146.140000
235.380051	145.560000
235.472778	145.680000
235.565521	146.120000
235.658249	145.640000
235.750992	146.180000
235.843719	146.380000
235.936462	146.600000
236.029205	146.500000
236.121948	146.660000
236.214691	146.700000
236.307449	147.740000
236.400192	147.360000
236.492935	147.260000
236.585678	147.460000
236.678421	147.300000
236.771164	146.540000
236.863907	147.040000
236.956665	147.060000
237.049408	148.540000
237.142151	148.500000
237.234909	149.020000
237.327652	148.660000
237.420410	148.240000
237.513153	147.020000
237.605927	146.780000
237.698669	146.260000
237.791428	146.200000
237.884186	146.720000
237.976944	146.400000
238.069702	146.820000
238.162445	146.460000
238.255203	146.420000
238.347961	146.320000
238.440720	146.060000
238.533478	145.760000
238.626266	145.240000
238.719025	145.560000
238.811783	145.400000
238.904541	145.640000
238.997314	145.720000
239.090073	145.900000
239.182831	145.880000
239.275604	146.640000
239.368362	146.500000
239.461136	146.460000
239.553909	146.580000
239.646667	146.380000
239.739441	146.020000
239.832214	146.200000
239.925003	146.460000
240.017761	147.000000
240.110535	147.680000
240.203308	146.940000
240.296082	147.100000
240.388855	146.660000
240.481628	146.780000
240.574417	146.400000
240.667191	147.180000
240.759964	146.820000
240.852737	147.000000
240.945526	146.800000
241.038315	146.820000
241.131088	146.600000
241.223877	146.820000
241.316650	146.660000
241.409439	146.940000
241.502228	146.300000
241.595001	146.620000
241.687790	146.720000
241.780579	146.820000
241.873367	146.780000
241.966141	147.380000
242.058929	146.600000
242.151718	146.620000
242.244507	146.760000
242.337311	145.920000
242.430099	146.240000
242.522903	146.620000
242.615692	146.340000
242.708481	146.600000
242.801270	147.100000
242.894073	146.680000
242.986862	146.980000
243.079651	147.560000
243.172455	147.040000
243.265244	147.500000
243.358063	146.860000
243.450867	146.940000
243.543655	146.700000
243.636459	146.920000
243.729263	146.900000
243.822067	147.600000
243.914856	147.740000
244.007660	147.840000
244.100464	147.620000
244.193268	147.100000
244.286072	146.680000
244.378876	146.020000
244.471680	145.620000
244.564499	146.220000
244.657318	146.980000
244.750122	147.380000
244.842926	146.940000
244.935745	147.540000
245.028549	147.020000
245.121368	146.420000
245.214172	146.420000
245.306992	147.320000
245.399796	146.780000
245.492615	146.880000
245.585434	146.820000
245.678253	146.620000
245.771072	146.400000
245.863892	146.900000
245.956711	147.000000
246.049530	146.900000
246.142349	146.760000
246.235168	146.640000
246.327988	146.800000
246.420807	146.540000
246.513626	146.660000
246.606445	146.680000
246.699280	146.700000
246.792099	146.360000
246.884918	146.180000
246.977753	145.900000
247.070587	145.820000
247.163422	145.860000
247.256241	145.900000
247.349075	146.140000
247.441895	146.280000
247.534729	146.480000
247.627563	146.140000
247.720383	146.260000
247.813217	146.040000
247.906052	146.080000
247.998886	146.000000
248.091736	146.080000
248.184570	145.860000
248.277405	146.100000
248.370239	147.100000
248.463074	147.860000
248.555908	148.200000
248.648743	148.020000
248.741592	147.820000
248.834427	146.880000
248.927261	145.900000
249.020111	145.980000
249.112946	146.760000
249.205795	146.400000
249.298630	146.480000
249.391495	146.360000
249.484344	146.200000
249.577179	145.820000
249.670029	146.720000
249.762878	147.040000
249.855728	147.320000
249.948563	147.420000
250.041412	146.860000
250.134262	146.840000
250.227112	146.940000
250.319962	147.100000
250.412827	146.960000
250.505692	147.100000
250.598541	146.880000
250.691391	146.300000
250.784241	146.480000
250.877106	146.600000
250.969955	146.300000
251.062805	146.880000
251.155670	147.500000
251.248520	147.100000
251.341385	147.100000
251.434235	147.320000
251.527100	146.720000
251.619965	146.380000
251.712814	147.240000
251.805695	147.100000
251.898560	147.340000
251.991425	147.540000
252.084290	147.460000
252.177155	146.360000
252.270020	146.300000
252.362885	146.140000
252.455750	146.020000
252.548615	145.860000
252.641479	145.900000
252.734360	146.160000
252.827240	145.880000
252.920105	145.880000
253.012970	145.800000
253.105850	146.020000
253.198715	145.500000
253.291595	145.920000
253.384460	145.720000
253.477341	145.940000
253.570221	146.140000
253.663086	146.020000
253.755966	146.480000
253.848846	146.580000
253.941727	146.780000
254.034592	146.760000
254.127472	146.660000
254.220367	146.620000
254.313248	146.800000
254.406128	146.540000
254.499008	146.760000
254.591904	147.600000
254.684784	147.720000
254.777664	147.700000
254.870544	147.360000
254.963440	147.140000
255.056335	146.800000
255.149216	146.140000
255.242111	146.720000
255.334991	147.360000
255.427887	147.500000
255.520767	147.560000
255.613663	147.600000
255.706558	146.540000
255.799438	145.920000
255.892334	145.520000
255.985229	145.420000
256.078125	145.640000
256.171021	145.840000
256.263916	146.300000
256.356812	146.620000
256.449707	146.740000
256.542603	146.280000
256.635498	147.100000
256.728394	147.080000
256.821289	146.860000
256.914215	147.060000
257.007080	147.880000
257.100006	147.360000
257.192932	147.760000
257.285828	147.900000
257.378723	147.380000
257.471619	146.840000
257.564545	146.520000
257.657440	146.040000
257.750336	146.560000
257.843262	146.380000
257.936157	147.080000
258.029053	147.520000
258.121979	147.740000
258.214874	147.000000
258.307800	146.960000
258.400696	146.080000
258.493622	145.840000
258.586517	145.140000
258.679443	145.360000
258.772339	145.280000
258.865265	145.080000
258.958160	144.720000
259.051086	145.280000
259.144012	145.340000
259.236938	146.280000
259.329834	146.600000
259.422791	146.480000
259.515717	146.260000
259.608612	145.980000
259.701538	145.940000
259.794464	145.600000
259.887390	145.900000
259.980316	145.820000
260.073212	145.720000
260.166138	144.680000
260.259064	145.360000
260.351990	145.920000
260.444916	145.880000
260.537842	146.420000
260.630768	147.580000
260.723694	147.520000
260.816620	147.100000
260.909546	147.200000
261.002472	146.480000
261.095398	145.640000
261.188354	145.280000
261.281281	145.020000
261.374207	145.040000
261.467133	146.160000
261.560089	146.560000
261.653015	146.680000
261.745972	147.360000
261.838867	147.800000
261.931824	147.600000
262.024780	147.060000
262.117706	147.100000
262.210663	146.900000
262.303589	146.740000
262.396515	146.860000
262.489471	148.120000
262.582397	147.900000
262.675354	147.400000
262.768280	147.260000
262.861237	146.900000
262.954163	146.360000
263.047119	146.620000
263.140045	146.740000
263.233002	146.660000
263.325958	146.500000
263.418884	145.760000
263.511841	145.540000
263.604797	145.600000
263.697723	145.480000
263.790680	145.140000
263.883636	145.920000
263.976593	145.900000
264.069550	145.760000
264.162476	145.680000
264.255463	146.240000
264.348419	145.880000
264.441376	146.160000
264.534332	145.940000
264.627289	146.260000
264.720245	146.360000
264.813202	146.060000
264.906158	146.260000
264.999115	146.880000
265.092072	146.700000
265.185028	146.960000
265.277985	147.200000
265.370941	146.940000
265.463898	146.560000
265.556854	146.360000
265.649811	145.380000
265.742798	145.300000
265.835754	145.320000
265.928711	145.760000
266.021667	145.880000
266.114655	146.540000
266.207611	147.160000
266.300568	146.620000
266.393585	146.060000
266.486511	146.500000
266.579498	145.340000
266.672485	144.880000
266.765442	145.200000
266.858429	145.680000
266.951385	144.980000
267.044342	145.700000
267.137329	145.720000
267.230316	145.920000
267.323273	145.500000
267.416260	146.360000
267.509216	146.620000
267.602203	146.500000
267.695160	146.760000
267.788147	146.920000
267.881134	146.260000
267.974091	146.480000
268.067078	146.420000
268.160065	146.260000
268.253052	146.160000
268.346008	146.440000
268.438995	146.000000
268.531982	145.980000
268.624969	145.640000
268.717987	146.120000
268.810944	145.780000
268.903961	145.760000
268.996948	145.780000
269.089905	146.200000
269.182892	146.240000
269.275879	146.520000
269.368866	146.220000
269.461853	146.580000
269.554871	146.300000
269.647858	146.140000
269.740845	146.560000
269.833832	147.160000
269.926819	146.700000
270.019806	146.440000
270.112793	145.440000
270.205811	145.300000
270.298798	145.080000
270.391785	145.580000
270.484772	145.500000
270.577789	146.220000
270.670776	145.760000
270.763763	145.680000
270.856750	145.860000
270.949768	145.900000
271.042786	146.040000
271.135773	146.220000
271.228790	146.680000
271.321808	145.860000
271.414795	145.920000
271.507782	145.520000
271.600800	144.980000
271.693817	144.980000
271.786804	145.600000
271.879822	145.620000
271.972809	145.960000
272.065826	146.700000
272.158844	145.980000
272.251831	146.260000
272.344849	146.320000
272.437866	145.880000
272.530853	146.040000
272.623871	146.480000
272.716888	145.520000
272.809906	145.940000
272.902893	146.080000
272.995911	145.380000
273.088928	145.440000
273.181946	145.860000
273.274963	145.420000
273.367981	145.520000
273.460999	145.840000
273.554047	146.040000
273.647003	146.720000
273.740051	146.840000
273.833069	147.120000
273.926086	147.480000
274.019135	147.140000
274.112152	146.800000
274.205170	146.780000
274.298187	146.920000
274.391205	146.320000
274.484222	146.400000
274.577240	146.280000
274.670258	146.420000
274.763306	146.380000
274.856323	146.800000
274.949341	146.880000
275.042358	147.320000
275.135406	147.000000
275.228424	146.620000
275.321442	146.580000
275.414490	146.180000
275.507507	146.040000
275.600525	146.640000
275.693573	146.640000
275.786591	146.260000
275.879669	146.660000
275.972656	146.280000
276.065735	145.920000
276.158752	146.580000
276.251801	147.520000
276.344818	147.500000
276.437866	147.580000
276.530884	147.320000
276.623932	146.280000
276.716980	146.200000
276.809998	146.540000
276.903046	146.700000
276.996094	147.720000
277.089111	148.700000
277.182159	148.980000
277.275208	148.340000
277.368256	148.020000
277.461304	147.740000
277.554321	146.820000
277.647369	146.320000
277.740417	146.360000
277.833466	146.400000
277.926514	145.960000
278.019562	146.700000
278.112610	146.460000
278.205688	146.840000
278.298706	146.800000
278.391785	146.500000
278.484833	145.940000
278.577881	145.640000
278.670929	145.800000
278.763977	145.900000
278.857025	146.440000
278.950073	146.640000
279.043121	146.600000
279.136169	146.120000
279.229248	145.820000
279.322296	145.480000
279.415344	145.240000
279.508392	145.180000
279.601440	145.280000
279.694519	145.460000
279.787567	145.480000
279.880615	145.480000
279.973694	145.500000
280.066742	145.580000
280.159790	145.560000
280.252869	145.020000
280.345917	145.280000
280.438995	145.320000
280.532074	145.320000
280.625122	145.660000
280.718201	146.920000
280.811279	147.100000
280.904327	147.280000
280.997406	147.400000
281.090454	147.480000
281.183533	146.960000
281.276581	146.880000
281.369659	146.360000
281.462738	146.580000
281.555786	146.400000
281.648865	146.140000
281.741943	146.280000
281.835022	147.340000
281.928070	146.780000
282.021149	146.640000
282.114227	146.720000
282.207306	146.440000
282.300385	146.420000
282.393433	146.620000
282.486511	146.780000
282.579590	147.100000
282.672668	147.400000
282.765747	146.660000
282.858856	146.380000
282.951904	146.440000
283.045013	146.460000
283.138062	146.360000
283.231171	146.860000
283.324249	147.140000
283.417328	147.120000
283.510406	146.840000
283.603485	146.720000
283.696564	146.760000
283.789642	147.160000
283.882751	146.840000
283.975830	147.500000
284.068909	147.200000
284.161987	147.660000
284.255066	146.940000
284.348175	147.360000
284.441254	146.940000
284.534332	147.920000
284.627441	147.380000
284.720520	147.240000
284.813599	146.920000
284.906708	146.940000
284.999786	145.900000
285.092896	145.260000
285.185974	146.400000
285.279053	146.080000
285.372192	146.120000
285.465240	146.760000
285.558380	147.320000
285.651459	146.580000
285.744568	147.600000
285.837677	147.060000
285.930756	147.040000
286.023865	147.040000
286.116943	146.940000
286.210052	146.760000
286.303162	147.100000
286.396240	146.920000
286.489349	146.760000
286.582458	147.000000
286.675568	146.720000
286.768646	146.740000
286.861755	147.220000
286.954865	147.700000
287.047974	147.220000
287.141083	147.140000
287.234161	146.760000
287.327271	146.380000
287.420380	146.500000
287.513519	146.600000
287.606598	146.540000
287.699738	147.100000
287.792816	146.960000
287.885956	146.660000
287.979034	146.900000
288.072174	146.980000
288.165283	146.620000
288.258392	147.000000
288.351501	146.360000
288.444611	146.780000
288.537720	147.040000
288.630859	147.060000
288.723969	147.120000
288.817078	147.660000
288.910187	147.060000
289.003296	146.520000
289.096436	146.260000
289.189545	145.860000
289.282654	145.660000
289.375763	146.060000
289.468903	146.620000
289.562012	147.160000
289.655121	147.140000
289.748260	147.280000
289.841400	147.600000
289.934509	147.300000
290.027649	147.360000
290.120728	147.120000
290.213898	146.900000
290.306976	146.360000
290.400146	146.520000
290.493256	145.880000
290.586395	146.280000
290.679535	146.840000
290.772644	146.960000
290.865784	145.980000
290.958893	146.200000
291.052032	145.820000
291.145172	145.040000
291.238281	144.540000
291.331421	145.080000
291.424561	145.440000
291.517670	145.540000
291.610809	146.240000
291.703949	146.300000
291.797089	146.580000
291.890228	146.260000
291.983337	146.400000
292.076477	145.760000
292.169617	146.160000
292.262756	146.080000
292.355927	146.000000
292.449036	145.920000
292.542206	146.360000
292.635315	146.400000
292.728485	146.640000
292.821625	146.600000
292.914764	147.580000
293.007904	147.600000
293.101044	147.320000
293.194183	147.240000
293.287323	147.340000
293.380463	146.460000
293.473602	145.960000
293.566742	146.320000
293.659882	146.900000
293.753021	147.240000
293.846191	147.060000
293.939331	147.020000
294.032471	146.580000
294.125610	145.820000
294.218781	146.040000
294.311920	146.460000
294.405060	146.600000
294.498230	146.720000
294.591370	146.660000
294.684540	145.720000
294.777679	145.560000
294.870850	146.020000
294.963959	145.980000
295.057159	145.980000
295.150299	146.820000
295.243469	146.720000
295.336609	146.180000
295.429779	146.480000
295.522919	147.020000
295.616089	146.920000
295.709229	147.360000
295.802399	147.640000
295.895569	147.220000
295.988708	146.860000
296.081879	146.600000
296.175018	145.820000
296.268188	145.780000
296.361359	146.060000
296.454529	145.860000
296.547668	145.540000
296.640839	146.020000
296.734009	145.860000
296.827179	145.880000
296.920319	146.300000
297.013519	146.400000
297.106659	146.420000
297.199860	146.540000
297.292999	146.400000
297.386200	146.360000
297.479309	146.280000
297.572510	146.320000
297.665680	145.960000
297.758850	146.100000
297.852020	145.900000
297.945190	145.820000
298.038361	145.260000
298.131531	146.280000
298.224701	146.240000
298.317871	145.940000
298.411072	145.500000
298.504242	145.420000
298.597412	145.160000
298.690582	145.200000
298.783752	145.380000
298.876923	146.180000
298.970093	146.380000
299.063293	146.500000
299.156464	146.900000
299.249634	147.020000
299.342834	147.240000
299.436005	147.920000
299.529205	147.800000
299.622345	147.640000
299.715576	147.000000
299.808716	146.660000
299.901917	146.460000
299.995117	146.580000
300.088287	146.640000
300.181488	147.020000
300.274658	147.060000
300.367828	146.740000
300.461029	146.520000
300.554199	146.580000
300.647400	146.640000
300.740601	147.000000
300.833771	146.940000
300.926971	147.140000
301.020142	146.620000
301.113342	146.600000
301.206512	146.380000
301.299713	146.580000
301.392914	146.280000
301.486084	146.720000
301.579285	146.540000
301.672516	147.000000
301.765686	146.860000
301.858887	147.020000
301.952057	146.720000
302.045288	146.940000
302.138458	146.560000
302.231659	146.360000
302.324860	146.020000
302.418060	145.800000
302.511261	145.840000
302.604462	146.100000
302.697662	146.160000
302.790863	146.260000
302.884064	146.320000
302.977264	146.320000
303.070465	146.660000
303.163666	147.000000
303.256866	147.420000
303.350067	147.700000
303.443268	147.480000
303.536469	147.140000
303.629669	146.760000
303.722870	146.840000
303.816071	146.660000
303.909271	146.880000
304.002472	146.000000
304.095673	146.020000
304.188934	145.200000
304.282104	146.220000
304.375336	146.040000
304.468506	146.400000
304.561768	146.180000
304.654968	146.840000
304.748169	145.960000
304.841370	146.020000
304.934601	146.440000
305.027802	146.600000
305.121002	146.300000
305.214233	146.480000
305.307434	146.400000
305.400665	146.820000
305.493866	146.680000
305.587097	146.960000
305.680298	146.640000
305.773499	147.380000
305.866730	146.900000
305.959930	147.520000
306.053162	147.540000
306.146393	147.500000
306.239594	146.480000
306.332825	146.420000
306.426025	146.540000
306.519287	145.940000
306.612488	145.940000
306.705719	146.360000
306.798920	146.280000
306.892181	145.760000
306.985352	145.880000
307.078613	145.480000
307.171844	145.540000
307.265045	145.240000
307.358276	144.820000
307.451508	145.440000
307.544739	146.100000
307.637970	145.800000
307.731201	145.940000
307.824402	146.880000
307.917633	146.660000
308.010864	147.020000
308.104095	147.440000
308.197327	147.420000
308.290558	147.240000
308.383789	146.760000
308.477020	146.120000
308.570251	145.440000
308.663483	145.440000
308.756714	145.200000
308.849976	145.400000
308.943176	146.060000
309.036438	146.040000
309.129639	145.640000
309.222900	145.540000
309.316101	145.420000
309.409393	144.860000
309.502625	145.000000
309.595856	145.120000
309.689087	145.440000
309.782318	145.400000
309.875580	145.260000
309.968811	145.180000
310.062042	145.300000
310.155273	145.080000
310.248535	145.600000
310.341766	145.700000
310.434998	146.100000
310.528259	145.820000
310.621490	146.140000
310.714722	145.280000
310.807983	145.380000
310.901215	145.100000
310.994476	145.420000
311.087708	145.020000
311.181000	145.600000
311.274200	145.200000
311.367462	145.620000
311.460693	145.520000
311.553986	146.080000
311.647186	146.380000
311.740479	147.200000
311.833710	146.700000
311.926971	146.800000
312.020203	146.100000
312.113464	145.820000
312.206726	145.280000
312.299957	145.560000
312.393219	146.040000
312.486481	146.120000
312.579712	145.920000
312.672974	145.860000
312.766235	145.980000
312.859497	145.960000
312.952759	146.140000
313.045990	146.940000
313.139252	146.780000
313.232513	146.880000
313.325775	146.780000
313.419037	146.280000
313.512299	145.200000
313.605530	145.980000
313.698822	145.780000
313.792053	145.440000
313.885345	145.420000
313.978577	145.700000
314.071869	144.940000
314.165131	145.460000
314.258392	145.640000
314.351654	145.900000
314.444916	145.460000
314.538177	145.800000
314.631439	145.580000
314.724701	145.520000
314.817993	145.620000
314.911255	146.060000
315.004517	145.580000
315.097778	145.140000
315.191040	145.640000
315.284302	145.780000
315.377594	145.660000
315.470856	145.720000
315.564117	145.680000
315.657379	144.740000
315.750671	144.020000
315.843933	144.500000
315.937195	144.420000
316.030518	144.440000
316.123749	144.980000
316.217041	146.020000
316.310303	145.880000
316.403595	146.360000
316.496857	146.600000
316.590149	146.440000
316.683411	145.940000
316.776703	145.560000
316.869965	145.580000
316.963257	145.320000
317.056519	144.860000
317.149811	144.920000
317.243073	145.120000
317.336365	145.100000
317.429626	145.580000
317.522919	146.120000
317.616180	146.000000
317.709473	145.620000
317.802765	145.300000
317.896027	145.360000
317.989319	145.480000
318.082611	145.600000
318.175873	146.100000
318.269165	146.160000
318.362488	145.780000
318.455750	145.600000
318.549042	146.180000
318.642303	146.380000
318.735626	146.060000
318.828888	146.220000
318.922211	146.020000
319.015472	146.040000
319.108765	145.300000
319.202057	145.360000
319.295349	145.560000
319.388641	145.880000
319.481934	145.320000
319.575226	145.360000
319.668518	145.780000
319.761810	145.680000
319.855103	145.440000
319.948395	145.520000
320.041687	145.800000
320.134979	145.420000
320.228271	145.260000
320.321564	145.580000
320.414856	145.780000
320.508148	145.500000
320.601440	145.720000
320.694763	145.300000
320.788025	145.760000
320.881348	145.580000
320.974640	145.860000
321.067963	145.480000
321.161224	146.100000
321.254547	145.100000
321.347839	145.780000
321.441162	145.500000
321.534454	145.840000
321.627747	145.360000
321.721069	146.460000
321.814362	146.240000
321.907654	146.320000
322.000946	146.420000
322.094269	147.300000
322.187561	146.540000
322.280884	146.640000
322.374176	146.800000
322.467468	147.040000
322.560791	146.560000
322.654083	147.200000
322.747406	146.960000
322.840698	147.460000
322.934021	147.820000
323.027344	148.080000
323.120636	147.740000
323.213959	147.800000
323.307251	146.820000
323.400574	146.300000
323.493866	145.840000
323.587219	145.980000
323.680511	146.360000
323.773834	147.200000
323.867157	147.400000
323.960449	147.580000
324.053772	147.320000
324.147095	146.980000
324.240387	147.160000
324.333710	146.860000
324.427032	146.700000
324.520355	146.720000
324.613647	146.420000
324.706970	145.600000
324.800293	145.760000
324.893616	146.240000
324.986938	146.500000
325.080231	146.360000
325.173553	147.100000
325.266876	147.600000
325.360199	147.300000
325.453522	146.620000
325.546875	146.700000
325.640167	146.640000
325.733521	146.560000
325.826813	146.760000
325.920166	146.760000
326.013489	146.820000
326.106812	146.280000
326.200134	145.580000
326.293457	145.080000
326.386780	145.200000
326.480103	145.020000
326.573425	144.880000
326.666748	145.200000
326.760071	145.700000
326.853424	145.760000
326.946747	145.560000
327.040070	146.520000
327.133392	146.280000
327.226715	145.680000
327.320068	145.440000
327.413391	146.200000
327.506714	145.280000
327.600037	145.280000
327.693390	145.780000
327.786713	145.980000
327.880066	145.740000
327.973358	146.320000
328.066742	146.640000
328.160034	146.380000
328.253418	146.780000
328.346710	146.740000
328.440063	146.360000
328.533417	146.160000
328.626740	146.500000
328.720093	146.020000
328.813416	145.700000
328.906769	145.780000
329.000092	145.940000
329.093445	145.580000
329.186768	145.240000
329.280121	145.800000
329.373444	146.040000
329.466797	145.940000
329.560120	146.300000
329.653473	146.800000
329.746796	146.400000
329.840149	145.880000
329.933502	145.780000
330.026825	145.280000
330.120178	145.360000
330.213562	145.080000
330.306854	145.440000
330.400238	145.800000
330.493561	145.740000
330.586945	146.100000
330.680237	146.720000
330.773621	146.480000
330.866974	146.220000
330.960327	146.660000
331.053680	146.140000
331.147003	145.720000
331.240356	146.140000
331.333710	146.160000
331.427063	145.700000
331.520416	145.900000
331.613770	145.820000
331.707123	145.740000
331.800476	145.740000
331.893829	146.760000
331.987152	146.800000
332.080505	146.980000
332.173859	146.700000
332.267212	146.160000
332.360565	145.240000
332.453918	144.860000
332.547333	144.980000
332.640656	145.360000
332.734039	145.880000
332.827362	145.880000
332.920746	146.680000
333.014069	146.680000
333.107452	146.860000
333.200806	147.180000
333.294159	147.540000
333.387543	146.520000
333.480896	146.080000
333.574249	145.780000
333.667603	145.180000
333.760956	145.420000
333.854340	145.820000
333.947693	146.160000
334.041046	146.240000
334.134430	146.540000
334.227783	145.900000
334.321136	145.800000
334.414520	145.480000
334.507874	145.720000
334.601227	145.940000
334.694611	146.020000
334.787964	146.000000
334.881348	146.300000
334.974701	146.040000
335.068085	145.620000
335.161438	146.140000
335.254822	146.180000
335.348175	146.120000
335.441559	145.520000
335.534943	146.380000
335.628296	146.000000
335.721680	146.080000
335.815033	146.140000
335.908417	146.840000
336.001770	146.580000
336.095154	146.420000
336.188538	146.140000
336.281891	145.720000
336.375275	145.100000
336.468658	144.500000
336.562012	144.680000
336.655396	144.860000
336.748779	145.540000
336.842133	145.780000
336.935516	146.260000
337.028900	146.040000
337.122284	146.220000
337.215637	146.240000
337.309021	146.280000
337.402435	145.580000
337.495789	145.720000
337.589203	145.520000
337.682526	145.120000
337.775940	145.120000
337.869324	145.580000
337.962708	145.120000
338.056091	145.840000
338.149475	145.340000
338.242859	145.480000
338.336243	145.220000
338.429626	145.880000
338.523010	145.380000
338.616394	145.640000
338.709778	145.800000
338.803162	146.100000
338.896545	145.800000
338.989929	145.480000
339.083313	145.800000
339.176697	145.540000
339.270081	145.460000
339.363464	145.960000
339.456848	146.380000
339.550232	145.880000
339.643616	145.900000
339.737030	145.920000
339.830383	145.640000
339.923828	145.580000
340.017181	145.740000
340.110596	145.720000
340.203949	145.700000
340.297363	145.140000
340.390778	145.060000
340.484161	145.220000
340.577545	145.020000
340.670959	144.820000
340.764343	145.280000
340.857727	145.080000
340.951111	144.600000
341.044525	145.220000
341.137909	144.840000
341.231293	144.740000
341.324707	144.440000
341.418091	145.340000
341.511505	144.880000
341.604889	145.540000
341.698303	145.720000
341.791687	146.000000
341.885071	145.500000
341.978485	145.320000
342.071899	145.280000
342.165283	145.480000
342.258698	145.740000
342.352081	146.280000
342.445496	146.960000
342.538879	146.800000
342.632324	146.380000
342.725708	146.200000
342.819122	145.580000
342.912506	145.080000
343.005920	145.080000
343.099335	145.900000
343.192719	146.100000
343.286133	146.380000
343.379547	146.560000
343.472931	146.580000
343.566345	145.700000
343.659760	145.840000
343.753143	145.420000
343.846558	145.060000
343.939972	145.200000
344.033386	145.760000
344.126770	145.360000
344.220184	145.600000
344.313599	146.080000
344.407043	145.940000
344.500427	145.260000
344.593872	145.600000
344.687225	145.300000
344.780670	144.820000
344.874054	144.920000
344.967499	145.700000
345.060913	145.680000
345.154327	145.860000
345.247742	146.040000
345.341156	145.700000
345.434570	145.260000
345.527985	145.320000
345.621399	145.440000
345.714813	145.260000
345.808228	145.680000
345.901642	145.480000
345.995056	145.200000
346.088470	145.340000
346.181885	145.480000
346.275299	145.180000
346.368713	145.320000
346.462128	145.120000
346.555573	144.980000
346.648987	145.060000
346.742401	144.980000
346.835815	145.420000
346.929260	145.220000
347.022644	145.480000
347.116119	145.660000
347.209503	146.240000
347.302948	146.860000
347.396362	147.720000
347.489807	147.720000
347.583221	148.240000
347.676636	147.440000
347.770050	146.180000
347.863495	145.540000
347.956909	145.420000
348.050323	144.680000
348.143768	145.040000
348.237183	144.580000
348.330597	144.940000
348.424042	145.300000
348.517456	145.640000
348.610901	146.080000
348.704315	146.620000
348.797760	145.840000
348.891174	145.120000
348.984619	144.460000
349.078033	144.460000
349.171448	145.080000
349.264923	145.360000
349.358337	145.480000
349.451782	145.980000
349.545197	145.140000
349.638641	144.300000
349.732086	144.340000
349.825500	144.900000
349.918945	144.400000
350.012390	145.140000
350.105804	145.820000
350.199249	145.780000
350.292664	145.920000
350.386108	146.140000
350.479553	146.120000
350.572968	145.920000
350.666412	146.340000
350.759857	145.720000
350.853302	146.280000
350.946716	146.020000
351.040161	145.680000
351.133606	145.820000
351.227081	145.980000
351.320465	146.280000
351.413940	146.500000
351.507355	147.060000
351.600830	146.840000
351.694244	146.660000
351.787720	146.440000
351.881104	146.300000
351.974579	146.100000
352.067993	146.820000
352.161469	147.140000
352.254883	146.180000
352.348358	146.060000
352.441803	146.000000
352.535248	145.500000
352.628693	145.360000
352.722137	145.840000
352.815582	145.980000
352.909027	146.100000
353.002472	145.720000
353.095917	145.880000
353.189362	146.120000
353.282806	146.140000
353.376251	146.040000
353.469696	145.920000
353.563141	146.300000
353.656586	145.840000
353.750061	145.460000
353.843475	145.160000
353.936981	145.680000
354.030396	144.880000
354.123871	145.080000
354.217285	146.140000
354.310760	146.520000
354.404175	146.200000
354.497681	146.200000
354.591095	146.300000
354.684570	145.240000
354.777985	144.920000
354.871490	144.820000
354.964935	145.180000
355.058380	145.260000
355.151855	145.060000
355.245300	145.560000
355.338745	146.060000
355.432220	146.040000
355.525665	145.400000
355.619110	146.340000
355.712585	145.940000
355.806030	145.580000
355.899475	145.200000
355.992950	145.740000
356.086426	145.520000
356.179871	145.880000
356.273346	145.820000
356.366791	146.080000
356.460266	146.560000
356.553711	146.020000
356.647186	145.740000
356.740631	145.680000
356.834106	145.580000
356.927551	145.460000
357.021027	145.920000
357.114471	146.140000
357.207947	146.160000
357.301422	146.340000
357.394867	146.000000
357.488342	145.660000
357.581818	145.680000
357.675262	146.160000
357.768738	145.880000
357.862213	145.460000
357.955658	145.740000
358.049133	145.580000
358.142609	145.360000
358.236053	145.400000
358.329529	145.760000
358.423035	146.140000
358.516449	145.600000
358.609955	146.060000
358.703400	146.640000
358.796906	146.500000
358.890350	145.760000
358.983826	146.300000
359.077271	145.540000
359.170776	144.920000
359.264221	145.100000
359.357727	145.480000
359.451172	145.940000
359.544647	146.080000
359.638123	146.340000
359.731598	146.420000
359.825073	146.720000
359.918549	146.380000
360.012024	146.360000
360.105499	146.040000
360.198975	145.960000
360.292450	145.720000
360.385925	145.680000
360.479401	145.700000
360.572876	145.880000
360.666351	146.220000
360.759857	146.260000
360.853302	146.140000
360.946808	145.700000
361.040253	145.980000
361.133759	145.480000
361.227203	145.440000
361.320709	145.280000
361.414154	146.080000
361.507660	146.300000
361.601105	146.680000
361.694641	147.040000
361.788086	147.440000
361.881592	147.640000
361.975067	147.020000
362.068542	147.420000
362.162018	147.060000
362.255524	146.300000
362.348999	145.980000
362.442474	146.420000
362.535950	145.520000
362.629456	145.380000
362.722931	145.700000
362.816406	145.840000
362.909882	145.900000
363.003387	145.820000
363.096863	146.100000
363.190338	145.980000
363.283875	145.760000
363.377319	145.640000
363.470825	146.400000
363.564301	145.780000
363.657806	146.040000
363.751282	146.000000
363.844788	146.500000
363.938232	145.820000
364.031769	146.960000
364.125214	147.340000
364.218750	147.880000
364.312225	147.040000
364.405731	147.540000
364.499207	146.540000
364.592712	146.140000
364.686188	145.920000
364.779694	146.140000
364.873169	146.020000
364.966675	146.260000
365.060150	146.280000
365.153656	146.440000
365.247131	146.540000
365.340637	146.880000
365.434143	147.480000
365.527618	147.560000
365.621155	146.580000
365.714600	146.500000
365.808136	146.240000
365.901611	145.220000
365.995117	144.820000
366.088593	145.320000
366.182129	145.040000
366.275604	145.120000
366.369110	145.500000
366.462585	145.580000
366.556122	146.300000
366.649567	146.620000
366.743103	146.720000
366.836609	146.620000
366.930115	147.060000
367.023590	146.700000
367.117096	146.360000
367.210602	145.980000
367.304108	146.480000
367.397614	146.860000
367.491119	146.780000
367.584595	147.020000
367.678101	147.460000
367.771606	147.060000
367.865112	146.480000
367.958649	145.980000
368.052124	145.800000
368.145660	145.360000
368.239136	146.020000
368.332672	146.260000
368.426147	146.440000
368.519684	146.580000
368.613159	146.740000
368.706696	146.020000
368.800171	145.740000
368.893707	145.760000
368.987183	145.840000
369.080719	146.000000
369.174225	146.120000
369.267731	146.540000
369.361237	146.680000
369.454742	146.780000
369.548248	146.880000
369.641754	146.660000
369.735260	146.120000
369.828766	145.240000
369.922272	145.560000
370.015808	145.200000
370.109314	145.040000
370.202820	145.240000
370.296356	146.720000
370.389832	146.220000
370.483368	146.120000
370.576874	146.340000
370.670410	146.400000
370.763885	145.160000
370.857422	145.280000
370.950928	145.360000
371.044464	146.180000
371.137939	145.960000
371.231476	146.500000
371.324982	147.080000
371.418518	146.980000
371.512024	146.400000
371.605560	146.580000
371.699066	146.520000
371.792572	145.880000
371.886108	146.520000
371.979614	146.200000
372.073120	146.440000
372.166656	146.540000
372.260162	146.680000
372.353668	146.400000
372.447205	146.340000
372.540710	146.160000
372.634277	145.940000
372.727753	146.100000
372.821320	146.240000
372.914795	146.340000
373.008362	146.200000
373.101837	146.520000
373.195404	146.180000
373.288879	145.820000
373.382446	146.420000
373.475922	146.600000
373.569489	147.220000
373.662964	147.900000
373.756531	148.020000
373.850037	148.040000
373.943573	148.140000
374.037109	146.660000
374.130615	146.620000
374.224152	146.580000
374.317657	146.360000
374.411194	146.780000
374.504730	147.240000
374.598236	146.720000
374.691772	146.520000
374.785309	146.560000
374.878815	145.600000
374.972351	146.080000
375.065887	145.760000
375.159454	146.380000
375.252930	146.040000
375.346497	146.460000
375.440002	146.780000
375.533569	146.940000
375.627045	146.320000
375.720612	146.020000
375.814117	146.280000
375.907684	145.580000
376.001160	145.420000
376.094727	145.280000
376.188232	146.340000
376.281799	146.320000
376.375336	146.200000
376.468872	146.880000
376.562408	147.080000
376.655914	146.800000
376.749451	146.560000
376.842987	147.000000
376.936523	146.980000
377.030060	147.020000
377.123596	147.060000
377.217133	146.780000
377.310669	146.740000
377.404205	146.700000
377.497772	147.160000
377.591278	146.700000
377.684845	147.580000
377.778351	147.820000
377.871918	147.420000
377.965424	146.660000
378.058990	146.500000
378.152496	146.020000
378.246063	146.220000
378.339569	146.520000
378.433136	146.560000
378.526642	146.820000
378.620209	146.440000
378.713745	145.420000
378.807312	145.660000
378.900848	145.840000
378.994385	145.840000
379.087921	145.580000
379.181458	146.080000
379.274994	145.360000
379.368530	145.580000
379.462097	145.820000
379.555634	146.240000
379.649170	145.720000
379.742706	145.740000
379.836273	145.660000
379.929810	145.360000
380.023376	145.120000
380.116882	145.340000
380.210449	145.160000
380.303986	144.820000
380.397552	144.540000
380.491058	144.800000
380.584656	144.880000
380.678162	145.600000
380.771729	145.660000
380.865265	146.520000
380.958832	146.840000
381.052368	147.140000
381.145935	147.320000
381.239471	147.820000
381.333008	147.300000
381.426575	147.160000
381.520111	147.260000
381.613647	146.940000
381.707214	146.460000
381.800751	146.060000
381.894318	145.920000
381.987854	145.220000
382.081421	144.860000
382.174988	145.200000
382.268524	145.320000
382.362091	145.200000
382.455627	146.200000
382.549194	146.300000
382.642731	145.560000
382.736298	145.420000
382.829834	145.480000
382.923401	145.740000
383.016937	146.120000
383.110504	146.800000
383.204041	147.020000
383.297607	147.320000
383.391174	146.140000
383.484741	146.580000
383.578278	145.940000
383.671844	145.740000
383.765411	144.860000
383.858948	145.540000
383.952515	144.940000
384.046051	145.780000
384.139618	146.320000
384.233185	147.020000
384.326721	146.720000
384.420288	147.420000
384.513855	147.100000
384.607422	147.160000
384.700989	147.220000
384.794525	147.220000
384.888123	146.660000
384.981659	146.720000
385.075226	146.220000
385.168762	146.040000
385.262360	145.800000
385.355896	145.000000
385.449463	145.040000
385.542999	145.140000
385.636597	145.760000
385.730164	146.340000
385.823730	146.720000
385.917267	146.300000
386.010834	146.660000
386.104401	146.040000
386.197968	146.040000
386.291534	146.200000
386.385101	146.760000
386.478668	146.900000
386.572235	147.120000
386.665802	146.700000
386.759338	146.520000
386.852905	146.120000
386.946472	145.560000
387.040070	145.680000
387.133606	145.720000
387.227203	145.400000
387.320740	145.600000
387.414337	145.500000
387.507874	145.000000
387.601471	145.100000
387.695007	144.980000
387.788605	144.680000
387.882141	145.300000
387.975739	145.820000
388.069275	145.260000
388.162872	145.960000
388.256439	146.020000
388.350037	145.300000
388.443604	144.960000
388.537170	145.420000
388.630737	145.900000
388.724304	146.040000
388.817871	146.060000
388.911438	145.980000
389.005005	146.560000
389.098602	146.660000
389.192169	146.280000
389.285736	146.900000
389.379333	147.120000
389.472870	146.300000
389.566467	145.880000
389.660034	146.020000
389.753632	145.420000
389.847168	145.480000
389.940765	145.760000
390.034332	145.860000
390.127930	145.460000
390.221466	145.460000
390.315063	144.820000
390.408630	144.060000
390.502228	143.160000
390.595795	143.580000
390.689362	143.740000
390.782959	144.560000
390.876526	145.280000
390.970093	145.740000
391.063690	146.220000
391.157257	146.200000
391.250824	146.140000
391.344421	146.000000
391.437988	146.380000
391.531555	146.280000
391.625153	146.480000
391.718750	146.420000
391.812317	146.300000
391.905914	145.720000
391.999481	145.660000
392.093079	145.840000
392.186615	146.220000
392.280243	146.300000
392.373779	146.640000
392.467407	146.900000
392.560944	146.440000
392.654572	145.440000
392.748108	145.540000
392.841736	145.620000
392.935303	145.080000
393.028900	145.300000
393.122467	145.620000
393.216064	145.300000
393.309631	144.780000
393.403229	144.700000
393.496796	144.540000
393.590393	144.160000
393.683990	144.460000
393.777557	145.340000
393.871155	145.620000
393.964722	146.080000
394.058350	146.480000
394.151917	146.540000
394.245514	145.900000
394.339081	146.560000
394.432678	146.520000
394.526245	146.320000
394.619873	145.900000
394.713409	146.040000
394.807037	145.220000
394.900604	145.520000
394.994202	145.760000
395.087769	145.980000
395.181396	145.900000
395.274994	146.900000
395.368561	145.660000
395.462158	145.880000
395.555756	145.680000
395.649353	146.100000
395.742920	145.420000
395.836517	146.700000
395.930115	145.700000
396.023712	146.360000
396.117279	146.220000
396.210876	145.920000
396.304474	145.520000
396.398071	146.360000
396.491669	146.260000
396.585266	146.020000
396.678833	146.200000
396.772461	146.380000
396.866028	146.500000
396.959656	146.460000
397.053223	147.020000
397.146851	146.980000
397.240417	147.240000
397.334015	148.140000
397.427582	148.860000
397.521210	149.980000
397.614807	151.720000
397.708405	153.740000
397.802002	155.920000
397.895599	159.780000
397.989197	164.000000
398.082794	169.240000
398.176392	176.200000
398.269989	184.700000
398.363586	194.260000
398.457184	205.080000
398.550781	217.660000
398.644379	229.400000
398.737976	242.300000
398.831573	255.860000
398.925201	269.100000
399.018768	283.260000
399.112396	299.360000
399.205963	316.360000
399.299591	334.040000
399.393158	353.880000
399.486786	374.240000
399.580353	393.780000
399.673981	412.060000
399.767578	429.700000
399.861206	444.480000
399.954773	454.860000
400.048401	460.080000
400.141998	460.220000
400.235596	455.940000
400.329193	447.400000
400.422791	437.100000
400.516418	425.880000
400.610016	415.720000
400.703613	404.560000
400.797211	391.500000
400.890808	377.560000
400.984436	363.540000
401.078033	346.680000
401.171631	328.640000
401.265259	311.100000
401.358826	293.560000
401.452484	275.320000
401.546051	258.680000
401.639679	241.700000
401.733246	226.780000
401.826904	211.980000
401.920471	199.040000
402.014099	187.300000
402.107697	178.300000
402.201324	170.700000
402.294891	165.040000
402.388550	160.500000
402.482147	157.000000
402.575745	153.960000
402.669373	151.400000
402.762970	149.680000
402.856567	148.800000
402.950195	148.100000
403.043793	147.820000
403.137390	148.040000
403.231018	147.180000
403.324615	147.660000
403.418243	147.060000
403.511841	147.200000
403.605469	146.840000
403.699066	147.280000
403.792694	146.660000
403.886292	147.200000
403.979919	147.160000
404.073517	146.880000
404.167145	147.200000
404.260712	147.420000
404.354370	146.740000
404.447937	146.620000
404.541595	146.660000
404.635162	146.840000
404.728821	146.880000
404.822418	146.900000
404.916046	146.640000
405.009644	147.000000
405.103271	146.840000
405.196899	146.560000
405.290497	146.760000
405.384125	147.120000
405.477722	146.720000
405.571350	146.080000
405.664948	146.080000
405.758575	145.820000
405.852203	145.300000
405.945801	145.380000
406.039429	145.920000
406.133057	145.740000
406.226654	145.740000
406.320312	145.780000
406.413879	146.020000
406.507538	145.920000
406.601135	145.580000
406.694763	146.240000
406.788361	146.100000
406.882019	145.640000
406.975586	146.220000
407.069244	146.620000
407.162872	146.040000
407.256470	146.240000
407.350098	146.440000
407.443726	145.680000
407.537323	145.640000
407.630951	145.980000
407.724579	145.480000
407.818207	145.780000
407.911804	145.660000
408.005432	145.620000
408.099060	146.000000
408.192688	146.840000
408.286285	146.520000
408.379913	146.280000
408.473572	146.280000
408.567169	145.500000
408.660828	145.060000
408.754395	145.020000
408.848053	145.280000
408.941650	145.540000
409.035309	145.400000
409.128906	145.380000
409.222565	145.500000
409.316132	145.880000
409.409790	145.360000
409.503387	145.660000
409.597046	145.740000
409.690674	145.640000
409.784302	145.720000
409.877930	145.840000
409.971558	145.880000
410.065186	145.840000
410.158783	145.900000
410.252411	145.380000
410.346039	146.000000
410.439667	145.860000
410.533295	146.260000
410.626923	146.600000
410.720551	146.600000
410.814209	146.700000
410.907806	146.700000
411.001465	145.920000
411.095062	145.540000
411.188721	145.820000
411.282318	145.100000
411.375977	145.240000
411.469574	145.700000
411.563232	145.580000
411.656830	145.220000
411.750488	145.260000
411.844086	144.660000
411.937744	144.720000
412.031372	144.700000
412.125000	144.900000
412.218628	144.800000
412.312256	145.840000
412.405884	146.000000
412.499512	145.680000
412.593170	145.820000
412.686798	146.220000
412.780426	145.360000
412.874054	145.520000
412.967682	145.680000
413.061310	146.240000
413.154968	146.260000
413.248566	146.620000
413.342224	146.340000
413.435852	146.840000
413.529510	146.140000
413.623108	145.520000
413.716766	145.640000
413.810364	145.780000
413.904022	145.260000
413.997650	145.020000
414.091309	145.840000
414.184906	145.540000
414.278564	145.240000
414.372192	145.860000
414.465851	146.200000
414.559479	145.940000
414.653107	146.760000
414.746735	146.880000
414.840393	146.780000
414.934021	147.100000
415.027649	146.560000
415.121277	146.480000
415.214935	146.720000
415.308563	146.600000
415.402191	145.920000
415.495850	146.300000
415.589478	145.780000
415.683136	145.440000
415.776733	145.480000
415.870422	145.960000
415.964020	145.380000
416.057678	145.560000
416.151306	145.620000
416.244965	145.580000
416.338562	145.400000
416.432251	146.260000
416.525848	147.040000
416.619507	147.300000
416.713165	147.780000
416.806793	147.960000
416.900421	147.900000
416.994080	146.580000
417.087708	146.180000
417.181366	145.320000
417.274994	145.160000
417.368622	145.060000
417.462280	145.780000
417.555908	145.720000
417.649567	145.740000
417.743195	145.800000
417.836853	145.800000
417.930481	145.820000
418.024170	146.060000
418.117767	146.520000
418.211426	146.700000
418.305054	146.900000
418.398712	146.440000
418.492340	146.440000
418.585999	146.800000
418.679626	146.540000
418.773285	146.440000
418.866913	146.820000
418.960571	146.940000
419.054230	146.660000
419.147858	146.740000
419.241516	146.740000
419.335144	146.380000
419.428802	146.200000
419.522461	145.760000
419.616089	145.360000
419.709747	145.440000
419.803375	145.560000
419.897034	145.460000
419.990662	145.800000
420.084320	146.500000
420.177979	146.620000
420.271606	146.980000
420.365295	147.380000
420.458893	147.760000
420.552582	147.640000
420.646210	147.600000
420.739868	147.160000
420.833496	146.780000
420.927155	146.020000
421.020782	145.940000
421.114471	145.300000
421.208069	145.360000
421.301758	145.900000
421.395386	146.300000
421.489044	146.040000
421.582703	146.400000
421.676361	146.960000
421.769989	146.160000
421.863647	146.480000
421.957306	146.600000
422.050934	146.620000
422.144592	146.240000
422.238251	146.060000
422.331909	145.400000
422.425537	145.400000
422.519196	145.320000
422.612854	144.960000
422.706543	145.240000
422.800140	145.640000
422.893829	145.440000
422.987457	145.500000
423.081146	145.580000
423.174744	146.200000
423.268433	146.080000
423.362061	146.040000
423.455750	145.840000
423.549347	145.940000
423.643036	145.280000
423.736664	145.640000
423.830353	145.800000
423.924011	146.160000
424.017639	146.040000
424.111298	146.120000
424.204956	145.860000
424.298615	145.740000
424.392273	145.420000
424.485931	145.360000
424.579559	145.440000
424.673218	145.400000
424.766876	145.800000
424.860535	145.660000
424.954193	145.740000
425.047882	146.220000
425.141510	146.200000
425.235199	146.040000
425.328796	145.880000
425.422485	145.560000
425.516113	145.260000
425.609802	145.020000
425.703430	145.400000
425.797119	145.600000
425.890747	146.100000
425.984436	145.980000
426.078064	146.180000
426.171753	145.820000
426.265411	145.800000
426.359070	146.060000
426.452728	145.840000
426.546356	145.700000
426.640015	145.640000
426.733673	145.780000
426.827332	145.120000
426.920990	146.120000
427.014648	145.940000
427.108307	145.940000
427.201965	146.240000
427.295624	146.480000
427.389282	145.520000
427.482941	145.760000
427.576630	145.760000
427.670258	145.040000
427.763947	145.140000
427.857574	145.360000
427.951263	145.340000
428.044922	145.040000
428.138611	145.420000
428.232239	145.600000
428.325928	145.880000
428.419556	146.280000
428.513245	146.180000
428.606903	146.440000
428.700562	146.060000
428.794220	145.560000
428.887878	145.140000
428.981537	145.540000
429.075195	145.520000
429.168854	146.100000
429.262512	146.280000
429.356201	146.040000
429.449860	145.980000
429.543518	145.760000
429.637177	145.640000
429.730835	145.760000
429.824493	146.140000
429.918182	146.200000
430.011810	145.800000
430.105530	145.360000
430.199158	145.140000
430.292847	145.040000
430.386475	144.880000
430.480164	144.960000
430.573792	144.660000
430.667511	144.900000
430.761139	144.920000
430.854828	145.380000
430.948456	145.580000
431.042145	146.260000
431.135834	145.580000
431.229492	145.560000
431.323151	145.420000
431.416809	145.720000
431.510468	145.620000
431.604156	146.000000
431.697815	145.960000
431.791473	145.200000
431.885132	144.700000
431.978821	144.900000
432.072479	145.380000
432.166138	145.860000
432.259827	146.260000
432.353485	146.700000
432.447174	146.560000
432.540802	146.200000
432.634491	146.160000
432.728149	146.460000
432.821838	146.800000
432.915466	146.320000
433.009186	146.220000
433.102814	145.740000
433.196503	145.560000
433.290131	145.180000
433.383850	145.720000
433.477509	146.120000
433.571167	146.740000
433.664856	147.260000
433.758514	147.640000
433.852173	147.400000
433.945862	146.940000
434.039520	146.720000
434.133179	146.000000
434.226868	145.580000
434.320526	145.360000
434.414185	145.940000
434.507874	145.380000
434.601562	145.800000
434.695221	145.800000
434.788910	145.960000
434.882538	146.040000
434.976257	145.780000
435.069885	145.680000
435.163574	145.760000
435.257233	145.180000
435.350922	145.200000
435.444580	145.620000
435.538269	145.360000
435.631897	145.880000
435.725616	147.020000
435.819275	147.180000
435.912964	147.620000
436.006622	147.860000
436.100311	147.280000
436.193970	146.100000
436.287628	145.580000
436.381317	145.060000
436.474976	144.840000
436.568665	144.700000
436.662323	145.080000
436.756012	145.120000
436.849670	144.900000
436.943390	144.740000
437.037018	144.720000
437.130737	144.920000
437.224365	144.820000
437.318085	145.380000
437.411713	145.600000
437.505432	145.860000
437.599060	146.300000
437.692780	146.940000
437.786407	146.640000
437.880127	146.620000
437.973755	146.420000
438.067474	146.080000
438.161133	145.800000
438.254822	146.300000
438.348480	146.040000
438.442169	146.680000
438.535828	146.900000
438.629517	146.140000
438.723175	145.540000
438.816864	146.340000
438.910553	145.480000
439.004211	145.220000
439.097900	145.620000
439.191559	145.840000
439.285248	145.020000
439.378906	145.520000
439.472626	145.340000
439.566284	145.040000
439.659973	145.380000
439.753632	145.520000
439.847321	145.700000
439.940979	146.040000
440.034698	146.460000
440.128326	145.780000
440.222046	145.860000
440.315674	145.000000
440.409393	145.020000
440.503082	144.940000
440.596741	145.160000
440.690430	145.440000
440.784088	145.720000
440.877777	145.180000
440.971466	145.200000
441.065125	145.120000
441.158813	144.580000
441.252502	144.760000
441.346161	144.960000
441.439850	145.120000
441.533539	144.920000
441.627197	145.560000
441.720886	145.420000
441.814606	146.100000
441.908234	146.660000
442.001953	146.900000
442.095612	146.780000
442.189301	147.020000
442.282959	146.640000
442.376678	145.580000
442.470306	146.180000
442.564026	145.780000
442.657684	146.020000
442.751404	146.260000
442.845032	147.220000
442.938751	146.660000
443.032440	146.940000
443.126099	146.180000
443.219788	146.320000
443.313477	145.920000
443.407166	146.180000
443.500824	145.920000
443.594513	146.320000
443.688202	145.960000
443.781891	145.480000
443.875549	145.100000
443.969238	145.240000
444.062927	145.020000
444.156647	144.960000
444.250275	145.340000
444.343994	145.720000
444.437653	146.060000
444.531372	146.180000
444.625031	145.960000
444.718719	145.700000
444.812378	145.580000
444.906097	145.220000
444.999756	145.040000
445.093445	145.140000
445.187103	145.180000
445.280823	145.560000
445.374512	145.080000
445.468201	145.180000
445.561859	145.020000
445.655548	145.300000
445.749237	144.780000
445.842926	145.240000
445.936615	145.940000
446.030304	145.820000
446.123962	146.120000
446.217651	146.100000
446.311340	146.420000
446.405029	145.700000
446.498749	145.840000
446.592407	145.020000
446.686096	145.180000
446.779755	145.080000
446.873474	145.480000
446.967133	146.000000
447.060852	146.200000
447.154510	146.160000
447.248230	145.840000
447.341858	145.700000
447.435577	144.740000
447.529236	144.240000
447.622955	144.020000
447.716644	144.220000
447.810333	144.180000
447.904022	145.100000
447.997711	145.720000
448.091400	146.220000
448.185059	146.480000
448.278748	146.880000
448.372437	146.400000
448.466125	146.220000
448.559814	145.880000
448.653503	146.020000
448.747192	146.060000
448.840912	146.560000
448.934570	146.680000
449.028290	147.040000
449.121948	146.660000
449.215637	145.980000
449.309296	145.400000
449.403015	145.560000
449.496674	145.500000
449.590393	145.480000
449.684052	145.500000
449.777771	146.160000
449.871429	145.540000
449.965149	145.320000
450.058838	145.840000
450.152527	146.560000
450.246216	146.320000
450.339905	146.620000
450.433594	146.320000
450.527283	146.620000
450.620972	146.360000
450.714661	146.240000
450.808350	146.780000
450.902039	147.220000
450.995728	146.620000
451.089417	145.980000
451.183105	145.940000
451.276794	146.000000
451.370514	145.460000
451.464172	144.640000
451.557892	145.020000
451.651550	145.320000
451.745270	144.800000
451.838928	144.520000
451.932648	145.220000
452.026306	145.700000
452.120026	144.840000
452.213684	145.160000
452.307404	145.540000
452.401062	145.700000
452.494781	145.800000
452.588470	146.300000
452.682159	145.980000
452.775848	146.300000
452.869537	145.860000
452.963226	145.040000
453.056915	145.360000
453.150604	145.520000
453.244293	145.740000
453.337982	146.520000
453.431671	147.420000
453.525360	147.640000
453.619049	147.520000
453.712769	147.520000
453.806427	146.960000
453.900146	146.100000
453.993805	145.680000
454.087555	146.000000
454.181213	145.880000
454.274933	145.640000
454.368591	145.580000
454.462311	145.520000
454.555969	145.280000
454.649689	145.780000
454.743347	145.820000
454.837067	146.840000
454.930756	147.340000
455.024445	147.380000
455.118134	146.860000
455.211853	147.060000
455.305542	146.380000
455.399231	146.060000
455.492920	145.960000
455.586609	145.860000
455.680298	146.160000
455.773987	145.960000
455.867676	146.180000
455.961365	146.460000
456.055084	146.720000
456.148773	146.120000
456.242493	146.260000
456.336151	145.940000
456.429871	146.000000
456.523529	146.060000
456.617249	146.140000
456.710907	146.880000
456.804626	146.920000
456.898315	146.460000
456.992035	146.260000
457.085693	146.100000
457.179413	145.200000
457.273102	146.120000
457.366791	146.320000
457.460480	146.680000
457.554199	147.340000
457.647888	147.460000
457.741577	146.640000
457.835266	146.640000
457.928955	146.480000
458.022644	146.740000
458.116364	147.180000
458.210052	147.020000
458.303741	147.040000
458.397461	146.500000
458.491119	145.460000
458.584839	145.340000
458.678528	145.260000
458.772247	144.980000
458.865906	145.320000
458.959625	146.560000
459.053284	146.440000
459.147003	146.600000
459.240692	147.520000
459.334412	147.720000
459.428070	147.120000
459.521790	146.700000
459.615479	146.660000
459.709198	146.420000
459.802887	146.080000
459.896576	145.920000
459.990265	145.980000
460.083954	146.040000
460.177673	145.580000
460.271362	145.700000
460.365051	145.680000
460.458740	145.740000
460.552429	145.300000
460.646149	145.480000
460.739838	145.320000
460.833527	145.540000
460.927246	145.300000
461.020905	145.220000
461.114655	145.040000
461.208313	145.240000
461.302032	144.900000
461.395691	145.420000
461.489441	145.900000
461.583099	145.780000
461.676819	145.500000
461.770477	145.680000
461.864197	145.180000
461.957916	144.560000
462.051605	144.100000
462.145294	145.020000
462.238983	144.740000
462.332703	145.640000
462.426392	146.600000
462.520081	146.960000
462.613770	146.140000
462.707489	146.500000
462.801178	145.940000
462.894867	145.600000
462.988556	145.740000
463.082275	146.000000
463.175964	145.640000
463.269684	145.940000
463.363342	146.080000
463.457092	145.440000
463.550751	145.640000
463.644470	146.000000
463.738129	146.180000
463.831879	145.960000
463.925537	147.080000
464.019257	146.920000
464.112946	146.700000
464.206665	146.220000
464.300323	146.360000
464.394043	145.820000
464.487762	145.480000
464.581451	145.920000
464.675140	145.860000
464.768829	145.860000
464.862549	146.380000
464.956238	146.640000
465.049927	146.540000
465.143646	146.660000
465.237335	146.380000
465.331024	146.500000
465.424713	146.360000
465.518433	146.180000
465.612152	146.140000
465.705811	146.280000
465.799561	145.680000
465.893219	145.760000
465.986938	145.920000
466.080597	145.820000
466.174347	146.200000
466.268005	146.420000
466.361725	146.440000
466.455414	146.280000
466.549133	145.900000
466.642792	145.980000
466.736542	145.420000
466.830231	145.480000
466.923920	145.260000
467.017609	145.560000
467.111328	144.960000
467.205017	145.140000
467.298706	144.920000
467.392426	145.240000
467.486115	145.320000
467.579803	145.300000
467.673523	146.020000
467.767212	146.080000
467.860901	145.740000
467.954651	146.240000
468.048309	146.580000
468.142029	146.120000
468.235718	146.140000
468.329437	146.160000
468.423096	145.720000
468.516846	145.440000
468.610504	145.240000
468.704224	144.940000
468.797913	144.700000
468.891632	144.780000
468.985291	144.660000
469.079010	144.680000
469.172729	144.640000
469.266418	145.500000
469.360107	145.600000
469.453827	145.620000
469.547516	145.880000
469.641205	146.500000
469.734924	146.300000
469.828613	146.420000
469.922302	146.580000
470.016022	146.380000
470.109711	145.980000
470.203430	145.220000
470.297150	144.560000
470.390808	144.720000
470.484558	144.740000
470.578217	145.180000
470.671936	146.080000
470.765625	146.940000
470.859344	146.580000
470.953003	146.740000
471.046753	146.420000
471.140411	145.600000
471.234131	145.480000
471.327820	146.240000
471.421539	146.240000
471.515228	145.760000
471.608948	146.180000
471.702637	145.580000
471.796326	144.860000
471.890045	145.200000
471.983734	145.460000
472.077423	145.180000
472.171143	145.520000
472.264832	145.660000
472.358521	145.240000
472.452240	145.000000
472.545929	145.740000
472.639648	146.000000
472.733337	146.480000
472.827057	146.620000
472.920746	146.940000
473.014465	146.880000
473.108124	146.560000
473.201874	146.320000
473.295532	146.160000
473.389252	146.340000
473.482941	146.400000
473.576660	146.160000
473.670319	146.040000
473.764069	146.120000
473.857727	146.420000
473.951477	146.260000
474.045166	147.100000
474.138855	146.760000
474.232574	146.680000
474.326263	146.340000
474.419952	146.440000
474.513672	146.100000
474.607361	146.180000
474.701050	146.560000
474.794769	147.040000
474.888458	147.060000
474.982178	146.960000
475.075867	147.340000
475.169586	147.020000
475.263275	146.600000
475.356995	146.460000
475.450653	146.260000
475.544403	145.880000
475.638062	146.600000
475.731812	146.080000
475.825470	145.860000
475.919189	146.080000
476.012878	146.380000
476.106598	145.600000
476.200256	146.480000
476.294006	146.360000
476.387695	146.600000
476.481384	146.600000
476.575104	146.520000
476.668793	145.600000
476.762512	145.600000
476.856201	145.640000
476.949890	145.420000
477.043610	144.960000
477.137299	145.500000
477.230988	145.820000
477.324707	145.240000
477.418396	145.640000
477.512146	146.220000
477.605804	145.980000
477.699524	146.120000
477.793213	145.960000
477.886932	145.500000
477.980591	145.020000
478.074341	144.940000
478.167999	144.380000
478.261749	144.760000
478.355408	144.620000
478.449127	145.360000
478.542816	146.420000
478.636536	147.240000
478.730225	147.240000
478.823944	147.760000
478.917633	147.500000
479.011322	146.960000
479.105042	146.860000
479.198730	147.200000
479.292450	146.840000
479.386139	146.840000
479.479828	147.100000
479.573547	147.020000
479.667267	146.580000
479.760925	146.900000
479.854675	147.380000
479.948334	147.060000
480.042084	146.480000
480.135742	147.100000
480.229462	146.520000
480.323151	145.980000
480.416870	145.500000
480.510529	145.860000
480.604279	144.960000
480.697937	145.560000
480.791656	145.400000
480.885345	145.380000
480.979065	145.220000
481.072754	145.600000
481.166473	145.880000
481.260132	145.960000
481.353882	145.960000
481.447540	145.860000
481.541260	145.760000
481.635010	145.160000
481.728668	145.120000
481.822388	145.220000
481.916077	145.320000
482.009796	145.340000
482.103485	145.760000
482.197205	145.920000
482.290863	146.320000
482.384613	146.520000
482.478271	146.320000
482.571991	146.040000
482.665680	146.100000
482.759399	146.620000
482.853058	146.620000
482.946808	146.700000
483.040466	146.680000
483.134216	146.340000
483.227875	145.520000
483.321594	145.680000
483.415283	145.660000
483.509003	145.620000
483.602661	145.240000
483.696411	145.600000
483.790070	145.600000
483.883789	145.640000
483.977478	146.020000
484.071198	146.500000
484.164917	145.860000
484.258606	145.220000
484.352325	145.460000
484.445984	144.960000
484.539734	144.980000
484.633392	144.780000
484.727142	145.280000
484.820801	145.060000
484.914520	145.100000
485.008209	145.120000
485.101929	146.060000
485.195587	145.680000
485.289337	145.720000
485.382996	146.080000
485.476715	146.060000
485.570404	146.020000
485.664124	145.920000
485.757782	146.180000
485.851532	145.680000
485.945190	145.880000
486.038910	145.900000
486.132599	146.320000
486.226318	145.880000
486.319977	146.060000
486.413727	146.280000
486.507446	145.540000
486.601105	145.000000
486.694855	144.940000
486.788513	144.660000
486.882233	144.440000
486.975922	144.560000
487.069641	144.740000
487.163300	144.740000
487.257050	145.860000
487.350708	145.660000
487.444427	145.820000
487.538116	145.720000
487.631836	145.820000
487.725494	145.220000
487.819214	145.380000
487.912903	145.120000
488.006622	145.460000
488.100281	145.880000
488.194031	145.900000
488.287689	146.340000
488.381409	147.280000
488.475098	147.280000
488.568817	147.120000
488.662476	146.740000
488.756226	146.000000
488.849945	144.840000
488.943604	144.940000
489.037354	144.940000
489.131012	144.860000
489.224731	144.820000
489.318390	145.120000
489.412140	145.100000
489.505798	145.000000
489.599518	145.080000
489.693207	145.540000
489.786926	145.600000
489.880585	145.440000
489.974335	145.720000
490.067993	146.560000
490.161713	146.620000
490.255371	147.260000
490.349121	147.340000
490.442780	147.080000
490.536499	146.160000
490.630188	146.080000
490.723907	145.420000
490.817566	145.580000
490.911285	145.700000
491.004974	145.800000
491.098694	145.560000
491.192413	146.120000
491.286102	145.860000
491.379822	145.920000
491.473480	146.200000
491.567200	146.340000
491.660889	145.900000
491.754608	145.900000
491.848267	145.920000
491.941986	145.660000
492.035675	145.620000
492.129395	146.060000
492.223053	146.280000
492.316772	146.160000
492.410461	146.280000
492.504181	146.280000
492.597839	145.780000
492.691559	145.680000
492.785248	145.720000
492.878967	145.840000
492.972626	145.500000
493.066345	145.500000
493.160034	145.000000
493.253754	144.860000
493.347412	144.540000
493.441132	144.860000
493.534882	145.420000
493.628540	146.140000
493.722260	146.300000
493.815918	146.580000
493.909668	147.060000
494.003326	147.220000
494.097046	146.780000
494.190704	146.660000
494.284454	146.660000
494.378113	146.700000
494.471832	146.400000
494.565491	146.140000
494.659210	146.260000
494.752899	146.000000
494.846619	145.300000
494.940277	145.420000
495.033997	145.620000
495.127686	145.360000
495.221405	145.280000
495.315063	145.620000
495.408783	145.440000
495.502441	145.620000
495.596191	145.920000
495.689850	146.060000
495.783569	146.180000
495.877228	146.260000
495.970947	146.400000
496.064697	146.140000
496.158356	146.980000
496.252075	146.900000
496.345734	146.680000
496.439453	147.200000
496.533142	147.360000
496.626862	147.440000
496.720520	147.160000
496.814240	147.100000
496.907898	146.780000
497.001617	147.020000
497.095306	145.680000
497.189026	145.680000
497.282684	145.980000
497.376404	145.980000
497.470062	145.580000
497.563782	145.940000
497.657471	145.880000
497.751190	145.480000
497.844849	145.180000
497.938568	145.320000
498.032227	145.540000
498.125946	145.460000
498.219635	145.360000
498.313354	145.500000
498.407074	145.320000
498.500732	145.500000
498.594452	146.220000
498.688110	146.140000
498.781830	145.880000
498.875519	146.020000
498.969238	145.800000
499.062897	145.180000
499.156616	145.720000
499.250275	145.920000
499.343994	145.360000
499.437653	145.340000
499.531372	145.560000
499.625061	145.720000
499.718781	145.740000
499.812439	146.460000
499.906158	146.240000
499.999817	145.840000
500.093536	145.400000
500.187195	145.480000
500.280914	145.320000
500.374573	145.660000
500.468323	145.860000
500.561981	145.960000
500.655701	145.480000
500.749420	145.500000
500.843079	145.760000
500.936798	145.740000
501.030457	146.200000
501.124176	146.660000
501.217834	146.400000
501.311554	145.920000
501.405212	146.020000
501.498962	145.040000
501.592621	144.580000
501.686340	145.180000
501.779999	145.500000
501.873718	145.740000
501.967377	146.160000
502.061096	146.680000
502.154755	145.960000
502.248474	146.280000
502.342133	146.120000
502.435852	146.240000
502.529510	146.740000
502.623230	147.520000
502.716888	146.520000
502.810608	146.600000
502.904266	146.760000
502.997986	145.500000
503.091705	144.740000
503.185364	144.880000
503.279083	144.700000
503.372772	144.520000
503.466492	144.720000
503.560150	144.880000
503.653870	145.340000
503.747528	145.240000
503.841248	145.000000
503.934906	145.360000
504.028625	144.920000
504.122284	144.900000
504.216003	145.640000
504.309662	145.520000
504.403381	145.720000
504.497040	146.120000
504.590759	146.120000
504.684418	146.080000
504.778137	146.880000
504.871796	147.220000
504.965515	147.200000
505.059174	147.140000
505.152893	146.380000
505.246521	145.480000
505.340240	144.620000
505.433899	144.680000
505.527618	144.840000
505.621338	145.580000
505.714996	145.820000
505.808716	146.120000
505.902374	146.820000
505.996094	146.820000
506.089752	146.060000
506.183472	146.300000
506.277130	146.360000
506.370850	146.240000
506.464508	146.040000
506.558228	146.380000
506.651886	146.060000
506.745605	146.340000
506.839264	146.120000
506.932983	146.160000
507.026611	146.020000
507.120331	146.380000
507.213989	145.700000
507.307709	145.680000
507.401367	146.060000
507.495087	146.820000
507.588745	146.800000
507.682465	147.800000
507.776123	147.800000
507.869843	147.300000
507.963531	146.980000
508.057190	147.240000
508.150909	146.300000
508.244568	146.460000
508.338287	146.220000
508.431946	145.780000
508.525665	145.420000
508.619324	145.320000
508.713013	145.540000
508.806671	146.200000
508.900391	147.060000
508.994049	147.320000
509.087769	147.420000
509.181427	147.020000
509.275146	146.500000
509.368774	145.580000
509.462494	145.180000
509.556152	145.180000
509.649872	145.100000
509.743530	145.340000
509.837250	145.820000
509.930878	146.120000
510.024597	146.120000
510.118256	146.100000
510.211975	146.060000
510.305695	145.520000
510.399353	145.640000
510.493042	146.160000
510.586700	146.100000
510.680420	146.720000
510.774078	146.900000
510.867798	146.960000
510.961426	146.120000
511.055145	146.160000
511.148804	145.540000
511.242523	146.100000
511.336151	145.820000
511.429871	146.600000
511.523529	146.520000
511.617249	146.260000
511.710876	145.600000
511.804596	145.220000
511.898254	144.840000
511.991974	145.100000
512.085632	145.280000
512.179321	145.680000
512.272949	146.020000
512.366699	146.440000
512.460327	145.980000
512.554077	146.960000
512.647766	146.620000
512.741394	146.920000
512.835144	147.200000
512.928772	147.280000
513.022461	146.720000
513.116150	146.520000
513.209839	146.700000
513.303467	146.060000
513.397217	145.880000
513.490845	145.460000
513.584595	145.440000
513.678223	144.700000
513.771912	144.300000
513.865601	144.880000
513.959290	144.840000
514.052917	145.000000
514.146667	145.900000
514.240295	146.520000
514.333984	146.520000
514.427673	146.440000
514.521362	146.540000
514.614990	145.460000
514.708740	145.320000
514.802368	145.220000
514.896057	145.220000
514.989746	146.060000
515.083435	146.280000
515.177124	146.540000
515.270752	146.500000
515.364502	146.740000
515.458130	146.440000
515.551819	146.480000
515.645508	146.160000
515.739197	146.220000
515.832825	146.260000
515.926575	145.660000
516.020203	145.980000
516.113892	146.360000
516.207520	146.040000
516.301270	145.760000
516.394897	145.820000
516.488586	146.000000
516.582275	145.840000
516.675964	145.480000
516.769592	145.520000
516.863281	146.380000
516.956970	146.660000
517.050659	146.360000
517.144287	146.760000
517.238037	147.240000
517.331665	146.300000
517.425354	145.660000
517.519043	145.740000
517.612732	146.040000
517.706421	145.620000
517.800049	145.560000
517.893738	145.320000
517.987427	145.220000
518.081116	144.920000
518.174744	144.520000
518.268433	144.920000
518.362122	145.740000
518.455811	145.440000
518.549438	145.820000
518.643127	146.960000
518.736816	146.540000
518.830505	145.840000
518.924133	146.340000
519.017822	146.480000
519.111511	146.080000
519.205200	146.820000
519.298828	147.100000
519.392517	146.660000
519.486206	146.680000
519.579895	146.700000
519.673523	146.220000
519.767212	146.060000
519.860901	146.840000
519.954590	146.200000
520.048279	145.600000
520.141907	145.600000
520.235596	146.540000
520.329224	146.280000
520.422974	146.520000
520.516602	146.880000
520.610291	146.500000
520.703918	146.100000
520.797607	145.760000
520.891296	145.640000
520.984985	145.760000
521.078613	146.500000
521.172302	145.780000
521.265930	146.740000
521.359680	147.240000
521.453308	147.040000
521.546997	146.740000
521.640625	147.220000
521.734314	146.540000
521.827942	146.300000
521.921692	146.700000
522.015320	146.640000
522.109009	146.000000
522.202698	146.020000
522.296326	145.740000
522.390015	145.760000
522.483704	145.780000
522.577393	146.040000
522.671021	145.900000
522.764709	145.860000
522.858337	145.960000
522.952026	145.840000
523.045654	146.200000
523.139404	146.760000
523.233032	147.220000
523.326721	146.760000
523.420349	146.980000
523.514038	146.640000
523.607666	146.980000
523.701355	146.440000
523.795044	146.480000
523.888733	146.640000
523.982361	146.900000
524.076050	146.080000
524.169678	146.620000
524.263367	146.300000
524.356995	145.920000
524.450684	145.480000
524.544373	145.220000
524.638062	145.100000
524.731750	145.360000
524.825378	145.320000
524.919067	145.140000
525.012695	145.480000
525.106384	145.180000
525.200012	145.420000
525.293701	145.340000
525.387329	146.060000
525.481018	145.860000
525.574646	146.300000
525.668396	146.120000
525.762024	146.820000
525.855713	146.940000
525.949341	146.680000
526.043030	146.580000
526.136658	146.280000
526.230347	145.840000
526.323975	145.140000
526.417664	145.340000
526.511292	145.040000
526.604980	145.440000
526.698608	145.500000
526.792297	145.920000
526.885925	146.560000
526.979614	146.980000
527.073303	146.860000
527.166931	146.560000
527.260620	146.660000
527.354309	146.560000
527.447998	146.360000
527.541626	146.260000
527.635315	146.600000
527.728943	146.960000
527.822632	146.980000
527.916260	147.020000
528.009949	147.020000
528.103577	146.560000
528.197266	145.840000
528.290894	145.560000
528.384583	145.240000
528.478210	145.540000
528.571899	145.960000
528.665527	146.400000
528.759216	146.600000
528.852844	147.420000
528.946533	147.260000
529.040161	147.320000
529.133850	146.900000
529.227478	147.120000
529.321167	147.040000
529.414856	147.140000
529.508484	147.420000
529.602173	147.340000
529.695801	146.940000
529.789490	146.600000
529.883057	146.220000
529.976746	146.360000
530.070374	146.980000
530.164062	147.140000
530.257690	147.160000
530.351379	147.420000
530.445007	146.880000
530.538696	146.040000
530.632324	146.200000
530.726013	146.300000
530.819641	146.280000
530.913330	146.540000
531.006958	147.120000
531.100647	146.760000
531.194275	146.360000
531.287964	146.160000
531.381592	145.880000
531.475220	145.600000
531.568848	145.860000
531.662537	145.920000
531.756226	146.300000
531.849854	146.180000
531.943542	146.180000
532.037170	145.560000
532.130859	146.020000
532.224487	145.920000
532.318176	145.880000
532.411804	146.380000
532.505432	146.780000
532.599060	146.280000
532.692749	146.080000
532.786377	146.520000
532.880066	145.980000
532.973694	145.680000
533.067383	145.580000
533.161011	145.640000
533.254639	145.520000
533.348267	145.420000
533.441956	145.640000
533.535583	145.960000
533.629272	146.240000
533.722900	145.720000
533.816589	145.960000
533.910156	146.160000
534.003845	145.740000
534.097534	145.720000
534.191162	146.320000
534.284851	146.600000
534.378479	146.400000
534.472107	146.600000
534.565735	146.440000
534.659424	146.400000
534.753052	146.320000
534.846741	146.120000
534.940369	146.480000
535.033997	146.700000
535.127625	146.740000
535.221313	147.080000
535.314941	147.120000
535.408630	146.660000
535.502197	146.640000
535.595886	146.280000
535.689514	145.840000
535.783203	146.420000
535.876831	146.960000
535.970459	147.080000
536.064087	147.100000
536.157776	146.980000
536.251404	146.720000
536.345093	146.360000
536.438721	146.260000
536.532349	146.300000
536.626038	146.660000
536.719666	146.780000
536.813293	146.600000
536.906921	146.200000
537.000610	146.460000
537.094238	146.420000
537.187866	146.100000
537.281494	145.980000
537.375183	146.460000
537.468811	145.920000
537.562439	145.480000
537.656067	145.720000
537.749756	146.020000
537.843384	146.360000
537.937012	147.200000
538.030640	147.300000
538.124329	147.200000
538.217896	147.560000
538.311584	147.120000
538.405212	146.520000
538.498901	146.660000
538.592468	147.100000
538.686157	146.480000
538.779785	145.920000
538.873413	146.000000
538.967102	145.660000
539.060730	145.160000
539.154358	145.460000
539.247986	145.940000
539.341675	145.900000
539.435242	146.200000
539.528931	146.420000
539.622559	146.120000
539.716187	146.520000
539.809814	146.260000
539.903503	146.280000
539.997070	146.080000
540.090759	146.420000
540.184387	146.220000
540.278015	146.780000
540.371643	146.820000
540.465332	146.820000
540.558899	146.360000
540.652588	146.240000
540.746216	145.940000
540.839844	146.000000
540.933472	146.260000
541.027100	146.320000
541.120728	146.540000
541.214417	146.960000
541.308044	147.360000
541.401672	147.080000
541.495300	147.020000
541.588928	146.700000
541.682617	146.520000
541.776184	145.860000
541.869873	146.120000
541.963440	146.400000
542.057129	146.300000
542.150757	146.340000
542.244385	146.340000
542.338013	145.860000
542.431641	145.800000
542.525269	145.780000
542.618958	146.100000
542.712524	146.340000
542.806213	146.420000
542.899780	146.720000
542.993469	146.320000
543.087036	145.680000
543.180725	145.160000
543.274292	145.580000
543.367981	145.740000
543.461548	146.560000
543.555237	146.640000
543.648926	147.380000
543.742493	147.820000
543.836182	147.460000
543.929749	146.880000
544.023437	147.000000
544.117004	147.100000
544.210693	146.960000
544.304260	147.160000
544.397949	147.420000
544.491516	147.700000
544.585205	147.360000
544.678772	146.560000
544.772461	146.780000
544.866028	146.500000
544.959717	146.380000
545.053284	146.020000
545.146973	146.400000
545.240540	146.340000
545.334229	147.120000
545.427795	147.500000
545.521423	147.980000
545.615051	148.100000
545.708679	148.380000
545.802307	148.320000
545.895935	148.340000
545.989624	149.100000
546.083191	149.000000
546.176880	148.580000
546.270447	148.280000
546.364136	148.540000
546.457703	147.280000
546.551331	147.120000
546.644958	147.500000
546.738586	147.820000
546.832214	146.920000
546.925842	147.260000
547.019409	147.580000
547.113098	146.840000
547.206665	145.980000
547.300354	146.080000
547.393921	146.260000
547.487549	146.280000
547.581177	145.940000
547.674805	146.320000
547.768433	145.700000
547.862061	145.400000
547.955627	144.680000
548.049316	145.680000
548.142883	145.780000
548.236572	146.620000
548.330139	146.980000
548.423767	147.120000
548.517456	146.760000
548.611023	146.980000
548.704651	146.300000
548.798279	145.820000
548.891907	146.140000
548.985474	146.040000
549.079163	145.840000
549.172729	145.920000
549.266357	145.620000
549.359985	145.620000
549.453613	145.120000
549.547180	145.160000
549.640869	145.700000
549.734436	145.920000
549.828064	146.140000
549.921631	146.180000
550.015320	145.820000
550.108887	145.980000
550.202515	146.460000
550.296143	145.820000
550.389771	146.340000
550.483337	146.380000
550.576965	145.880000
550.670593	145.920000
550.764221	146.360000
550.857849	146.000000
550.951477	145.740000
551.045105	145.540000
551.138672	145.720000
551.232300	145.320000
551.325928	145.840000
551.419556	146.540000
551.513123	146.820000
551.606750	146.000000
551.700378	146.120000
551.794006	145.840000
551.887573	145.560000
551.981201	145.840000
552.074768	145.980000
552.168457	145.880000
552.262024	147.000000
552.355652	146.840000
552.449219	147.060000
552.542847	147.560000
552.636475	147.620000
552.730103	146.120000
552.823669	146.040000
552.917297	145.440000
553.010864	144.940000
553.104553	144.920000
553.198181	144.920000
553.291748	145.420000
553.385376	145.680000
553.478943	145.700000
553.572571	146.120000
553.666199	146.340000
553.759827	145.840000
553.853394	145.400000
553.947021	145.500000
554.040588	145.220000
554.134216	145.340000
554.227783	146.000000
554.321411	146.940000
554.415039	146.440000
554.508667	146.520000
554.602234	146.620000
554.695862	146.140000
554.789429	145.740000
554.883057	146.440000
554.976624	146.440000
555.070251	146.080000
555.163818	145.800000
555.257507	145.620000
555.351074	145.500000
555.444702	146.320000
555.538330	146.420000
555.631897	146.980000
555.725525	146.660000
555.819092	146.360000
555.912720	145.240000
556.006287	145.980000
556.099915	145.640000
556.193481	146.020000
556.287109	146.620000
556.380676	146.620000
556.474304	146.320000
556.567871	146.820000
556.661499	146.220000
556.755066	145.940000
556.848694	146.240000
556.942261	145.980000
557.035889	145.720000
557.129517	146.280000
557.223145	146.600000
557.316711	146.520000
557.410339	146.580000
557.503906	146.340000
557.597473	146.560000
557.691040	146.360000
557.784668	146.300000
557.878296	146.240000
557.971863	146.440000
558.065491	146.440000
558.159058	146.100000
558.252686	146.680000
558.346252	147.140000
558.439880	146.700000
558.533447	146.340000
558.627075	146.040000
558.720642	145.640000
558.814270	145.320000
558.907837	145.280000
559.001465	144.980000
559.095032	146.120000
559.188660	146.300000
559.282227	146.080000
559.375854	146.760000
559.469360	146.880000
559.562988	146.600000
559.656555	146.360000
559.750183	146.460000
559.843750	146.640000
559.937378	146.980000
560.030945	146.980000
560.124573	0.000000
560.218140	0.000000
560.311707	0.000000
560.405334	0.000000
560.498901	0.000000
560.592529	0.000000
560.686096	0.000000
560.779724	0.000000
560.873291	0.000000
560.966858	0.000000
561.060425	0.000000
561.154053	0.000000
561.247620	0.000000
561.341248	0.000000
561.434814	0.000000
561.528381	0.000000
561.621948	0.000000
561.715576	0.000000
561.809143	0.000000
561.902771	0.000000
561.996277	0.000000
562.089905	0.000000
562.183472	0.000000
562.277100	0.000000
