Model Number: SPM-002-B   
Serial Number: 70087108
Firmware Version: 004.15.4
Exposure Time: 100000.000000us
Data Taken on: 11-12-2020 19:31:18.561
Wavelength	Amplitude
221.570786	0.000000
221.663406	0.000000
221.756027	0.000000
221.848648	0.000000
221.941269	0.000000
222.033905	0.000000
222.126526	0.000000
222.219162	0.000000
222.311798	0.000000
222.404419	0.000000
222.497055	0.000000
222.589676	0.000000
222.682312	0.000000
222.774933	0.000000
222.867569	0.000000
222.960205	0.000000
223.052841	0.000000
223.145462	0.000000
223.238098	0.000000
223.330734	0.000000
223.423386	0.000000
223.516022	0.000000
223.608658	0.000000
223.701309	0.000000
223.793945	0.000000
223.886581	0.000000
223.979218	0.000000
224.071869	0.000000
224.164505	0.000000
224.257156	0.000000
224.349792	0.000000
224.442444	0.000000
224.535095	0.000000
224.627747	0.000000
224.720398	0.000000
224.813034	0.000000
224.905685	0.000000
224.998337	145.860000
225.090988	145.400000
225.183640	145.700000
225.276291	145.340000
225.368942	145.680000
225.461594	145.920000
225.554245	146.360000
225.646912	146.060000
225.739578	147.120000
225.832230	147.200000
225.924896	146.640000
226.017548	146.960000
226.110199	147.260000
226.202866	146.300000
226.295532	146.240000
226.388184	146.340000
226.480850	145.920000
226.573517	145.680000
226.666168	146.100000
226.758835	146.400000
226.851501	146.920000
226.944183	146.720000
227.036850	146.400000
227.129517	146.240000
227.222183	146.280000
227.314850	146.080000
227.407516	146.600000
227.500198	147.440000
227.592865	147.140000
227.685532	146.540000
227.778214	146.220000
227.870880	146.440000
227.963562	146.600000
228.056229	147.260000
228.148926	147.300000
228.241592	148.280000
228.334274	147.900000
228.426956	147.320000
228.519638	147.120000
228.612305	147.000000
228.704987	146.400000
228.797668	146.380000
228.890350	146.340000
228.983032	145.600000
229.075714	146.320000
229.168396	146.220000
229.261108	146.100000
229.353790	146.200000
229.446472	146.780000
229.539169	146.040000
229.631851	145.680000
229.724533	145.640000
229.817230	145.780000
229.909912	146.820000
230.002609	147.000000
230.095306	147.040000
230.187988	147.320000
230.280685	147.260000
230.373383	145.740000
230.466095	145.960000
230.558792	146.380000
230.651474	146.420000
230.744171	146.220000
230.836868	146.320000
230.929581	146.620000
231.022278	146.620000
231.114975	146.400000
231.207672	146.540000
231.300369	147.200000
231.393082	146.900000
231.485779	146.500000
231.578506	146.400000
231.671204	146.500000
231.763916	146.340000
231.856613	146.500000
231.949326	146.740000
232.042023	146.800000
232.134735	146.640000
232.227448	146.340000
232.320160	146.180000
232.412872	145.980000
232.505585	146.940000
232.598297	147.320000
232.691010	147.300000
232.783722	146.960000
232.876450	147.880000
232.969162	146.960000
233.061874	146.560000
233.154587	146.400000
233.247314	146.860000
233.340027	146.140000
233.432739	146.520000
233.525467	146.320000
233.618179	146.600000
233.710907	146.140000
233.803635	146.420000
233.896347	146.000000
233.989090	146.640000
234.081818	146.580000
234.174545	146.920000
234.267258	146.440000
234.359985	146.760000
234.452713	146.560000
234.545441	146.460000
234.638168	146.380000
234.730896	146.880000
234.823639	146.600000
234.916367	146.920000
235.009094	147.040000
235.101822	146.940000
235.194580	146.780000
235.287308	146.720000
235.380051	146.040000
235.472778	146.340000
235.565521	146.800000
235.658249	146.380000
235.750992	146.820000
235.843719	146.780000
235.936462	146.560000
236.029205	146.080000
236.121948	145.900000
236.214691	146.040000
236.307449	146.900000
236.400192	146.800000
236.492935	146.700000
236.585678	147.140000
236.678421	146.900000
236.771164	146.460000
236.863907	146.840000
236.956665	147.060000
237.049408	148.420000
237.142151	148.060000
237.234909	148.560000
237.327652	148.180000
237.420410	148.120000
237.513153	146.800000
237.605927	146.800000
237.698669	146.240000
237.791428	146.100000
237.884186	146.440000
237.976944	146.100000
238.069702	146.540000
238.162445	146.200000
238.255203	146.020000
238.347961	146.200000
238.440720	146.280000
238.533478	146.100000
238.626266	145.780000
238.719025	146.160000
238.811783	145.900000
238.904541	145.880000
238.997314	145.460000
239.090073	145.680000
239.182831	145.640000
239.275604	146.260000
239.368362	146.400000
239.461136	146.720000
239.553909	146.700000
239.646667	146.900000
239.739441	146.120000
239.832214	146.040000
239.925003	146.040000
240.017761	146.800000
240.110535	147.080000
240.203308	146.880000
240.296082	147.320000
240.388855	147.200000
240.481628	146.760000
240.574417	146.840000
240.667191	147.080000
240.759964	146.560000
240.852737	146.420000
240.945526	146.100000
241.038315	145.620000
241.131088	145.440000
241.223877	145.920000
241.316650	145.940000
241.409439	146.380000
241.502228	146.100000
241.595001	146.800000
241.687790	146.560000
241.780579	146.560000
241.873367	146.640000
241.966141	146.980000
242.058929	146.000000
242.151718	146.060000
242.244507	146.280000
242.337311	145.680000
242.430099	146.000000
242.522903	146.360000
242.615692	146.340000
242.708481	146.700000
242.801270	147.120000
242.894073	147.000000
242.986862	147.280000
243.079651	147.680000
243.172455	146.900000
243.265244	147.260000
243.358063	146.640000
243.450867	146.760000
243.543655	146.640000
243.636459	147.400000
243.729263	147.260000
243.822067	147.760000
243.914856	147.920000
244.007660	147.900000
244.100464	147.520000
244.193268	147.100000
244.286072	146.900000
244.378876	146.160000
244.471680	145.620000
244.564499	145.920000
244.657318	146.660000
244.750122	146.800000
244.842926	146.540000
244.935745	147.120000
245.028549	146.540000
245.121368	146.000000
245.214172	146.020000
245.306992	146.760000
245.399796	146.220000
245.492615	146.580000
245.585434	146.340000
245.678253	146.220000
245.771072	146.060000
245.863892	146.640000
245.956711	146.880000
246.049530	147.100000
246.142349	147.080000
246.235168	147.100000
246.327988	147.440000
246.420807	146.960000
246.513626	146.960000
246.606445	146.860000
246.699280	146.840000
246.792099	146.380000
246.884918	146.280000
246.977753	146.000000
247.070587	146.040000
247.163422	146.180000
247.256241	146.160000
247.349075	146.640000
247.441895	146.920000
247.534729	146.920000
247.627563	146.480000
247.720383	146.840000
247.813217	146.440000
247.906052	146.220000
247.998886	146.120000
248.091736	146.340000
248.184570	146.000000
248.277405	146.220000
248.370239	147.100000
248.463074	147.960000
248.555908	148.280000
248.648743	148.200000
248.741592	148.360000
248.834427	147.780000
248.927261	146.700000
249.020111	146.720000
249.112946	147.320000
249.205795	146.880000
249.298630	146.780000
249.391495	147.060000
249.484344	146.720000
249.577179	146.200000
249.670029	146.620000
249.762878	147.080000
249.855728	147.140000
249.948563	147.340000
250.041412	147.060000
250.134262	147.260000
250.227112	147.200000
250.319962	147.380000
250.412827	147.280000
250.505692	147.160000
250.598541	146.860000
250.691391	146.660000
250.784241	146.540000
250.877106	146.620000
250.969955	146.720000
251.062805	147.340000
251.155670	147.680000
251.248520	147.700000
251.341385	147.880000
251.434235	147.740000
251.527100	146.980000
251.619965	146.620000
251.712814	147.320000
251.805695	147.360000
251.898560	147.840000
251.991425	148.440000
252.084290	148.320000
252.177155	147.280000
252.270020	147.060000
252.362885	146.640000
252.455750	146.500000
252.548615	146.340000
252.641479	146.760000
252.734360	146.580000
252.827240	146.600000
252.920105	146.440000
253.012970	146.480000
253.105850	146.160000
253.198715	145.900000
253.291595	146.100000
253.384460	145.580000
253.477341	145.460000
253.570221	145.860000
253.663086	145.800000
253.755966	146.300000
253.848846	146.580000
253.941727	146.880000
254.034592	146.660000
254.127472	146.400000
254.220367	146.080000
254.313248	146.180000
254.406128	146.080000
254.499008	146.040000
254.591904	146.880000
254.684784	147.540000
254.777664	147.320000
254.870544	147.000000
254.963440	147.060000
255.056335	147.020000
255.149216	146.140000
255.242111	146.700000
255.334991	147.280000
255.427887	147.520000
255.520767	147.660000
255.613663	147.820000
255.706558	147.420000
255.799438	147.280000
255.892334	146.780000
255.985229	146.460000
256.078125	146.440000
256.171021	146.380000
256.263916	146.680000
256.356812	147.000000
256.449707	147.220000
256.542603	147.040000
256.635498	147.720000
256.728394	147.280000
256.821289	147.020000
256.914215	147.200000
257.007080	147.620000
257.100006	147.200000
257.192932	147.860000
257.285828	147.960000
257.378723	147.440000
257.471619	147.160000
257.564545	147.020000
257.657440	146.960000
257.750336	147.500000
257.843262	147.380000
257.936157	148.320000
258.029053	148.560000
258.121979	148.160000
258.214874	147.820000
258.307800	147.700000
258.400696	146.560000
258.493622	146.160000
258.586517	145.520000
258.679443	145.660000
258.772339	145.560000
258.865265	145.260000
258.958160	145.280000
259.051086	146.140000
259.144012	145.900000
259.236938	146.720000
259.329834	147.360000
259.422791	147.200000
259.515717	146.680000
259.608612	146.700000
259.701538	146.440000
259.794464	146.440000
259.887390	146.380000
259.980316	146.320000
260.073212	146.020000
260.166138	144.980000
260.259064	144.920000
260.351990	145.520000
260.444916	145.560000
260.537842	146.040000
260.630768	146.960000
260.723694	146.900000
260.816620	146.560000
260.909546	146.680000
261.002472	146.360000
261.095398	146.080000
261.188354	146.220000
261.281281	146.180000
261.374207	146.080000
261.467133	146.780000
261.560089	146.800000
261.653015	146.440000
261.745972	147.060000
261.838867	147.380000
261.931824	147.400000
262.024780	147.040000
262.117706	147.080000
262.210663	146.960000
262.303589	146.660000
262.396515	146.260000
262.489471	147.500000
262.582397	147.480000
262.675354	146.820000
262.768280	146.920000
262.861237	147.100000
262.954163	146.440000
263.047119	146.520000
263.140045	146.680000
263.233002	146.680000
263.325958	146.740000
263.418884	146.520000
263.511841	146.600000
263.604797	146.680000
263.697723	146.760000
263.790680	146.120000
263.883636	146.580000
263.976593	146.560000
264.069550	146.740000
264.162476	146.420000
264.255463	146.700000
264.348419	146.420000
264.441376	146.740000
264.534332	146.200000
264.627289	146.300000
264.720245	146.860000
264.813202	146.520000
264.906158	146.440000
264.999115	147.120000
265.092072	147.280000
265.185028	147.540000
265.277985	147.920000
265.370941	147.760000
265.463898	147.560000
265.556854	147.400000
265.649811	146.180000
265.742798	146.440000
265.835754	146.620000
265.928711	146.840000
266.021667	146.880000
266.114655	147.300000
266.207611	147.180000
266.300568	146.460000
266.393585	146.040000
266.486511	146.320000
266.579498	145.600000
266.672485	145.640000
266.765442	146.120000
266.858429	146.600000
266.951385	146.120000
267.044342	146.840000
267.137329	146.600000
267.230316	146.740000
267.323273	146.000000
267.416260	146.820000
267.509216	146.840000
267.602203	146.720000
267.695160	147.040000
267.788147	147.220000
267.881134	146.540000
267.974091	146.520000
268.067078	146.460000
268.160065	146.180000
268.253052	146.220000
268.346008	146.640000
268.438995	146.640000
268.531982	146.720000
268.624969	146.600000
268.717987	147.020000
268.810944	146.980000
268.903961	147.180000
268.996948	146.880000
269.089905	147.120000
269.182892	146.980000
269.275879	146.900000
269.368866	146.240000
269.461853	146.920000
269.554871	146.620000
269.647858	146.420000
269.740845	146.800000
269.833832	147.520000
269.926819	147.420000
270.019806	147.520000
270.112793	147.340000
270.205811	147.380000
270.298798	146.820000
270.391785	147.080000
270.484772	146.860000
270.577789	147.260000
270.670776	146.540000
270.763763	146.720000
270.856750	146.460000
270.949768	146.300000
271.042786	146.060000
271.135773	146.440000
271.228790	146.620000
271.321808	146.280000
271.414795	146.080000
271.507782	145.820000
271.600800	145.240000
271.693817	145.580000
271.786804	146.020000
271.879822	146.420000
271.972809	146.480000
272.065826	147.160000
272.158844	146.060000
272.251831	146.520000
272.344849	146.560000
272.437866	146.360000
272.530853	146.160000
272.623871	146.780000
272.716888	145.820000
272.809906	146.100000
272.902893	146.400000
272.995911	145.920000
273.088928	145.880000
273.181946	146.120000
273.274963	145.520000
273.367981	145.320000
273.460999	145.620000
273.554047	145.720000
273.647003	146.060000
273.740051	146.300000
273.833069	146.760000
273.926086	146.780000
274.019135	146.720000
274.112152	146.420000
274.205170	146.660000
274.298187	146.660000
274.391205	146.340000
274.484222	146.480000
274.577240	146.480000
274.670258	146.220000
274.763306	146.280000
274.856323	146.820000
274.949341	146.760000
275.042358	147.240000
275.135406	147.040000
275.228424	147.060000
275.321442	146.880000
275.414490	146.340000
275.507507	146.340000
275.600525	146.980000
275.693573	146.600000
275.786591	146.280000
275.879669	146.800000
275.972656	146.520000
276.065735	145.920000
276.158752	146.700000
276.251801	147.660000
276.344818	147.480000
276.437866	147.480000
276.530884	147.500000
276.623932	146.440000
276.716980	146.240000
276.809998	146.460000
276.903046	146.520000
276.996094	147.540000
277.089111	148.500000
277.182159	148.860000
277.275208	148.460000
277.368256	148.120000
277.461304	147.420000
277.554321	146.500000
277.647369	145.940000
277.740417	146.180000
277.833466	146.240000
277.926514	146.240000
278.019562	147.180000
278.112610	146.900000
278.205688	147.100000
278.298706	147.220000
278.391785	146.940000
278.484833	146.200000
278.577881	145.960000
278.670929	146.380000
278.763977	146.340000
278.857025	146.680000
278.950073	146.740000
279.043121	146.640000
279.136169	146.120000
279.229248	146.100000
279.322296	146.280000
279.415344	146.180000
279.508392	146.160000
279.601440	146.080000
279.694519	145.800000
279.787567	145.480000
279.880615	145.440000
279.973694	145.720000
280.066742	145.940000
280.159790	146.340000
280.252869	146.180000
280.345917	146.500000
280.438995	146.580000
280.532074	146.340000
280.625122	146.300000
280.718201	147.200000
280.811279	146.960000
280.904327	146.780000
280.997406	146.900000
281.090454	146.940000
281.183533	146.080000
281.276581	146.280000
281.369659	146.000000
281.462738	146.160000
281.555786	146.420000
281.648865	146.580000
281.741943	146.260000
281.835022	147.120000
281.928070	146.660000
282.021149	146.440000
282.114227	146.340000
282.207306	146.400000
282.300385	146.360000
282.393433	146.760000
282.486511	146.500000
282.579590	146.900000
282.672668	147.400000
282.765747	147.020000
282.858856	146.620000
282.951904	146.840000
283.045013	146.800000
283.138062	146.900000
283.231171	147.200000
283.324249	147.740000
283.417328	147.860000
283.510406	147.540000
283.603485	147.340000
283.696564	147.240000
283.789642	147.300000
283.882751	147.200000
283.975830	147.580000
284.068909	147.100000
284.161987	147.520000
284.255066	146.540000
284.348175	146.660000
284.441254	146.660000
284.534332	147.360000
284.627441	146.820000
284.720520	147.200000
284.813599	147.040000
284.906708	147.000000
284.999786	146.160000
285.092896	146.080000
285.185974	147.240000
285.279053	146.820000
285.372192	146.680000
285.465240	147.360000
285.558380	146.940000
285.651459	145.900000
285.744568	146.920000
285.837677	146.640000
285.930756	146.620000
286.023865	146.920000
286.116943	147.000000
286.210052	146.940000
286.303162	147.440000
286.396240	147.340000
286.489349	147.180000
286.582458	147.360000
286.675568	146.780000
286.768646	146.580000
286.861755	146.820000
286.954865	147.480000
287.047974	146.920000
287.141083	146.760000
287.234161	146.560000
287.327271	146.340000
287.420380	146.520000
287.513519	146.560000
287.606598	146.740000
287.699738	147.040000
287.792816	147.020000
287.885956	146.840000
287.979034	146.920000
288.072174	147.140000
288.165283	146.820000
288.258392	146.860000
288.351501	146.340000
288.444611	146.880000
288.537720	146.800000
288.630859	146.740000
288.723969	146.700000
288.817078	146.820000
288.910187	146.420000
289.003296	146.160000
289.096436	145.760000
289.189545	145.520000
289.282654	145.040000
289.375763	145.440000
289.468903	145.700000
289.562012	146.100000
289.655121	146.060000
289.748260	146.460000
289.841400	146.640000
289.934509	146.620000
290.027649	146.720000
290.120728	146.560000
290.213898	146.600000
290.306976	146.040000
290.400146	145.880000
290.493256	145.540000
290.586395	145.880000
290.679535	146.520000
290.772644	146.460000
290.865784	145.860000
290.958893	146.000000
291.052032	145.940000
291.145172	145.520000
291.238281	145.520000
291.331421	145.840000
291.424561	146.240000
291.517670	145.980000
291.610809	146.160000
291.703949	146.040000
291.797089	146.160000
291.890228	145.600000
291.983337	145.620000
292.076477	145.160000
292.169617	145.580000
292.262756	145.620000
292.355927	145.760000
292.449036	145.960000
292.542206	146.120000
292.635315	146.120000
292.728485	146.260000
292.821625	146.100000
292.914764	147.120000
293.007904	147.300000
293.101044	147.220000
293.194183	147.040000
293.287323	147.040000
293.380463	146.300000
293.473602	146.220000
293.566742	146.400000
293.659882	146.880000
293.753021	147.340000
293.846191	147.120000
293.939331	146.580000
294.032471	146.520000
294.125610	146.260000
294.218781	146.360000
294.311920	146.600000
294.405060	147.200000
294.498230	146.940000
294.591370	146.840000
294.684540	146.100000
294.777679	145.720000
294.870850	145.760000
294.963959	145.560000
295.057159	145.400000
295.150299	146.020000
295.243469	146.020000
295.336609	145.720000
295.429779	146.340000
295.522919	146.800000
295.616089	146.640000
295.709229	147.260000
295.802399	147.220000
295.895569	146.880000
295.988708	146.660000
296.081879	146.900000
296.175018	146.440000
296.268188	146.760000
296.361359	147.000000
296.454529	147.100000
296.547668	146.900000
296.640839	147.100000
296.734009	146.580000
296.827179	146.560000
296.920319	146.700000
297.013519	146.460000
297.106659	146.520000
297.199860	146.960000
297.292999	146.720000
297.386200	146.760000
297.479309	146.960000
297.572510	146.940000
297.665680	146.460000
297.758850	146.760000
297.852020	146.480000
297.945190	146.280000
298.038361	145.880000
298.131531	147.140000
298.224701	146.920000
298.317871	146.460000
298.411072	146.240000
298.504242	146.260000
298.597412	145.340000
298.690582	145.260000
298.783752	145.540000
298.876923	145.920000
298.970093	145.880000
299.063293	146.320000
299.156464	146.900000
299.249634	147.040000
299.342834	147.020000
299.436005	147.600000
299.529205	147.160000
299.622345	147.000000
299.715576	146.660000
299.808716	146.660000
299.901917	146.440000
299.995117	146.740000
300.088287	146.640000
300.181488	146.700000
300.274658	146.620000
300.367828	146.480000
300.461029	146.100000
300.554199	146.360000
300.647400	146.380000
300.740601	147.180000
300.833771	147.060000
300.926971	147.320000
301.020142	146.720000
301.113342	146.540000
301.206512	145.940000
301.299713	146.460000
301.392914	146.260000
301.486084	146.640000
301.579285	146.940000
301.672516	147.360000
301.765686	146.880000
301.858887	146.980000
301.952057	146.720000
302.045288	146.760000
302.138458	146.560000
302.231659	146.420000
302.324860	146.260000
302.418060	146.100000
302.511261	145.940000
302.604462	146.120000
302.697662	146.120000
302.790863	146.360000
302.884064	145.920000
302.977264	146.000000
303.070465	146.060000
303.163666	146.560000
303.256866	146.760000
303.350067	147.440000
303.443268	147.440000
303.536469	147.300000
303.629669	147.100000
303.722870	147.000000
303.816071	146.700000
303.909271	146.860000
304.002472	146.280000
304.095673	146.080000
304.188934	145.280000
304.282104	145.900000
304.375336	145.880000
304.468506	146.020000
304.561768	145.860000
304.654968	146.780000
304.748169	146.280000
304.841370	146.080000
304.934601	146.700000
305.027802	146.600000
305.121002	145.960000
305.214233	146.100000
305.307434	146.000000
305.400665	145.860000
305.493866	145.960000
305.587097	146.140000
305.680298	145.980000
305.773499	146.540000
305.866730	146.120000
305.959930	146.760000
306.053162	147.180000
306.146393	146.900000
306.239594	146.080000
306.332825	146.300000
306.426025	146.080000
306.519287	145.540000
306.612488	145.800000
306.705719	145.980000
306.798920	145.740000
306.892181	145.160000
306.985352	145.200000
307.078613	144.900000
307.171844	145.100000
307.265045	144.880000
307.358276	144.700000
307.451508	145.140000
307.544739	145.720000
307.637970	145.780000
307.731201	145.860000
307.824402	146.840000
307.917633	147.000000
308.010864	147.300000
308.104095	147.700000
308.197327	148.060000
308.290558	147.880000
308.383789	147.340000
308.477020	146.680000
308.570251	145.820000
308.663483	145.620000
308.756714	145.220000
308.849976	145.300000
308.943176	145.900000
309.036438	145.960000
309.129639	145.500000
309.222900	145.540000
309.316101	145.480000
309.409393	144.800000
309.502625	144.700000
309.595856	145.200000
309.689087	145.300000
309.782318	145.340000
309.875580	145.440000
309.968811	145.840000
310.062042	145.720000
310.155273	145.680000
310.248535	146.420000
310.341766	146.600000
310.434998	146.400000
310.528259	146.300000
310.621490	146.800000
310.714722	145.800000
310.807983	145.820000
310.901215	145.720000
310.994476	145.800000
311.087708	145.380000
311.181000	145.520000
311.274200	145.180000
311.367462	145.300000
311.460693	145.280000
311.553986	145.840000
311.647186	146.320000
311.740479	147.160000
311.833710	146.760000
311.926971	146.780000
312.020203	145.980000
312.113464	145.640000
312.206726	144.940000
312.299957	145.620000
312.393219	146.100000
312.486481	146.220000
312.579712	146.140000
312.672974	146.240000
312.766235	146.000000
312.859497	145.780000
312.952759	145.860000
313.045990	146.880000
313.139252	146.360000
313.232513	146.720000
313.325775	146.540000
313.419037	146.300000
313.512299	145.100000
313.605530	145.900000
313.698822	145.960000
313.792053	146.200000
313.885345	146.420000
313.978577	146.840000
314.071869	146.280000
314.165131	146.400000
314.258392	146.820000
314.351654	146.660000
314.444916	146.160000
314.538177	146.720000
314.631439	146.680000
314.724701	146.400000
314.817993	146.440000
314.911255	146.900000
315.004517	146.400000
315.097778	146.360000
315.191040	146.420000
315.284302	146.580000
315.377594	146.340000
315.470856	146.440000
315.564117	145.920000
315.657379	145.220000
315.750671	144.800000
315.843933	145.160000
315.937195	144.720000
316.030518	144.560000
316.123749	144.680000
316.217041	145.540000
316.310303	145.380000
316.403595	145.980000
316.496857	146.360000
316.590149	146.760000
316.683411	146.000000
316.776703	145.820000
316.869965	145.600000
316.963257	145.480000
317.056519	144.920000
317.149811	145.040000
317.243073	145.480000
317.336365	145.960000
317.429626	146.360000
317.522919	147.100000
317.616180	147.320000
317.709473	146.500000
317.802765	146.000000
317.896027	145.860000
317.989319	145.780000
318.082611	145.380000
318.175873	145.820000
318.269165	146.120000
318.362488	146.160000
318.455750	145.880000
318.549042	146.220000
318.642303	146.580000
318.735626	146.480000
318.828888	146.480000
318.922211	146.200000
319.015472	146.880000
319.108765	146.300000
319.202057	145.960000
319.295349	146.220000
319.388641	146.680000
319.481934	145.940000
319.575226	145.980000
319.668518	146.220000
319.761810	146.140000
319.855103	145.760000
319.948395	146.100000
320.041687	146.360000
320.134979	146.480000
320.228271	145.980000
320.321564	146.100000
320.414856	146.040000
320.508148	145.680000
320.601440	145.600000
320.694763	145.480000
320.788025	145.980000
320.881348	146.040000
320.974640	146.120000
321.067963	145.560000
321.161224	145.760000
321.254547	145.060000
321.347839	145.300000
321.441162	145.120000
321.534454	145.800000
321.627747	145.860000
321.721069	146.660000
321.814362	146.640000
321.907654	146.920000
322.000946	146.720000
322.094269	147.220000
322.187561	146.860000
322.280884	146.880000
322.374176	147.020000
322.467468	147.520000
322.560791	147.320000
322.654083	147.220000
322.747406	147.280000
322.840698	147.320000
322.934021	147.240000
323.027344	147.220000
323.120636	147.360000
323.213959	147.040000
323.307251	146.500000
323.400574	146.040000
323.493866	145.640000
323.587219	145.800000
323.680511	146.280000
323.773834	146.680000
323.867157	146.980000
323.960449	147.300000
324.053772	146.860000
324.147095	146.400000
324.240387	146.680000
324.333710	146.800000
324.427032	146.820000
324.520355	146.920000
324.613647	146.860000
324.706970	146.540000
324.800293	146.220000
324.893616	146.200000
324.986938	146.260000
325.080231	145.860000
325.173553	146.380000
325.266876	146.820000
325.360199	147.000000
325.453522	146.660000
325.546875	146.980000
325.640167	146.840000
325.733521	146.940000
325.826813	147.020000
325.920166	146.920000
326.013489	147.020000
326.106812	146.180000
326.200134	145.620000
326.293457	145.000000
326.386780	145.120000
326.480103	144.760000
326.573425	145.280000
326.666748	145.380000
326.760071	145.780000
326.853424	145.920000
326.946747	146.240000
327.040070	146.620000
327.133392	146.660000
327.226715	146.060000
327.320068	145.720000
327.413391	146.100000
327.506714	145.360000
327.600037	145.320000
327.693390	145.720000
327.786713	146.000000
327.880066	145.560000
327.973358	146.220000
328.066742	146.480000
328.160034	146.600000
328.253418	146.780000
328.346710	146.440000
328.440063	145.620000
328.533417	145.320000
328.626740	145.540000
328.720093	145.420000
328.813416	145.760000
328.906769	146.180000
329.000092	146.480000
329.093445	146.400000
329.186768	146.180000
329.280121	146.620000
329.373444	146.720000
329.466797	146.480000
329.560120	146.400000
329.653473	146.720000
329.746796	146.080000
329.840149	146.060000
329.933502	146.120000
330.026825	145.800000
330.120178	145.440000
330.213562	145.560000
330.306854	145.700000
330.400238	145.540000
330.493561	145.740000
330.586945	146.580000
330.680237	146.820000
330.773621	146.660000
330.866974	146.800000
330.960327	146.960000
331.053680	146.200000
331.147003	146.380000
331.240356	146.680000
331.333710	146.740000
331.427063	146.300000
331.520416	146.740000
331.613770	146.700000
331.707123	146.520000
331.800476	146.500000
331.893829	147.600000
331.987152	147.460000
332.080505	146.940000
332.173859	146.940000
332.267212	146.560000
332.360565	145.920000
332.453918	145.540000
332.547333	145.720000
332.640656	145.760000
332.734039	146.220000
332.827362	146.240000
332.920746	146.900000
333.014069	147.260000
333.107452	147.360000
333.200806	147.340000
333.294159	147.320000
333.387543	146.780000
333.480896	146.360000
333.574249	146.160000
333.667603	145.700000
333.760956	145.620000
333.854340	145.720000
333.947693	145.660000
334.041046	145.620000
334.134430	146.120000
334.227783	145.800000
334.321136	145.880000
334.414520	145.880000
334.507874	146.120000
334.601227	146.140000
334.694611	146.280000
334.787964	146.180000
334.881348	146.560000
334.974701	146.580000
335.068085	146.040000
335.161438	146.300000
335.254822	146.180000
335.348175	146.000000
335.441559	145.880000
335.534943	146.840000
335.628296	146.540000
335.721680	146.700000
335.815033	146.820000
335.908417	147.180000
336.001770	146.740000
336.095154	147.080000
336.188538	146.800000
336.281891	146.480000
336.375275	145.780000
336.468658	145.520000
336.562012	145.280000
336.655396	145.780000
336.748779	146.220000
336.842133	146.600000
336.935516	146.900000
337.028900	146.640000
337.122284	146.220000
337.215637	145.940000
337.309021	145.420000
337.402435	144.920000
337.495789	145.100000
337.589203	145.280000
337.682526	145.380000
337.775940	145.960000
337.869324	146.220000
337.962708	145.940000
338.056091	146.400000
338.149475	145.880000
338.242859	145.780000
338.336243	145.520000
338.429626	145.740000
338.523010	145.620000
338.616394	145.700000
338.709778	146.000000
338.803162	146.380000
338.896545	146.280000
338.989929	145.840000
339.083313	146.000000
339.176697	145.360000
339.270081	145.320000
339.363464	145.600000
339.456848	145.760000
339.550232	145.400000
339.643616	145.500000
339.737030	145.400000
339.830383	145.200000
339.923828	145.400000
340.017181	145.820000
340.110596	145.900000
340.203949	145.820000
340.297363	145.540000
340.390778	145.520000
340.484161	145.480000
340.577545	145.560000
340.670959	145.720000
340.764343	146.060000
340.857727	145.880000
340.951111	145.440000
341.044525	145.860000
341.137909	145.700000
341.231293	145.720000
341.324707	145.520000
341.418091	146.380000
341.511505	146.000000
341.604889	146.200000
341.698303	146.200000
341.791687	146.340000
341.885071	145.940000
341.978485	145.820000
342.071899	145.960000
342.165283	146.180000
342.258698	146.500000
342.352081	146.860000
342.445496	147.520000
342.538879	147.220000
342.632324	146.920000
342.725708	146.640000
342.819122	146.220000
342.912506	145.400000
343.005920	145.560000
343.099335	146.420000
343.192719	146.500000
343.286133	146.380000
343.379547	147.120000
343.472931	147.040000
343.566345	146.240000
343.659760	146.560000
343.753143	146.540000
343.846558	146.180000
343.939972	146.100000
344.033386	146.900000
344.126770	146.580000
344.220184	147.000000
344.313599	147.220000
344.407043	147.200000
344.500427	146.220000
344.593872	146.580000
344.687225	145.900000
344.780670	145.460000
344.874054	145.340000
344.967499	146.100000
345.060913	145.940000
345.154327	146.240000
345.247742	146.300000
345.341156	146.300000
345.434570	145.960000
345.527985	145.880000
345.621399	146.160000
345.714813	146.000000
345.808228	146.360000
345.901642	146.280000
345.995056	145.740000
346.088470	145.820000
346.181885	146.200000
346.275299	145.900000
346.368713	145.720000
346.462128	145.660000
346.555573	145.640000
346.648987	145.540000
346.742401	145.740000
346.835815	146.240000
346.929260	146.520000
347.022644	146.540000
347.116119	146.900000
347.209503	147.060000
347.302948	147.560000
347.396362	148.020000
347.489807	148.240000
347.583221	148.640000
347.676636	148.200000
347.770050	146.940000
347.863495	146.400000
347.956909	146.140000
348.050323	145.280000
348.143768	145.220000
348.237183	145.220000
348.330597	145.900000
348.424042	146.100000
348.517456	146.620000
348.610901	146.920000
348.704315	147.260000
348.797760	146.560000
348.891174	145.920000
348.984619	145.340000
349.078033	145.680000
349.171448	146.220000
349.264923	146.320000
349.358337	146.180000
349.451782	146.500000
349.545197	145.980000
349.638641	145.200000
349.732086	144.880000
349.825500	145.620000
349.918945	145.080000
350.012390	145.360000
350.105804	145.920000
350.199249	146.140000
350.292664	146.540000
350.386108	146.880000
350.479553	147.120000
350.572968	146.960000
350.666412	147.280000
350.759857	146.580000
350.853302	147.100000
350.946716	146.680000
351.040161	146.340000
351.133606	146.280000
351.227081	146.000000
351.320465	145.960000
351.413940	146.380000
351.507355	146.980000
351.600830	146.900000
351.694244	147.280000
351.787720	147.120000
351.881104	146.700000
351.974579	146.520000
352.067993	147.280000
352.161469	146.920000
352.254883	146.460000
352.348358	146.580000
352.441803	146.520000
352.535248	145.960000
352.628693	146.400000
352.722137	146.500000
352.815582	146.460000
352.909027	146.620000
353.002472	146.520000
353.095917	146.420000
353.189362	146.520000
353.282806	146.540000
353.376251	146.500000
353.469696	146.160000
353.563141	146.520000
353.656586	146.540000
353.750061	146.420000
353.843475	146.220000
353.936981	146.900000
354.030396	146.340000
354.123871	146.300000
354.217285	147.160000
354.310760	147.440000
354.404175	147.340000
354.497681	147.220000
354.591095	147.160000
354.684570	145.940000
354.777985	145.540000
354.871490	145.280000
354.964935	145.840000
355.058380	146.000000
355.151855	145.920000
355.245300	146.400000
355.338745	146.780000
355.432220	146.240000
355.525665	145.840000
355.619110	146.860000
355.712585	146.160000
355.806030	145.640000
355.899475	145.800000
355.992950	146.340000
356.086426	146.160000
356.179871	146.440000
356.273346	146.800000
356.366791	147.020000
356.460266	147.100000
356.553711	146.460000
356.647186	146.300000
356.740631	145.940000
356.834106	145.520000
356.927551	145.340000
357.021027	145.680000
357.114471	145.860000
357.207947	145.980000
357.301422	146.520000
357.394867	146.540000
357.488342	146.980000
357.581818	147.200000
357.675262	147.280000
357.768738	147.020000
357.862213	146.460000
357.955658	146.040000
358.049133	145.940000
358.142609	146.560000
358.236053	146.380000
358.329529	146.640000
358.423035	146.940000
358.516449	146.660000
358.609955	146.460000
358.703400	147.340000
358.796906	147.660000
358.890350	147.120000
358.983826	147.440000
359.077271	146.960000
359.170776	146.400000
359.264221	146.180000
359.357727	146.460000
359.451172	146.720000
359.544647	146.840000
359.638123	146.740000
359.731598	146.980000
359.825073	147.360000
359.918549	146.980000
360.012024	146.940000
360.105499	146.660000
360.198975	146.400000
360.292450	145.960000
360.385925	146.040000
360.479401	145.860000
360.572876	146.040000
360.666351	146.700000
360.759857	146.900000
360.853302	146.740000
360.946808	146.360000
361.040253	146.440000
361.133759	145.500000
361.227203	145.540000
361.320709	145.180000
361.414154	145.920000
361.507660	146.320000
361.601105	147.060000
361.694641	147.560000
361.788086	147.720000
361.881592	147.940000
361.975067	147.320000
362.068542	147.580000
362.162018	146.980000
362.255524	146.620000
362.348999	146.220000
362.442474	146.680000
362.535950	145.800000
362.629456	145.760000
362.722931	146.060000
362.816406	146.040000
362.909882	146.120000
363.003387	146.480000
363.096863	146.860000
363.190338	147.000000
363.283875	146.880000
363.377319	146.620000
363.470825	146.880000
363.564301	146.100000
363.657806	146.180000
363.751282	146.020000
363.844788	146.880000
363.938232	146.080000
364.031769	146.760000
364.125214	146.760000
364.218750	147.340000
364.312225	146.080000
364.405731	146.620000
364.499207	146.180000
364.592712	146.220000
364.686188	146.000000
364.779694	146.340000
364.873169	146.160000
364.966675	145.920000
365.060150	145.760000
365.153656	145.920000
365.247131	145.900000
365.340637	146.360000
365.434143	147.060000
365.527618	147.180000
365.621155	146.320000
365.714600	146.220000
365.808136	146.100000
365.901611	145.020000
365.995117	144.680000
366.088593	145.080000
366.182129	144.920000
366.275604	144.720000
366.369110	145.260000
366.462585	145.600000
366.556122	146.360000
366.649567	146.700000
366.743103	146.660000
366.836609	146.840000
366.930115	147.040000
367.023590	146.960000
367.117096	146.860000
367.210602	146.740000
367.304108	147.380000
367.397614	147.800000
367.491119	147.820000
367.584595	147.900000
367.678101	148.400000
367.771606	147.440000
367.865112	146.740000
367.958649	146.100000
368.052124	146.140000
368.145660	145.700000
368.239136	146.400000
368.332672	146.780000
368.426147	146.860000
368.519684	146.600000
368.613159	146.960000
368.706696	146.520000
368.800171	146.480000
368.893707	146.640000
368.987183	146.700000
369.080719	146.780000
369.174225	146.700000
369.267731	146.600000
369.361237	146.580000
369.454742	146.700000
369.548248	146.800000
369.641754	146.640000
369.735260	146.640000
369.828766	145.880000
369.922272	146.420000
370.015808	146.120000
370.109314	146.040000
370.202820	145.720000
370.296356	146.920000
370.389832	146.340000
370.483368	145.840000
370.576874	146.020000
370.670410	146.420000
370.763885	145.620000
370.857422	145.460000
370.950928	145.420000
371.044464	145.780000
371.137939	145.800000
371.231476	146.360000
371.324982	147.260000
371.418518	147.560000
371.512024	147.340000
371.605560	147.240000
371.699066	146.960000
371.792572	145.980000
371.886108	146.380000
371.979614	146.360000
372.073120	146.400000
372.166656	146.520000
372.260162	147.280000
372.353668	146.680000
372.447205	146.540000
372.540710	146.820000
372.634277	146.420000
372.727753	146.240000
372.821320	146.460000
372.914795	146.640000
373.008362	146.220000
373.101837	146.260000
373.195404	145.800000
373.288879	145.720000
373.382446	146.240000
373.475922	146.040000
373.569489	146.820000
373.662964	147.620000
373.756531	147.880000
373.850037	147.700000
373.943573	148.080000
374.037109	146.940000
374.130615	146.860000
374.224152	146.920000
374.317657	146.660000
374.411194	147.260000
374.504730	147.560000
374.598236	147.040000
374.691772	146.980000
374.785309	147.000000
374.878815	146.160000
374.972351	146.640000
375.065887	146.720000
375.159454	147.280000
375.252930	147.260000
375.346497	147.580000
375.440002	147.920000
375.533569	147.620000
375.627045	146.840000
375.720612	146.940000
375.814117	147.000000
375.907684	146.120000
376.001160	146.020000
376.094727	145.740000
376.188232	146.400000
376.281799	146.240000
376.375336	146.420000
376.468872	147.120000
376.562408	147.520000
376.655914	146.760000
376.749451	146.720000
376.842987	146.940000
376.936523	146.760000
377.030060	146.540000
377.123596	146.620000
377.217133	146.300000
377.310669	146.300000
377.404205	146.260000
377.497772	146.860000
377.591278	146.800000
377.684845	147.460000
377.778351	147.860000
377.871918	147.820000
377.965424	147.120000
378.058990	147.020000
378.152496	146.600000
378.246063	146.500000
378.339569	146.840000
378.433136	146.720000
378.526642	146.780000
378.620209	146.760000
378.713745	146.340000
378.807312	146.460000
378.900848	146.620000
378.994385	146.940000
379.087921	146.540000
379.181458	147.000000
379.274994	146.120000
379.368530	145.960000
379.462097	145.880000
379.555634	146.440000
379.649170	145.780000
379.742706	145.920000
379.836273	146.300000
379.929810	145.900000
380.023376	145.480000
380.116882	145.660000
380.210449	145.680000
380.303986	145.440000
380.397552	145.300000
380.491058	145.640000
380.584656	145.340000
380.678162	145.420000
380.771729	145.360000
380.865265	146.380000
380.958832	146.640000
381.052368	147.100000
381.145935	147.420000
381.239471	147.740000
381.333008	147.200000
381.426575	146.900000
381.520111	147.380000
381.613647	147.640000
381.707214	147.600000
381.800751	147.040000
381.894318	147.180000
381.987854	146.260000
382.081421	145.780000
382.174988	145.940000
382.268524	146.100000
382.362091	146.260000
382.455627	147.360000
382.549194	146.940000
382.642731	146.520000
382.736298	146.220000
382.829834	145.820000
382.923401	145.920000
383.016937	146.260000
383.110504	146.820000
383.204041	147.260000
383.297607	147.980000
383.391174	147.160000
383.484741	147.960000
383.578278	147.300000
383.671844	146.860000
383.765411	146.020000
383.858948	146.320000
383.952515	145.860000
384.046051	146.320000
384.139618	147.040000
384.233185	147.240000
384.326721	147.100000
384.420288	147.560000
384.513855	147.500000
384.607422	147.480000
384.700989	147.940000
384.794525	147.500000
384.888123	147.080000
384.981659	147.140000
385.075226	146.800000
385.168762	145.880000
385.262360	146.000000
385.355896	145.120000
385.449463	145.120000
385.542999	145.000000
385.636597	146.240000
385.730164	146.520000
385.823730	146.720000
385.917267	146.360000
386.010834	146.840000
386.104401	146.420000
386.197968	146.920000
386.291534	147.520000
386.385101	147.760000
386.478668	147.900000
386.572235	147.660000
386.665802	146.820000
386.759338	146.360000
386.852905	146.060000
386.946472	145.460000
387.040070	145.620000
387.133606	145.880000
387.227203	145.760000
387.320740	146.160000
387.414337	146.140000
387.507874	145.960000
387.601471	146.020000
387.695007	146.220000
387.788605	145.580000
387.882141	145.560000
387.975739	145.640000
388.069275	145.480000
388.162872	145.940000
388.256439	146.020000
388.350037	146.020000
388.443604	145.660000
388.537170	145.640000
388.630737	145.800000
388.724304	146.520000
388.817871	146.540000
388.911438	146.720000
389.005005	147.160000
389.098602	147.240000
389.192169	146.660000
389.285736	147.280000
389.379333	147.160000
389.472870	146.700000
389.566467	146.400000
389.660034	146.560000
389.753632	145.840000
389.847168	146.280000
389.940765	146.620000
390.034332	146.420000
390.127930	146.160000
390.221466	146.120000
390.315063	145.540000
390.408630	144.580000
390.502228	144.100000
390.595795	144.660000
390.689362	144.880000
390.782959	145.440000
390.876526	146.320000
390.970093	146.580000
391.063690	146.720000
391.157257	146.780000
391.250824	146.860000
391.344421	146.560000
391.437988	146.800000
391.531555	146.600000
391.625153	147.040000
391.718750	147.060000
391.812317	146.600000
391.905914	146.360000
391.999481	146.620000
392.093079	146.120000
392.186615	146.400000
392.280243	147.000000
392.373779	147.200000
392.467407	147.320000
392.560944	147.260000
392.654572	146.860000
392.748108	146.980000
392.841736	147.280000
392.935303	146.740000
393.028900	146.800000
393.122467	146.660000
393.216064	146.160000
393.309631	145.520000
393.403229	144.960000
393.496796	145.100000
393.590393	144.500000
393.683990	145.080000
393.777557	145.640000
393.871155	146.240000
393.964722	146.460000
394.058350	147.020000
394.151917	146.720000
394.245514	146.060000
394.339081	146.680000
394.432678	146.700000
394.526245	146.580000
394.619873	146.180000
394.713409	146.480000
394.807037	145.900000
394.900604	146.020000
394.994202	145.900000
395.087769	146.520000
395.181396	146.200000
395.274994	146.880000
395.368561	146.100000
395.462158	146.680000
395.555756	145.960000
395.649353	146.500000
395.742920	145.920000
395.836517	146.780000
395.930115	145.760000
396.023712	146.360000
396.117279	146.700000
396.210876	146.380000
396.304474	146.300000
396.398071	146.920000
396.491669	146.980000
396.585266	146.540000
396.678833	146.660000
396.772461	146.720000
396.866028	146.820000
396.959656	147.200000
397.053223	147.480000
397.146851	147.600000
397.240417	147.940000
397.334015	149.060000
397.427582	149.300000
397.521210	150.600000
397.614807	152.640000
397.708405	154.920000
397.802002	157.540000
397.895599	162.240000
397.989197	167.160000
398.082794	173.280000
398.176392	181.220000
398.269989	190.680000
398.363586	201.980000
398.457184	216.120000
398.550781	232.460000
398.644379	248.560000
398.737976	266.720000
398.831573	285.640000
398.925201	305.220000
399.018768	325.580000
399.112396	349.600000
399.205963	375.940000
399.299591	404.820000
399.393158	436.200000
399.486786	470.040000
399.580353	502.180000
399.673981	531.180000
399.767578	558.760000
399.861206	580.820000
399.954773	595.780000
400.048401	602.520000
400.141998	602.220000
400.235596	593.520000
400.329193	578.620000
400.422791	558.900000
400.516418	538.620000
400.610016	518.220000
400.703613	496.940000
400.797211	473.080000
400.890808	449.180000
400.984436	423.440000
401.078033	395.680000
401.171631	367.440000
401.265259	340.620000
401.358826	314.760000
401.452484	290.040000
401.546051	267.880000
401.639679	246.000000
401.733246	227.900000
401.826904	210.680000
401.920471	196.620000
402.014099	184.560000
402.107697	175.980000
402.201324	168.600000
402.294891	164.040000
402.388550	160.160000
402.482147	157.280000
402.575745	154.400000
402.669373	152.020000
402.762970	150.240000
402.856567	149.300000
402.950195	148.740000
403.043793	148.360000
403.137390	148.760000
403.231018	147.620000
403.324615	147.860000
403.418243	147.320000
403.511841	147.440000
403.605469	147.100000
403.699066	147.760000
403.792694	147.320000
403.886292	147.180000
403.979919	146.920000
404.073517	146.740000
404.167145	146.880000
404.260712	146.900000
404.354370	146.780000
404.447937	147.160000
404.541595	147.100000
404.635162	147.380000
404.728821	147.820000
404.822418	147.640000
404.916046	147.220000
405.009644	147.420000
405.103271	147.340000
405.196899	146.940000
405.290497	147.280000
405.384125	147.740000
405.477722	147.000000
405.571350	146.320000
405.664948	146.380000
405.758575	146.380000
405.852203	145.760000
405.945801	146.020000
406.039429	146.180000
406.133057	145.920000
406.226654	145.560000
406.320312	145.700000
406.413879	146.100000
406.507538	146.360000
406.601135	146.060000
406.694763	146.740000
406.788361	146.520000
406.882019	146.180000
406.975586	146.180000
407.069244	146.840000
407.162872	146.620000
407.256470	146.720000
407.350098	146.680000
407.443726	146.320000
407.537323	145.980000
407.630951	146.000000
407.724579	145.900000
407.818207	146.360000
407.911804	146.520000
408.005432	146.360000
408.099060	146.620000
408.192688	146.880000
408.286285	146.460000
408.379913	146.180000
408.473572	146.420000
408.567169	145.700000
408.660828	145.760000
408.754395	145.720000
408.848053	145.800000
408.941650	145.900000
409.035309	145.660000
409.128906	145.280000
409.222565	145.320000
409.316132	145.660000
409.409790	145.400000
409.503387	145.680000
409.597046	146.040000
409.690674	146.100000
409.784302	146.060000
409.877930	145.900000
409.971558	146.180000
410.065186	145.940000
410.158783	146.020000
410.252411	145.700000
410.346039	146.080000
410.439667	145.940000
410.533295	146.260000
410.626923	146.500000
410.720551	146.340000
410.814209	146.880000
410.907806	147.040000
411.001465	146.400000
411.095062	146.380000
411.188721	146.780000
411.282318	145.960000
411.375977	145.660000
411.469574	146.240000
411.563232	145.820000
411.656830	145.600000
411.750488	145.660000
411.844086	145.760000
411.937744	145.700000
412.031372	145.700000
412.125000	145.560000
412.218628	145.820000
412.312256	146.660000
412.405884	146.940000
412.499512	146.700000
412.593170	146.860000
412.686798	146.740000
412.780426	145.720000
412.874054	145.880000
412.967682	145.940000
413.061310	146.580000
413.154968	146.760000
413.248566	146.880000
413.342224	146.360000
413.435852	146.700000
413.529510	146.060000
413.623108	145.500000
413.716766	145.580000
413.810364	145.960000
413.904022	145.460000
413.997650	145.220000
414.091309	146.320000
414.184906	146.160000
414.278564	145.860000
414.372192	146.640000
414.465851	147.080000
414.559479	146.360000
414.653107	147.260000
414.746735	147.040000
414.840393	146.880000
414.934021	147.100000
415.027649	146.700000
415.121277	146.460000
415.214935	147.020000
415.308563	147.000000
415.402191	146.500000
415.495850	146.600000
415.589478	146.500000
415.683136	146.180000
415.776733	146.080000
415.870422	146.660000
415.964020	146.440000
416.057678	146.360000
416.151306	146.260000
416.244965	146.300000
416.338562	146.120000
416.432251	147.140000
416.525848	147.520000
416.619507	147.740000
416.713165	148.100000
416.806793	147.860000
416.900421	147.620000
416.994080	146.640000
417.087708	146.360000
417.181366	146.080000
417.274994	146.180000
417.368622	146.280000
417.462280	147.120000
417.555908	147.020000
417.649567	146.900000
417.743195	146.820000
417.836853	146.520000
417.930481	146.500000
418.024170	146.960000
418.117767	147.420000
418.211426	147.780000
418.305054	147.940000
418.398712	147.180000
418.492340	147.300000
418.585999	147.240000
418.679626	147.260000
418.773285	147.400000
418.866913	148.260000
418.960571	148.280000
419.054230	148.340000
419.147858	148.240000
419.241516	148.400000
419.335144	147.760000
419.428802	147.780000
419.522461	147.340000
419.616089	146.880000
419.709747	146.520000
419.803375	146.800000
419.897034	146.440000
419.990662	146.320000
420.084320	146.720000
420.177979	146.700000
420.271606	146.760000
420.365295	147.200000
420.458893	147.560000
420.552582	147.820000
420.646210	147.940000
420.739868	147.880000
420.833496	147.580000
420.927155	147.100000
421.020782	146.640000
421.114471	146.340000
421.208069	146.380000
421.301758	146.720000
421.395386	147.140000
421.489044	146.920000
421.582703	146.880000
421.676361	146.980000
421.769989	146.600000
421.863647	147.060000
421.957306	147.460000
422.050934	147.740000
422.144592	147.520000
422.238251	147.180000
422.331909	146.560000
422.425537	146.480000
422.519196	146.400000
422.612854	146.220000
422.706543	145.960000
422.800140	146.180000
422.893829	145.960000
422.987457	145.520000
423.081146	145.700000
423.174744	146.600000
423.268433	146.100000
423.362061	145.980000
423.455750	145.920000
423.549347	145.880000
423.643036	145.020000
423.736664	145.780000
423.830353	146.020000
423.924011	147.060000
424.017639	146.640000
424.111298	146.900000
424.204956	146.720000
424.298615	146.620000
424.392273	146.000000
424.485931	146.120000
424.579559	146.360000
424.673218	146.200000
424.766876	146.320000
424.860535	146.060000
424.954193	146.100000
425.047882	146.300000
425.141510	146.380000
425.235199	146.400000
425.328796	146.520000
425.422485	146.540000
425.516113	145.960000
425.609802	145.780000
425.703430	145.860000
425.797119	145.540000
425.890747	145.760000
425.984436	145.980000
426.078064	146.020000
426.171753	146.160000
426.265411	146.000000
426.359070	146.340000
426.452728	146.480000
426.546356	146.260000
426.640015	146.080000
426.733673	146.320000
426.827332	145.760000
426.920990	146.280000
427.014648	146.220000
427.108307	146.300000
427.201965	147.040000
427.295624	147.380000
427.389282	146.460000
427.482941	146.580000
427.576630	146.320000
427.670258	145.520000
427.763947	145.360000
427.857574	145.740000
427.951263	145.760000
428.044922	145.600000
428.138611	145.760000
428.232239	146.160000
428.325928	146.480000
428.419556	147.160000
428.513245	147.040000
428.606903	147.360000
428.700562	146.560000
428.794220	145.800000
428.887878	144.940000
428.981537	145.660000
429.075195	145.360000
429.168854	146.060000
429.262512	146.480000
429.356201	146.840000
429.449860	146.740000
429.543518	146.720000
429.637177	146.720000
429.730835	146.600000
429.824493	146.280000
429.918182	146.120000
430.011810	146.000000
430.105530	145.320000
430.199158	145.620000
430.292847	145.720000
430.386475	145.700000
430.480164	145.820000
430.573792	145.760000
430.667511	145.600000
430.761139	145.580000
430.854828	146.000000
430.948456	146.020000
431.042145	146.780000
431.135834	146.520000
431.229492	146.860000
431.323151	146.520000
431.416809	146.380000
431.510468	146.060000
431.604156	146.120000
431.697815	146.140000
431.791473	145.560000
431.885132	145.400000
431.978821	145.820000
432.072479	145.960000
432.166138	146.280000
432.259827	146.300000
432.353485	146.640000
432.447174	146.480000
432.540802	146.340000
432.634491	145.900000
432.728149	146.560000
432.821838	146.860000
432.915466	146.280000
433.009186	146.240000
433.102814	146.020000
433.196503	145.600000
433.290131	145.420000
433.383850	146.000000
433.477509	146.220000
433.571167	146.960000
433.664856	147.500000
433.758514	148.060000
433.852173	147.880000
433.945862	147.800000
434.039520	147.220000
434.133179	146.500000
434.226868	145.820000
434.320526	145.420000
434.414185	146.120000
434.507874	145.820000
434.601562	146.540000
434.695221	146.380000
434.788910	146.800000
434.882538	146.500000
434.976257	146.420000
435.069885	146.160000
435.163574	146.580000
435.257233	146.020000
435.350922	145.680000
435.444580	145.580000
435.538269	145.400000
435.631897	145.720000
435.725616	146.380000
435.819275	146.860000
435.912964	147.680000
436.006622	148.100000
436.100311	147.840000
436.193970	147.020000
436.287628	146.600000
436.381317	146.260000
436.474976	145.680000
436.568665	145.260000
436.662323	145.880000
436.756012	145.820000
436.849670	145.700000
436.943390	145.680000
437.037018	145.540000
437.130737	145.420000
437.224365	145.280000
437.318085	145.200000
437.411713	145.600000
437.505432	146.140000
437.599060	146.440000
437.692780	147.300000
437.786407	147.560000
437.880127	147.520000
437.973755	147.240000
438.067474	146.720000
438.161133	146.180000
438.254822	146.380000
438.348480	146.140000
438.442169	146.640000
438.535828	147.260000
438.629517	147.260000
438.723175	146.720000
438.816864	147.160000
438.910553	146.700000
439.004211	146.320000
439.097900	145.820000
439.191559	146.000000
439.285248	145.360000
439.378906	145.520000
439.472626	145.220000
439.566284	145.400000
439.659973	145.580000
439.753632	145.860000
439.847321	146.100000
439.940979	146.660000
440.034698	146.820000
440.128326	146.460000
440.222046	146.320000
440.315674	145.620000
440.409393	145.520000
440.503082	145.380000
440.596741	145.600000
440.690430	145.800000
440.784088	145.900000
440.877777	145.340000
440.971466	145.380000
441.065125	145.240000
441.158813	144.820000
441.252502	144.960000
441.346161	145.480000
441.439850	145.640000
441.533539	145.460000
441.627197	145.940000
441.720886	145.940000
441.814606	146.380000
441.908234	146.760000
442.001953	146.820000
442.095612	146.960000
442.189301	147.100000
442.282959	146.860000
442.376678	146.060000
442.470306	146.740000
442.564026	146.380000
442.657684	146.640000
442.751404	146.360000
442.845032	147.300000
442.938751	146.540000
443.032440	146.880000
443.126099	146.300000
443.219788	146.740000
443.313477	146.220000
443.407166	146.820000
443.500824	146.760000
443.594513	147.200000
443.688202	146.720000
443.781891	146.360000
443.875549	145.880000
443.969238	145.760000
444.062927	145.700000
444.156647	145.720000
444.250275	146.460000
444.343994	146.700000
444.437653	146.800000
444.531372	146.560000
444.625031	146.600000
444.718719	146.040000
444.812378	146.140000
444.906097	146.040000
444.999756	145.820000
445.093445	145.780000
445.187103	145.920000
445.280823	146.380000
445.374512	145.860000
445.468201	146.140000
445.561859	146.320000
445.655548	146.160000
445.749237	145.440000
445.842926	146.060000
445.936615	146.420000
446.030304	146.160000
446.123962	146.660000
446.217651	146.500000
446.311340	146.540000
446.405029	146.100000
446.498749	145.920000
446.592407	145.240000
446.686096	145.460000
446.779755	145.320000
446.873474	145.560000
446.967133	145.680000
447.060852	145.580000
447.154510	145.720000
447.248230	146.080000
447.341858	146.020000
447.435577	145.880000
447.529236	145.960000
447.622955	145.620000
447.716644	145.260000
447.810333	145.600000
447.904022	146.300000
447.997711	146.420000
448.091400	147.080000
448.185059	147.100000
448.278748	147.020000
448.372437	146.420000
448.466125	146.660000
448.559814	146.180000
448.653503	146.420000
448.747192	146.480000
448.840912	147.240000
448.934570	147.180000
449.028290	147.720000
449.121948	147.480000
449.215637	147.020000
449.309296	146.220000
449.403015	146.500000
449.496674	146.180000
449.590393	146.080000
449.684052	146.140000
449.777771	147.240000
449.871429	146.340000
449.965149	146.340000
450.058838	146.520000
450.152527	146.820000
450.246216	146.520000
450.339905	147.020000
450.433594	146.860000
450.527283	147.360000
450.620972	147.000000
450.714661	146.780000
450.808350	147.100000
450.902039	147.340000
450.995728	146.860000
451.089417	146.960000
451.183105	146.620000
451.276794	146.660000
451.370514	145.940000
451.464172	145.280000
451.557892	145.120000
451.651550	145.440000
451.745270	145.140000
451.838928	145.260000
451.932648	146.000000
452.026306	146.300000
452.120026	145.920000
452.213684	146.200000
452.307404	146.360000
452.401062	146.360000
452.494781	146.520000
452.588470	146.340000
452.682159	145.800000
452.775848	146.240000
452.869537	145.820000
452.963226	145.400000
453.056915	145.780000
453.150604	146.240000
453.244293	146.160000
453.337982	146.960000
453.431671	147.500000
453.525360	147.880000
453.619049	147.700000
453.712769	147.440000
453.806427	146.500000
453.900146	145.880000
453.993805	145.440000
454.087555	145.840000
454.181213	146.060000
454.274933	146.180000
454.368591	146.300000
454.462311	146.060000
454.555969	145.680000
454.649689	146.240000
454.743347	146.360000
454.837067	147.200000
454.930756	147.940000
455.024445	148.080000
455.118134	147.180000
455.211853	147.080000
455.305542	146.400000
455.399231	146.100000
455.492920	145.800000
455.586609	146.200000
455.680298	146.840000
455.773987	146.880000
455.867676	146.860000
455.961365	147.120000
456.055084	146.920000
456.148773	146.400000
456.242493	146.400000
456.336151	146.480000
456.429871	146.940000
456.523529	147.520000
456.617249	147.340000
456.710907	148.000000
456.804626	147.660000
456.898315	146.960000
456.992035	146.520000
457.085693	146.600000
457.179413	145.360000
457.273102	146.140000
457.366791	146.120000
457.460480	146.320000
457.554199	146.940000
457.647888	147.280000
457.741577	146.760000
457.835266	146.860000
457.928955	147.040000
458.022644	146.980000
458.116364	147.420000
458.210052	147.320000
458.303741	147.500000
458.397461	146.800000
458.491119	146.200000
458.584839	145.940000
458.678528	145.920000
458.772247	145.500000
458.865906	145.680000
458.959625	146.420000
459.053284	146.500000
459.147003	146.080000
459.240692	147.080000
459.334412	147.240000
459.428070	146.900000
459.521790	146.660000
459.615479	146.920000
459.709198	146.740000
459.802887	146.400000
459.896576	145.840000
459.990265	146.040000
460.083954	146.120000
460.177673	145.720000
460.271362	145.800000
460.365051	146.080000
460.458740	145.820000
460.552429	145.560000
460.646149	145.520000
460.739838	145.420000
460.833527	145.640000
460.927246	145.520000
461.020905	145.540000
461.114655	145.620000
461.208313	145.920000
461.302032	145.700000
461.395691	146.040000
461.489441	146.380000
461.583099	146.260000
461.676819	146.000000
461.770477	146.280000
461.864197	146.040000
461.957916	145.800000
462.051605	145.320000
462.145294	146.220000
462.238983	146.100000
462.332703	146.600000
462.426392	146.980000
462.520081	147.500000
462.613770	146.640000
462.707489	146.740000
462.801178	146.280000
462.894867	146.120000
462.988556	146.020000
463.082275	146.240000
463.175964	145.860000
463.269684	146.440000
463.363342	146.180000
463.457092	145.820000
463.550751	146.040000
463.644470	146.280000
463.738129	145.800000
463.831879	146.340000
463.925537	147.260000
464.019257	147.000000
464.112946	146.980000
464.206665	146.960000
464.300323	146.660000
464.394043	145.980000
464.487762	145.960000
464.581451	146.240000
464.675140	146.140000
464.768829	146.260000
464.862549	146.420000
464.956238	146.740000
465.049927	146.560000
465.143646	147.080000
465.237335	146.620000
465.331024	147.260000
465.424713	147.180000
465.518433	147.280000
465.612152	146.500000
465.705811	146.940000
465.799561	146.520000
465.893219	146.120000
465.986938	145.800000
466.080597	146.140000
466.174347	146.220000
466.268005	146.160000
466.361725	146.180000
466.455414	146.260000
466.549133	145.920000
466.642792	146.180000
466.736542	145.620000
466.830231	145.800000
466.923920	145.640000
467.017609	145.980000
467.111328	145.420000
467.205017	145.860000
467.298706	145.780000
467.392426	146.060000
467.486115	146.120000
467.579803	145.580000
467.673523	145.940000
467.767212	146.100000
467.860901	146.000000
467.954651	146.240000
468.048309	146.900000
468.142029	146.380000
468.235718	146.500000
468.329437	146.440000
468.423096	145.920000
468.516846	145.480000
468.610504	145.420000
468.704224	144.840000
468.797913	144.820000
468.891632	145.480000
468.985291	145.780000
469.079010	145.920000
469.172729	145.700000
469.266418	146.380000
469.360107	146.220000
469.453827	146.000000
469.547516	146.360000
469.641205	147.060000
469.734924	146.880000
469.828613	147.020000
469.922302	147.640000
470.016022	147.360000
470.109711	147.100000
470.203430	146.180000
470.297150	145.500000
470.390808	145.300000
470.484558	145.140000
470.578217	145.900000
470.671936	146.540000
470.765625	147.320000
470.859344	146.960000
470.953003	147.080000
471.046753	146.360000
471.140411	145.880000
471.234131	145.820000
471.327820	146.720000
471.421539	146.820000
471.515228	146.640000
471.608948	146.960000
471.702637	146.500000
471.796326	145.660000
471.890045	145.940000
471.983734	146.140000
472.077423	145.760000
472.171143	146.000000
472.264832	146.320000
472.358521	145.940000
472.452240	145.820000
472.545929	146.920000
472.639648	146.960000
472.733337	147.320000
472.827057	147.420000
472.920746	147.640000
473.014465	147.400000
473.108124	147.240000
473.201874	146.900000
473.295532	146.860000
473.389252	147.120000
473.482941	146.980000
473.576660	146.540000
473.670319	146.440000
473.764069	146.400000
473.857727	146.180000
473.951477	146.120000
474.045166	147.080000
474.138855	147.000000
474.232574	146.980000
474.326263	147.080000
474.419952	147.380000
474.513672	146.940000
474.607361	146.740000
474.701050	147.140000
474.794769	147.360000
474.888458	147.180000
474.982178	147.420000
475.075867	147.700000
475.169586	147.400000
475.263275	147.140000
475.356995	147.100000
475.450653	146.520000
475.544403	146.320000
475.638062	147.140000
475.731812	146.860000
475.825470	146.580000
475.919189	147.120000
476.012878	147.160000
476.106598	146.020000
476.200256	146.260000
476.294006	146.400000
476.387695	146.280000
476.481384	146.360000
476.575104	146.580000
476.668793	146.400000
476.762512	146.300000
476.856201	146.740000
476.949890	146.460000
477.043610	145.800000
477.137299	145.880000
477.230988	146.180000
477.324707	145.340000
477.418396	145.960000
477.512146	146.760000
477.605804	146.560000
477.699524	146.420000
477.793213	146.720000
477.886932	146.440000
477.980591	145.860000
478.074341	145.940000
478.167999	145.460000
478.261749	145.480000
478.355408	145.260000
478.449127	145.880000
478.542816	146.720000
478.636536	147.640000
478.730225	147.820000
478.823944	148.480000
478.917633	148.560000
479.011322	148.260000
479.105042	147.660000
479.198730	148.000000
479.292450	147.380000
479.386139	147.320000
479.479828	147.200000
479.573547	147.400000
479.667267	146.900000
479.760925	147.240000
479.854675	147.420000
479.948334	147.520000
480.042084	147.060000
480.135742	147.400000
480.229462	147.020000
480.323151	146.760000
480.416870	146.120000
480.510529	146.360000
480.604279	145.800000
480.697937	146.140000
480.791656	145.740000
480.885345	145.700000
480.979065	145.780000
481.072754	146.460000
481.166473	146.820000
481.260132	147.040000
481.353882	147.280000
481.447540	147.140000
481.541260	146.740000
481.635010	145.940000
481.728668	146.020000
481.822388	146.160000
481.916077	146.020000
482.009796	146.120000
482.103485	146.620000
482.197205	146.500000
482.290863	146.600000
482.384613	146.720000
482.478271	146.320000
482.571991	146.360000
482.665680	146.260000
482.759399	147.020000
482.853058	147.500000
482.946808	147.520000
483.040466	147.380000
483.134216	147.400000
483.227875	146.360000
483.321594	146.420000
483.415283	146.520000
483.509003	146.280000
483.602661	145.980000
483.696411	146.300000
483.790070	145.940000
483.883789	145.800000
483.977478	146.100000
484.071198	146.440000
484.164917	145.940000
484.258606	145.760000
484.352325	146.120000
484.445984	146.020000
484.539734	146.080000
484.633392	145.800000
484.727142	146.300000
484.820801	146.340000
484.914520	146.240000
485.008209	146.500000
485.101929	147.360000
485.195587	147.020000
485.289337	146.560000
485.382996	146.600000
485.476715	146.440000
485.570404	146.600000
485.664124	146.360000
485.757782	146.980000
485.851532	146.580000
485.945190	146.660000
486.038910	146.340000
486.132599	146.800000
486.226318	146.140000
486.319977	146.300000
486.413727	146.560000
486.507446	146.140000
486.601105	145.540000
486.694855	145.760000
486.788513	145.820000
486.882233	145.360000
486.975922	145.840000
487.069641	146.020000
487.163300	146.140000
487.257050	147.060000
487.350708	146.860000
487.444427	146.500000
487.538116	146.600000
487.631836	146.580000
487.725494	146.200000
487.819214	146.660000
487.912903	146.760000
488.006622	147.140000
488.100281	147.060000
488.194031	147.080000
488.287689	147.320000
488.381409	148.000000
488.475098	147.720000
488.568817	147.880000
488.662476	147.200000
488.756226	146.640000
488.849945	145.200000
488.943604	145.480000
489.037354	145.700000
489.131012	145.840000
489.224731	145.740000
489.318390	146.760000
489.412140	146.700000
489.505798	146.440000
489.599518	146.300000
489.693207	146.660000
489.786926	146.300000
489.880585	145.840000
489.974335	145.980000
490.067993	147.200000
490.161713	147.340000
490.255371	147.940000
490.349121	148.060000
490.442780	147.860000
490.536499	146.760000
490.630188	146.540000
490.723907	146.060000
490.817566	145.920000
490.911285	145.820000
491.004974	145.520000
491.098694	145.160000
491.192413	145.720000
491.286102	145.720000
491.379822	145.960000
491.473480	146.540000
491.567200	146.780000
491.660889	145.920000
491.754608	146.140000
491.848267	145.900000
491.941986	145.680000
492.035675	145.700000
492.129395	146.320000
492.223053	146.240000
492.316772	146.600000
492.410461	146.620000
492.504181	146.700000
492.597839	146.400000
492.691559	146.620000
492.785248	146.540000
492.878967	146.620000
492.972626	146.180000
493.066345	146.240000
493.160034	145.440000
493.253754	145.340000
493.347412	145.100000
493.441132	145.500000
493.534882	145.860000
493.628540	146.480000
493.722260	146.600000
493.815918	146.940000
493.909668	147.740000
494.003326	147.900000
494.097046	147.880000
494.190704	147.600000
494.284454	147.760000
494.378113	147.280000
494.471832	146.780000
494.565491	146.600000
494.659210	146.580000
494.752899	146.300000
494.846619	145.720000
494.940277	146.140000
495.033997	145.940000
495.127686	145.720000
495.221405	145.800000
495.315063	146.160000
495.408783	145.840000
495.502441	146.240000
495.596191	146.560000
495.689850	146.140000
495.783569	146.520000
495.877228	146.700000
495.970947	146.140000
496.064697	146.180000
496.158356	147.180000
496.252075	146.860000
496.345734	146.580000
496.439453	147.740000
496.533142	147.840000
496.626862	147.760000
496.720520	147.800000
496.814240	147.780000
496.907898	147.240000
497.001617	147.240000
497.095306	146.380000
497.189026	146.240000
497.282684	146.480000
497.376404	146.840000
497.470062	146.320000
497.563782	146.500000
497.657471	146.200000
497.751190	145.820000
497.844849	145.440000
497.938568	146.200000
498.032227	146.340000
498.125946	146.820000
498.219635	146.760000
498.313354	146.900000
498.407074	146.360000
498.500732	146.440000
498.594452	146.640000
498.688110	146.520000
498.781830	146.060000
498.875519	146.240000
498.969238	145.960000
499.062897	145.240000
499.156616	146.000000
499.250275	146.220000
499.343994	145.580000
499.437653	145.880000
499.531372	146.200000
499.625061	146.320000
499.718781	146.620000
499.812439	147.500000
499.906158	147.200000
499.999817	147.220000
500.093536	146.680000
500.187195	146.700000
500.280914	146.400000
500.374573	146.680000
500.468323	146.340000
500.561981	146.600000
500.655701	146.100000
500.749420	145.900000
500.843079	146.120000
500.936798	146.340000
501.030457	146.540000
501.124176	146.880000
501.217834	147.100000
501.311554	146.900000
501.405212	147.120000
501.498962	146.520000
501.592621	146.440000
501.686340	146.820000
501.779999	146.720000
501.873718	146.660000
501.967377	146.880000
502.061096	146.820000
502.154755	146.160000
502.248474	146.160000
502.342133	146.400000
502.435852	146.260000
502.529510	147.280000
502.623230	148.080000
502.716888	147.720000
502.810608	147.460000
502.904266	148.020000
502.997986	147.100000
503.091705	146.380000
503.185364	146.580000
503.279083	146.820000
503.372772	146.600000
503.466492	146.240000
503.560150	146.220000
503.653870	146.560000
503.747528	146.500000
503.841248	146.440000
503.934906	147.080000
504.028625	147.080000
504.122284	147.000000
504.216003	147.400000
504.309662	146.820000
504.403381	146.720000
504.497040	146.720000
504.590759	146.520000
504.684418	146.300000
504.778137	146.740000
504.871796	146.860000
504.965515	146.760000
505.059174	147.100000
505.152893	146.500000
505.246521	146.060000
505.340240	145.660000
505.433899	145.820000
505.527618	146.060000
505.621338	146.520000
505.714996	146.780000
505.808716	146.980000
505.902374	147.640000
505.996094	147.460000
506.089752	147.140000
506.183472	147.280000
506.277130	147.200000
506.370850	146.840000
506.464508	146.480000
506.558228	146.560000
506.651886	146.160000
506.745605	146.460000
506.839264	146.420000
506.932983	146.460000
507.026611	146.460000
507.120331	147.140000
507.213989	146.400000
507.307709	146.580000
507.401367	146.620000
507.495087	147.460000
507.588745	146.760000
507.682465	147.740000
507.776123	147.240000
507.869843	147.240000
507.963531	146.740000
508.057190	147.320000
508.150909	146.420000
508.244568	146.860000
508.338287	146.700000
508.431946	146.360000
508.525665	145.900000
508.619324	145.740000
508.713013	145.920000
508.806671	146.520000
508.900391	147.320000
508.994049	147.640000
509.087769	147.900000
509.181427	147.600000
509.275146	146.920000
509.368774	146.040000
509.462494	146.020000
509.556152	145.960000
509.649872	146.320000
509.743530	146.600000
509.837250	146.940000
509.930878	147.040000
510.024597	147.100000
510.118256	146.700000
510.211975	146.380000
510.305695	145.960000
510.399353	145.960000
510.493042	146.600000
510.586700	146.740000
510.680420	147.440000
510.774078	147.500000
510.867798	147.740000
510.961426	147.080000
511.055145	146.840000
511.148804	146.540000
511.242523	147.200000
511.336151	147.120000
511.429871	147.640000
511.523529	147.800000
511.617249	147.420000
511.710876	146.780000
511.804596	146.240000
511.898254	145.880000
511.991974	146.060000
512.085632	146.020000
512.179321	146.360000
512.272949	146.880000
512.366699	147.180000
512.460327	146.960000
512.554077	147.900000
512.647766	147.880000
512.741394	147.760000
512.835144	148.240000
512.928772	148.080000
513.022461	147.760000
513.116150	147.300000
513.209839	147.680000
513.303467	146.900000
513.397217	146.540000
513.490845	146.240000
513.584595	146.440000
513.678223	145.680000
513.771912	145.180000
513.865601	145.680000
513.959290	145.520000
514.052917	145.420000
514.146667	146.240000
514.240295	146.720000
514.333984	146.840000
514.427673	146.800000
514.521362	146.980000
514.614990	146.060000
514.708740	146.060000
514.802368	145.960000
514.896057	146.040000
514.989746	146.620000
515.083435	146.820000
515.177124	147.220000
515.270752	147.000000
515.364502	147.200000
515.458130	147.240000
515.551819	147.400000
515.645508	147.160000
515.739197	147.220000
515.832825	146.880000
515.926575	146.140000
516.020203	146.180000
516.113892	146.460000
516.207520	146.420000
516.301270	146.540000
516.394897	147.000000
516.488586	147.300000
516.582275	147.380000
516.675964	147.140000
516.769592	147.240000
516.863281	147.340000
516.956970	147.360000
517.050659	147.260000
517.144287	147.540000
517.238037	147.600000
517.331665	147.160000
517.425354	146.760000
517.519043	146.480000
517.612732	146.740000
517.706421	146.840000
517.800049	146.760000
517.893738	146.380000
517.987427	146.220000
518.081116	145.700000
518.174744	145.320000
518.268433	145.540000
518.362122	146.300000
518.455811	146.400000
518.549438	147.440000
518.643127	148.240000
518.736816	147.720000
518.830505	147.420000
518.924133	147.480000
519.017822	147.200000
519.111511	146.820000
519.205200	147.580000
519.298828	147.600000
519.392517	147.360000
519.486206	147.520000
519.579895	147.300000
519.673523	146.880000
519.767212	146.680000
519.860901	146.860000
519.954590	146.140000
520.048279	145.820000
520.141907	145.740000
520.235596	146.780000
520.329224	147.100000
520.422974	147.240000
520.516602	147.500000
520.610291	147.340000
520.703918	146.700000
520.797607	146.200000
520.891296	145.880000
520.984985	145.740000
521.078613	146.380000
521.172302	145.940000
521.265930	146.880000
521.359680	147.760000
521.453308	147.600000
521.546997	147.420000
521.640625	147.760000
521.734314	147.040000
521.827942	146.560000
521.921692	147.080000
522.015320	147.240000
522.109009	146.580000
522.202698	146.220000
522.296326	146.040000
522.390015	146.180000
522.483704	145.960000
522.577393	145.980000
522.671021	146.040000
522.764709	146.020000
522.858337	146.340000
522.952026	146.320000
523.045654	147.500000
523.139404	148.100000
523.233032	148.400000
523.326721	148.000000
523.420349	147.960000
523.514038	147.300000
523.607666	147.420000
523.701355	146.920000
523.795044	146.540000
523.888733	146.700000
523.982361	146.820000
524.076050	146.260000
524.169678	146.720000
524.263367	146.640000
524.356995	146.260000
524.450684	146.060000
524.544373	145.840000
524.638062	145.940000
524.731750	146.420000
524.825378	146.700000
524.919067	146.340000
525.012695	146.760000
525.106384	146.260000
525.200012	145.940000
525.293701	145.680000
525.387329	146.080000
525.481018	146.040000
525.574646	146.580000
525.668396	146.740000
525.762024	147.260000
525.855713	147.360000
525.949341	146.960000
526.043030	146.760000
526.136658	146.580000
526.230347	146.160000
526.323975	146.020000
526.417664	146.000000
526.511292	146.200000
526.604980	146.540000
526.698608	146.480000
526.792297	146.680000
526.885925	146.920000
526.979614	146.880000
527.073303	146.420000
527.166931	146.500000
527.260620	146.600000
527.354309	147.360000
527.447998	147.180000
527.541626	147.160000
527.635315	147.200000
527.728943	147.540000
527.822632	147.140000
527.916260	147.160000
528.009949	147.420000
528.103577	147.060000
528.197266	146.260000
528.290894	146.100000
528.384583	146.060000
528.478210	146.200000
528.571899	146.760000
528.665527	147.460000
528.759216	147.740000
528.852844	148.280000
528.946533	148.360000
529.040161	148.220000
529.133850	147.720000
529.227478	147.820000
529.321167	147.620000
529.414856	148.060000
529.508484	148.320000
529.602173	148.300000
529.695801	147.940000
529.789490	147.800000
529.883057	147.120000
529.976746	147.100000
530.070374	147.540000
530.164062	147.680000
530.257690	147.840000
530.351379	148.420000
530.445007	148.240000
530.538696	147.260000
530.632324	147.400000
530.726013	147.240000
530.819641	146.900000
530.913330	147.220000
531.006958	147.960000
531.100647	147.580000
531.194275	147.560000
531.287964	147.040000
531.381592	146.520000
531.475220	146.560000
531.568848	146.700000
531.662537	146.640000
531.756226	147.340000
531.849854	147.500000
531.943542	147.160000
532.037170	146.740000
532.130859	147.100000
532.224487	146.640000
532.318176	146.280000
532.411804	146.840000
532.505432	147.300000
532.599060	146.840000
532.692749	146.700000
532.786377	147.300000
532.880066	146.680000
532.973694	146.060000
533.067383	145.920000
533.161011	146.220000
533.254639	145.820000
533.348267	145.580000
533.441956	146.160000
533.535583	146.160000
533.629272	146.120000
533.722900	146.140000
533.816589	146.400000
533.910156	146.200000
534.003845	146.100000
534.097534	146.320000
534.191162	146.680000
534.284851	147.080000
534.378479	147.200000
534.472107	147.360000
534.565735	147.120000
534.659424	147.080000
534.753052	147.140000
534.846741	147.060000
534.940369	147.640000
535.033997	147.440000
535.127625	147.360000
535.221313	147.680000
535.314941	147.480000
535.408630	146.660000
535.502197	146.920000
535.595886	146.900000
535.689514	146.320000
535.783203	146.720000
535.876831	147.560000
535.970459	147.520000
536.064087	147.120000
536.157776	147.100000
536.251404	147.020000
536.345093	146.360000
536.438721	146.560000
536.532349	147.040000
536.626038	146.820000
536.719666	147.240000
536.813293	147.020000
536.906921	146.960000
537.000610	147.160000
537.094238	147.540000
537.187866	147.100000
537.281494	147.220000
537.375183	147.160000
537.468811	146.680000
537.562439	146.340000
537.656067	146.280000
537.749756	146.580000
537.843384	147.060000
537.937012	147.360000
538.030640	147.120000
538.124329	147.220000
538.217896	147.460000
538.311584	147.280000
538.405212	146.900000
538.498901	147.300000
538.592468	147.700000
538.686157	147.100000
538.779785	146.420000
538.873413	146.500000
538.967102	146.320000
539.060730	145.800000
539.154358	146.360000
539.247986	146.840000
539.341675	147.020000
539.435242	147.160000
539.528931	147.220000
539.622559	146.780000
539.716187	147.420000
539.809814	147.340000
539.903503	147.400000
539.997070	147.400000
540.090759	147.360000
540.184387	146.740000
540.278015	147.280000
540.371643	147.340000
540.465332	147.560000
540.558899	147.480000
540.652588	147.280000
540.746216	146.700000
540.839844	146.800000
540.933472	146.620000
541.027100	146.660000
541.120728	146.640000
541.214417	146.820000
541.308044	147.040000
541.401672	146.840000
541.495300	146.960000
541.588928	147.020000
541.682617	146.880000
541.776184	146.200000
541.869873	146.680000
541.963440	146.900000
542.057129	147.280000
542.150757	147.360000
542.244385	147.560000
542.338013	147.040000
542.431641	146.880000
542.525269	146.560000
542.618958	147.220000
542.712524	147.460000
542.806213	147.480000
542.899780	147.500000
542.993469	147.120000
543.087036	146.280000
543.180725	145.760000
543.274292	146.260000
543.367981	146.560000
543.461548	147.100000
543.555237	146.920000
543.648926	147.740000
543.742493	148.040000
543.836182	147.640000
543.929749	147.520000
544.023437	147.860000
544.117004	147.640000
544.210693	147.440000
544.304260	147.720000
544.397949	147.480000
544.491516	147.760000
544.585205	147.580000
544.678772	147.020000
544.772461	147.120000
544.866028	147.140000
544.959717	147.200000
545.053284	146.880000
545.146973	147.440000
545.240540	147.700000
545.334229	148.020000
545.427795	147.860000
545.521423	148.480000
545.615051	148.140000
545.708679	148.220000
545.802307	148.200000
545.895935	148.300000
545.989624	148.760000
546.083191	148.800000
546.176880	148.540000
546.270447	148.260000
546.364136	148.500000
546.457703	147.620000
546.551331	147.620000
546.644958	147.640000
546.738586	147.860000
546.832214	147.400000
546.925842	147.460000
547.019409	147.620000
547.113098	147.020000
547.206665	146.760000
547.300354	146.800000
547.393921	146.860000
547.487549	147.060000
547.581177	147.320000
547.674805	147.420000
547.768433	146.620000
547.862061	146.740000
547.955627	145.780000
548.049316	146.320000
548.142883	146.620000
548.236572	147.580000
548.330139	147.820000
548.423767	148.220000
548.517456	147.420000
548.611023	147.460000
548.704651	146.780000
548.798279	146.660000
548.891907	147.260000
548.985474	147.480000
549.079163	147.340000
549.172729	147.280000
549.266357	146.400000
549.359985	146.100000
549.453613	145.660000
549.547180	145.560000
549.640869	146.100000
549.734436	146.480000
549.828064	146.520000
549.921631	146.680000
550.015320	146.140000
550.108887	146.360000
550.202515	146.520000
550.296143	146.200000
550.389771	146.400000
550.483337	146.440000
550.576965	146.300000
550.670593	146.640000
550.764221	146.840000
550.857849	146.920000
550.951477	146.780000
551.045105	146.300000
551.138672	145.960000
551.232300	145.720000
551.325928	146.160000
551.419556	146.680000
551.513123	146.740000
551.606750	146.540000
551.700378	146.680000
551.794006	146.380000
551.887573	146.140000
551.981201	146.920000
552.074768	146.860000
552.168457	146.160000
552.262024	146.900000
552.355652	146.980000
552.449219	146.780000
552.542847	147.180000
552.636475	147.560000
552.730103	146.640000
552.823669	146.900000
552.917297	146.240000
553.010864	146.060000
553.104553	146.240000
553.198181	145.820000
553.291748	145.620000
553.385376	146.100000
553.478943	145.940000
553.572571	146.080000
553.666199	146.500000
553.759827	146.500000
553.853394	145.740000
553.947021	146.060000
554.040588	145.940000
554.134216	146.000000
554.227783	146.580000
554.321411	147.500000
554.415039	146.740000
554.508667	147.000000
554.602234	147.060000
554.695862	145.920000
554.789429	145.620000
554.883057	145.960000
554.976624	145.560000
555.070251	145.680000
555.163818	146.120000
555.257507	146.080000
555.351074	146.220000
555.444702	147.480000
555.538330	146.940000
555.631897	147.700000
555.725525	147.580000
555.819092	147.460000
555.912720	146.260000
556.006287	147.000000
556.099915	146.300000
556.193481	146.580000
556.287109	146.920000
556.380676	146.820000
556.474304	146.600000
556.567871	146.840000
556.661499	146.700000
556.755066	146.780000
556.848694	147.120000
556.942261	146.820000
557.035889	146.840000
557.129517	147.080000
557.223145	147.480000
557.316711	147.580000
557.410339	147.920000
557.503906	147.780000
557.597473	147.700000
557.691040	147.300000
557.784668	147.160000
557.878296	146.740000
557.971863	146.800000
558.065491	146.680000
558.159058	146.300000
558.252686	146.840000
558.346252	147.600000
558.439880	147.300000
558.533447	147.020000
558.627075	146.880000
558.720642	146.300000
558.814270	145.960000
558.907837	146.080000
559.001465	145.940000
559.095032	146.520000
559.188660	146.760000
559.282227	146.380000
559.375854	147.120000
559.469360	147.120000
559.562988	147.300000
559.656555	146.780000
559.750183	146.920000
559.843750	146.560000
559.937378	146.800000
560.030945	146.400000
560.124573	0.000000
560.218140	0.000000
560.311707	0.000000
560.405334	0.000000
560.498901	0.000000
560.592529	0.000000
560.686096	0.000000
560.779724	0.000000
560.873291	0.000000
560.966858	0.000000
561.060425	0.000000
561.154053	0.000000
561.247620	0.000000
561.341248	0.000000
561.434814	0.000000
561.528381	0.000000
561.621948	0.000000
561.715576	0.000000
561.809143	0.000000
561.902771	0.000000
561.996277	0.000000
562.089905	0.000000
562.183472	0.000000
562.277100	0.000000
