Model Number: SPM-002-B   
Serial Number: 70087108
Firmware Version: 004.15.4
Exposure Time: 100000.000000us
Data Taken on: 11-12-2020 19:31:47.172
Wavelength	Amplitude
221.570786	0.000000
221.663406	0.000000
221.756027	0.000000
221.848648	0.000000
221.941269	0.000000
222.033905	0.000000
222.126526	0.000000
222.219162	0.000000
222.311798	0.000000
222.404419	0.000000
222.497055	0.000000
222.589676	0.000000
222.682312	0.000000
222.774933	0.000000
222.867569	0.000000
222.960205	0.000000
223.052841	0.000000
223.145462	0.000000
223.238098	0.000000
223.330734	0.000000
223.423386	0.000000
223.516022	0.000000
223.608658	0.000000
223.701309	0.000000
223.793945	0.000000
223.886581	0.000000
223.979218	0.000000
224.071869	0.000000
224.164505	0.000000
224.257156	0.000000
224.349792	0.000000
224.442444	0.000000
224.535095	0.000000
224.627747	0.000000
224.720398	0.000000
224.813034	0.000000
224.905685	0.000000
224.998337	144.920000
225.090988	144.580000
225.183640	144.740000
225.276291	144.720000
225.368942	144.660000
225.461594	145.460000
225.554245	145.740000
225.646912	145.360000
225.739578	146.040000
225.832230	146.420000
225.924896	145.020000
226.017548	145.560000
226.110199	146.320000
226.202866	145.680000
226.295532	145.660000
226.388184	146.060000
226.480850	145.380000
226.573517	145.020000
226.666168	145.300000
226.758835	145.220000
226.851501	145.580000
226.944183	145.600000
227.036850	144.960000
227.129517	144.780000
227.222183	144.940000
227.314850	144.860000
227.407516	145.360000
227.500198	146.380000
227.592865	145.840000
227.685532	145.360000
227.778214	145.000000
227.870880	145.220000
227.963562	145.280000
228.056229	146.020000
228.148926	145.940000
228.241592	146.960000
228.334274	146.320000
228.426956	145.900000
228.519638	145.900000
228.612305	146.020000
228.704987	145.640000
228.797668	145.800000
228.890350	145.640000
228.983032	144.980000
229.075714	145.280000
229.168396	144.860000
229.261108	144.560000
229.353790	144.620000
229.446472	145.060000
229.539169	144.760000
229.631851	144.720000
229.724533	145.080000
229.817230	145.400000
229.909912	146.220000
230.002609	146.340000
230.095306	146.220000
230.187988	146.040000
230.280685	145.880000
230.373383	144.760000
230.466095	144.760000
230.558792	145.120000
230.651474	145.420000
230.744171	145.380000
230.836868	145.540000
230.929581	145.380000
231.022278	145.220000
231.114975	145.100000
231.207672	144.680000
231.300369	145.120000
231.393082	145.560000
231.485779	145.440000
231.578506	145.320000
231.671204	145.740000
231.763916	145.440000
231.856613	145.200000
231.949326	145.460000
232.042023	145.280000
232.134735	145.120000
232.227448	144.980000
232.320160	145.220000
232.412872	144.800000
232.505585	145.760000
232.598297	146.120000
232.691010	146.340000
232.783722	146.120000
232.876450	146.860000
232.969162	146.400000
233.061874	145.960000
233.154587	145.700000
233.247314	145.820000
233.340027	144.980000
233.432739	145.060000
233.525467	144.960000
233.618179	145.080000
233.710907	144.660000
233.803635	145.380000
233.896347	144.980000
233.989090	145.880000
234.081818	145.820000
234.174545	146.300000
234.267258	145.600000
234.359985	145.900000
234.452713	145.420000
234.545441	145.240000
234.638168	144.820000
234.730896	145.440000
234.823639	145.020000
234.916367	145.220000
235.009094	145.300000
235.101822	145.220000
235.194580	145.440000
235.287308	145.700000
235.380051	145.360000
235.472778	145.600000
235.565521	146.300000
235.658249	145.600000
235.750992	145.920000
235.843719	145.840000
235.936462	145.980000
236.029205	145.500000
236.121948	145.420000
236.214691	145.240000
236.307449	146.080000
236.400192	145.820000
236.492935	145.520000
236.585678	146.000000
236.678421	146.080000
236.771164	145.320000
236.863907	145.420000
236.956665	145.880000
237.049408	147.140000
237.142151	146.600000
237.234909	147.240000
237.327652	147.420000
237.420410	146.920000
237.513153	146.300000
237.605927	146.400000
237.698669	145.840000
237.791428	145.200000
237.884186	145.980000
237.976944	145.120000
238.069702	145.400000
238.162445	145.120000
238.255203	145.560000
238.347961	145.680000
238.440720	145.540000
238.533478	145.440000
238.626266	145.400000
238.719025	145.320000
238.811783	144.980000
238.904541	145.160000
238.997314	145.200000
239.090073	145.200000
239.182831	145.500000
239.275604	146.020000
239.368362	145.660000
239.461136	145.820000
239.553909	145.620000
239.646667	145.140000
239.739441	144.500000
239.832214	144.860000
239.925003	144.960000
240.017761	145.700000
240.110535	146.340000
240.203308	146.280000
240.296082	146.400000
240.388855	145.940000
240.481628	145.960000
240.574417	146.000000
240.667191	145.740000
240.759964	145.560000
240.852737	145.780000
240.945526	145.300000
241.038315	144.980000
241.131088	145.380000
241.223877	145.480000
241.316650	144.860000
241.409439	145.280000
241.502228	145.200000
241.595001	145.520000
241.687790	145.480000
241.780579	145.780000
241.873367	146.020000
241.966141	146.180000
242.058929	145.500000
242.151718	145.620000
242.244507	146.120000
242.337311	145.020000
242.430099	145.380000
242.522903	145.820000
242.615692	145.640000
242.708481	145.820000
242.801270	146.840000
242.894073	146.540000
242.986862	146.440000
243.079651	146.640000
243.172455	146.020000
243.265244	145.860000
243.358063	145.300000
243.450867	145.800000
243.543655	145.720000
243.636459	145.840000
243.729263	146.060000
243.822067	146.540000
243.914856	146.420000
244.007660	146.420000
244.100464	146.240000
244.193268	145.600000
244.286072	145.540000
244.378876	145.140000
244.471680	144.940000
244.564499	145.400000
244.657318	146.040000
244.750122	145.980000
244.842926	145.580000
244.935745	146.120000
245.028549	145.680000
245.121368	145.000000
245.214172	145.160000
245.306992	145.800000
245.399796	145.260000
245.492615	145.500000
245.585434	145.540000
245.678253	145.320000
245.771072	144.940000
245.863892	145.380000
245.956711	145.880000
246.049530	145.680000
246.142349	145.440000
246.235168	145.460000
246.327988	145.880000
246.420807	145.440000
246.513626	145.780000
246.606445	145.800000
246.699280	145.980000
246.792099	145.560000
246.884918	145.240000
246.977753	145.140000
247.070587	145.240000
247.163422	145.340000
247.256241	145.280000
247.349075	145.360000
247.441895	145.180000
247.534729	145.340000
247.627563	145.040000
247.720383	145.620000
247.813217	145.820000
247.906052	146.020000
247.998886	145.900000
248.091736	145.840000
248.184570	145.260000
248.277405	145.360000
248.370239	146.200000
248.463074	146.900000
248.555908	147.400000
248.648743	147.100000
248.741592	147.140000
248.834427	146.260000
248.927261	145.200000
249.020111	145.340000
249.112946	146.120000
249.205795	145.760000
249.298630	145.980000
249.391495	146.500000
249.484344	145.960000
249.577179	145.680000
249.670029	145.980000
249.762878	146.160000
249.855728	146.300000
249.948563	146.660000
250.041412	146.080000
250.134262	146.220000
250.227112	146.380000
250.319962	146.420000
250.412827	146.580000
250.505692	146.540000
250.598541	146.340000
250.691391	145.640000
250.784241	145.580000
250.877106	145.280000
250.969955	144.900000
251.062805	145.320000
251.155670	146.160000
251.248520	146.040000
251.341385	146.200000
251.434235	146.460000
251.527100	145.780000
251.619965	145.300000
251.712814	145.700000
251.805695	145.380000
251.898560	145.740000
251.991425	146.180000
252.084290	146.380000
252.177155	145.900000
252.270020	145.820000
252.362885	145.460000
252.455750	145.500000
252.548615	145.080000
252.641479	145.200000
252.734360	145.120000
252.827240	145.180000
252.920105	145.080000
253.012970	145.180000
253.105850	145.020000
253.198715	145.240000
253.291595	145.480000
253.384460	144.860000
253.477341	144.820000
253.570221	145.080000
253.663086	145.000000
253.755966	145.800000
253.848846	146.480000
253.941727	146.620000
254.034592	146.320000
254.127472	146.040000
254.220367	145.440000
254.313248	145.240000
254.406128	144.980000
254.499008	145.460000
254.591904	146.220000
254.684784	146.580000
254.777664	146.780000
254.870544	146.560000
254.963440	146.020000
255.056335	145.740000
255.149216	145.060000
255.242111	145.400000
255.334991	146.080000
255.427887	146.220000
255.520767	146.120000
255.613663	146.720000
255.706558	145.960000
255.799438	145.580000
255.892334	145.380000
255.985229	145.280000
256.078125	144.900000
256.171021	145.080000
256.263916	145.620000
256.356812	145.880000
256.449707	146.100000
256.542603	145.900000
256.635498	146.360000
256.728394	145.980000
256.821289	145.540000
256.914215	145.600000
257.007080	146.220000
257.100006	146.040000
257.192932	146.540000
257.285828	147.120000
257.378723	146.800000
257.471619	146.360000
257.564545	145.760000
257.657440	145.520000
257.750336	145.960000
257.843262	146.040000
257.936157	146.820000
258.029053	147.540000
258.121979	147.640000
258.214874	147.020000
258.307800	146.980000
258.400696	145.920000
258.493622	145.640000
258.586517	144.740000
258.679443	145.020000
258.772339	144.360000
258.865265	144.420000
258.958160	144.040000
259.051086	145.060000
259.144012	144.900000
259.236938	146.220000
259.329834	146.480000
259.422791	146.580000
259.515717	145.940000
259.608612	145.760000
259.701538	145.340000
259.794464	144.980000
259.887390	145.020000
259.980316	145.220000
260.073212	145.000000
260.166138	144.040000
260.259064	144.560000
260.351990	145.060000
260.444916	144.860000
260.537842	145.400000
260.630768	146.120000
260.723694	146.120000
260.816620	146.100000
260.909546	146.200000
261.002472	145.640000
261.095398	145.460000
261.188354	145.400000
261.281281	144.660000
261.374207	144.720000
261.467133	145.680000
261.560089	145.940000
261.653015	145.780000
261.745972	146.720000
261.838867	147.180000
261.931824	147.020000
262.024780	146.720000
262.117706	147.060000
262.210663	146.960000
262.303589	146.660000
262.396515	146.620000
262.489471	147.300000
262.582397	147.220000
262.675354	146.720000
262.768280	146.760000
262.861237	146.700000
262.954163	146.420000
263.047119	146.440000
263.140045	146.100000
263.233002	145.580000
263.325958	145.500000
263.418884	145.040000
263.511841	145.000000
263.604797	145.440000
263.697723	145.800000
263.790680	145.540000
263.883636	146.200000
263.976593	145.820000
264.069550	145.700000
264.162476	145.580000
264.255463	145.760000
264.348419	145.400000
264.441376	145.880000
264.534332	145.620000
264.627289	145.860000
264.720245	146.000000
264.813202	145.720000
264.906158	145.600000
264.999115	146.100000
265.092072	146.220000
265.185028	146.520000
265.277985	146.980000
265.370941	146.960000
265.463898	146.900000
265.556854	146.420000
265.649811	145.760000
265.742798	145.520000
265.835754	145.440000
265.928711	145.600000
266.021667	145.760000
266.114655	145.800000
266.207611	145.960000
266.300568	145.340000
266.393585	144.900000
266.486511	144.940000
266.579498	144.220000
266.672485	144.080000
266.765442	144.100000
266.858429	144.840000
266.951385	144.740000
267.044342	145.260000
267.137329	145.060000
267.230316	145.800000
267.323273	145.120000
267.416260	145.740000
267.509216	145.900000
267.602203	146.180000
267.695160	146.420000
267.788147	146.440000
267.881134	145.900000
267.974091	146.040000
268.067078	145.900000
268.160065	145.620000
268.253052	145.640000
268.346008	145.760000
268.438995	145.600000
268.531982	145.760000
268.624969	145.440000
268.717987	145.600000
268.810944	145.580000
268.903961	145.600000
268.996948	145.200000
269.089905	145.680000
269.182892	145.580000
269.275879	145.540000
269.368866	145.100000
269.461853	145.360000
269.554871	144.880000
269.647858	144.900000
269.740845	145.160000
269.833832	145.720000
269.926819	145.480000
270.019806	145.620000
270.112793	145.180000
270.205811	145.180000
270.298798	144.860000
270.391785	145.520000
270.484772	145.140000
270.577789	145.460000
270.670776	144.980000
270.763763	145.160000
270.856750	145.120000
270.949768	145.000000
271.042786	145.080000
271.135773	145.280000
271.228790	145.740000
271.321808	145.140000
271.414795	145.360000
271.507782	145.220000
271.600800	144.980000
271.693817	144.640000
271.786804	145.320000
271.879822	145.520000
271.972809	145.660000
272.065826	146.180000
272.158844	145.720000
272.251831	145.700000
272.344849	145.740000
272.437866	145.160000
272.530853	145.200000
272.623871	145.320000
272.716888	144.500000
272.809906	144.820000
272.902893	145.120000
272.995911	144.420000
273.088928	144.680000
273.181946	145.120000
273.274963	144.560000
273.367981	144.740000
273.460999	145.060000
273.554047	145.300000
273.647003	145.660000
273.740051	145.920000
273.833069	146.500000
273.926086	146.560000
274.019135	146.220000
274.112152	145.920000
274.205170	145.840000
274.298187	145.600000
274.391205	144.860000
274.484222	145.020000
274.577240	145.040000
274.670258	144.860000
274.763306	144.440000
274.856323	145.300000
274.949341	145.300000
275.042358	145.560000
275.135406	145.720000
275.228424	145.820000
275.321442	145.920000
275.414490	145.320000
275.507507	145.440000
275.600525	145.720000
275.693573	145.700000
275.786591	145.260000
275.879669	146.120000
275.972656	145.700000
276.065735	145.620000
276.158752	146.120000
276.251801	146.660000
276.344818	146.400000
276.437866	146.480000
276.530884	146.320000
276.623932	145.440000
276.716980	145.480000
276.809998	145.740000
276.903046	145.780000
276.996094	146.680000
277.089111	147.200000
277.182159	147.300000
277.275208	146.780000
277.368256	146.300000
277.461304	145.520000
277.554321	145.020000
277.647369	144.920000
277.740417	145.220000
277.833466	145.340000
277.926514	145.220000
278.019562	145.880000
278.112610	145.000000
278.205688	144.840000
278.298706	145.000000
278.391785	144.760000
278.484833	144.340000
278.577881	144.700000
278.670929	145.120000
278.763977	145.460000
278.857025	145.860000
278.950073	145.960000
279.043121	145.980000
279.136169	145.480000
279.229248	145.140000
279.322296	145.240000
279.415344	145.020000
279.508392	144.800000
279.601440	144.720000
279.694519	144.500000
279.787567	144.080000
279.880615	144.160000
279.973694	144.240000
280.066742	144.380000
280.159790	144.740000
280.252869	144.500000
280.345917	144.680000
280.438995	144.700000
280.532074	144.540000
280.625122	144.760000
280.718201	145.700000
280.811279	145.840000
280.904327	145.800000
280.997406	146.100000
281.090454	146.080000
281.183533	145.400000
281.276581	145.260000
281.369659	145.440000
281.462738	145.580000
281.555786	145.600000
281.648865	145.740000
281.741943	145.560000
281.835022	145.940000
281.928070	145.480000
282.021149	145.220000
282.114227	145.240000
282.207306	145.220000
282.300385	145.520000
282.393433	145.740000
282.486511	145.720000
282.579590	146.300000
282.672668	146.800000
282.765747	145.980000
282.858856	145.720000
282.951904	145.880000
283.045013	145.640000
283.138062	145.620000
283.231171	146.080000
283.324249	146.840000
283.417328	146.920000
283.510406	146.580000
283.603485	146.500000
283.696564	145.880000
283.789642	145.580000
283.882751	145.160000
283.975830	145.680000
284.068909	145.380000
284.161987	146.480000
284.255066	145.940000
284.348175	146.160000
284.441254	145.740000
284.534332	146.160000
284.627441	145.320000
284.720520	145.180000
284.813599	145.400000
284.906708	145.480000
284.999786	144.660000
285.092896	144.580000
285.185974	145.720000
285.279053	145.180000
285.372192	145.300000
285.465240	146.240000
285.558380	146.240000
285.651459	145.600000
285.744568	146.620000
285.837677	146.400000
285.930756	146.140000
286.023865	146.520000
286.116943	146.480000
286.210052	146.260000
286.303162	145.820000
286.396240	145.620000
286.489349	145.080000
286.582458	144.980000
286.675568	144.520000
286.768646	144.840000
286.861755	145.160000
286.954865	145.760000
287.047974	145.720000
287.141083	145.640000
287.234161	145.660000
287.327271	145.040000
287.420380	145.160000
287.513519	145.140000
287.606598	145.080000
287.699738	145.200000
287.792816	145.680000
287.885956	145.280000
287.979034	145.160000
288.072174	145.480000
288.165283	145.320000
288.258392	145.420000
288.351501	145.240000
288.444611	145.320000
288.537720	145.480000
288.630859	145.380000
288.723969	145.280000
288.817078	145.700000
288.910187	146.000000
289.003296	145.440000
289.096436	145.440000
289.189545	145.300000
289.282654	144.880000
289.375763	145.340000
289.468903	145.540000
289.562012	145.940000
289.655121	146.200000
289.748260	146.460000
289.841400	146.480000
289.934509	146.400000
290.027649	146.020000
290.120728	145.520000
290.213898	145.700000
290.306976	145.080000
290.400146	145.280000
290.493256	145.180000
290.586395	145.540000
290.679535	145.500000
290.772644	145.400000
290.865784	144.760000
290.958893	144.760000
291.052032	144.640000
291.145172	144.560000
291.238281	144.480000
291.331421	144.780000
291.424561	145.340000
291.517670	145.000000
291.610809	144.960000
291.703949	144.820000
291.797089	145.100000
291.890228	144.620000
291.983337	144.660000
292.076477	144.580000
292.169617	145.100000
292.262756	145.060000
292.355927	145.140000
292.449036	145.020000
292.542206	145.040000
292.635315	145.300000
292.728485	145.400000
292.821625	145.120000
292.914764	146.420000
293.007904	146.660000
293.101044	146.260000
293.194183	146.200000
293.287323	146.280000
293.380463	145.480000
293.473602	145.100000
293.566742	145.380000
293.659882	145.860000
293.753021	146.260000
293.846191	146.120000
293.939331	145.780000
294.032471	145.440000
294.125610	144.940000
294.218781	145.380000
294.311920	145.780000
294.405060	146.200000
294.498230	146.220000
294.591370	146.380000
294.684540	145.620000
294.777679	145.040000
294.870850	145.340000
294.963959	145.280000
295.057159	145.000000
295.150299	145.520000
295.243469	145.880000
295.336609	145.120000
295.429779	145.400000
295.522919	145.640000
295.616089	145.320000
295.709229	145.720000
295.802399	146.280000
295.895569	145.700000
295.988708	145.700000
296.081879	145.780000
296.175018	144.860000
296.268188	144.780000
296.361359	145.560000
296.454529	145.380000
296.547668	145.360000
296.640839	146.020000
296.734009	145.900000
296.827179	145.920000
296.920319	146.080000
297.013519	145.460000
297.106659	145.620000
297.199860	145.560000
297.292999	145.060000
297.386200	144.840000
297.479309	145.040000
297.572510	144.560000
297.665680	144.600000
297.758850	144.760000
297.852020	144.880000
297.945190	144.920000
298.038361	144.640000
298.131531	145.420000
298.224701	145.260000
298.317871	144.880000
298.411072	144.520000
298.504242	144.360000
298.597412	143.560000
298.690582	143.980000
298.783752	144.000000
298.876923	144.640000
298.970093	144.980000
299.063293	145.540000
299.156464	145.580000
299.249634	145.960000
299.342834	146.100000
299.436005	146.480000
299.529205	146.200000
299.622345	146.000000
299.715576	145.560000
299.808716	145.500000
299.901917	145.500000
299.995117	145.820000
300.088287	146.200000
300.181488	146.260000
300.274658	145.920000
300.367828	145.820000
300.461029	145.760000
300.554199	145.560000
300.647400	145.580000
300.740601	146.280000
300.833771	145.980000
300.926971	145.640000
301.020142	145.160000
301.113342	145.000000
301.206512	144.660000
301.299713	145.280000
301.392914	145.800000
301.486084	146.200000
301.579285	146.440000
301.672516	146.860000
301.765686	146.500000
301.858887	145.820000
301.952057	145.760000
302.045288	146.000000
302.138458	145.520000
302.231659	145.220000
302.324860	145.120000
302.418060	144.840000
302.511261	144.420000
302.604462	144.560000
302.697662	144.720000
302.790863	144.720000
302.884064	144.400000
302.977264	144.720000
303.070465	144.820000
303.163666	145.140000
303.256866	145.340000
303.350067	145.720000
303.443268	145.800000
303.536469	145.940000
303.629669	145.580000
303.722870	145.820000
303.816071	145.780000
303.909271	145.700000
304.002472	144.860000
304.095673	144.920000
304.188934	144.320000
304.282104	145.080000
304.375336	145.120000
304.468506	145.300000
304.561768	144.960000
304.654968	145.840000
304.748169	145.220000
304.841370	145.080000
304.934601	145.720000
305.027802	145.800000
305.121002	145.140000
305.214233	145.500000
305.307434	145.680000
305.400665	146.120000
305.493866	146.140000
305.587097	146.380000
305.680298	145.800000
305.773499	146.060000
305.866730	145.400000
305.959930	145.880000
306.053162	146.380000
306.146393	146.200000
306.239594	145.440000
306.332825	145.540000
306.426025	145.540000
306.519287	144.760000
306.612488	145.140000
306.705719	145.340000
306.798920	145.000000
306.892181	144.640000
306.985352	144.480000
307.078613	143.840000
307.171844	144.180000
307.265045	143.820000
307.358276	143.640000
307.451508	144.000000
307.544739	144.700000
307.637970	144.200000
307.731201	144.480000
307.824402	144.880000
307.917633	145.120000
308.010864	145.300000
308.104095	146.040000
308.197327	146.280000
308.290558	146.840000
308.383789	146.400000
308.477020	146.020000
308.570251	145.160000
308.663483	144.880000
308.756714	144.040000
308.849976	144.500000
308.943176	145.140000
309.036438	144.920000
309.129639	144.860000
309.222900	145.180000
309.316101	144.700000
309.409393	144.180000
309.502625	144.500000
309.595856	144.680000
309.689087	144.600000
309.782318	145.000000
309.875580	145.160000
309.968811	145.680000
310.062042	145.440000
310.155273	145.420000
310.248535	145.780000
310.341766	145.540000
310.434998	145.120000
310.528259	145.340000
310.621490	145.680000
310.714722	144.820000
310.807983	144.980000
310.901215	144.920000
310.994476	144.940000
311.087708	144.380000
311.181000	144.960000
311.274200	144.640000
311.367462	144.820000
311.460693	144.540000
311.553986	145.340000
311.647186	145.440000
311.740479	145.960000
311.833710	145.560000
311.926971	145.640000
312.020203	144.680000
312.113464	144.300000
312.206726	143.960000
312.299957	144.440000
312.393219	145.180000
312.486481	145.920000
312.579712	146.020000
312.672974	145.760000
312.766235	145.520000
312.859497	145.140000
312.952759	144.940000
313.045990	145.720000
313.139252	145.440000
313.232513	145.920000
313.325775	145.780000
313.419037	145.320000
313.512299	144.360000
313.605530	145.200000
313.698822	145.220000
313.792053	145.440000
313.885345	145.260000
313.978577	145.580000
314.071869	144.880000
314.165131	144.920000
314.258392	145.080000
314.351654	145.460000
314.444916	144.680000
314.538177	145.520000
314.631439	145.680000
314.724701	145.260000
314.817993	145.060000
314.911255	145.460000
315.004517	144.760000
315.097778	144.400000
315.191040	145.020000
315.284302	145.440000
315.377594	145.500000
315.470856	145.600000
315.564117	145.020000
315.657379	144.340000
315.750671	143.920000
315.843933	144.360000
315.937195	144.080000
316.030518	144.060000
316.123749	144.320000
316.217041	145.200000
316.310303	144.860000
316.403595	145.260000
316.496857	145.820000
316.590149	145.900000
316.683411	145.100000
316.776703	145.020000
316.869965	145.160000
316.963257	145.020000
317.056519	144.300000
317.149811	144.320000
317.243073	144.380000
317.336365	144.440000
317.429626	144.480000
317.522919	145.520000
317.616180	145.700000
317.709473	145.220000
317.802765	145.100000
317.896027	145.080000
317.989319	144.840000
318.082611	145.040000
318.175873	145.120000
318.269165	145.040000
318.362488	145.060000
318.455750	144.740000
318.549042	144.900000
318.642303	145.940000
318.735626	145.440000
318.828888	145.480000
318.922211	145.140000
319.015472	145.460000
319.108765	144.520000
319.202057	144.860000
319.295349	145.260000
319.388641	145.720000
319.481934	145.100000
319.575226	144.860000
319.668518	145.000000
319.761810	145.080000
319.855103	145.100000
319.948395	145.200000
320.041687	145.880000
320.134979	145.860000
320.228271	145.360000
320.321564	144.920000
320.414856	145.140000
320.508148	144.520000
320.601440	144.580000
320.694763	144.580000
320.788025	145.600000
320.881348	145.220000
320.974640	145.460000
321.067963	145.080000
321.161224	145.200000
321.254547	144.240000
321.347839	144.780000
321.441162	144.520000
321.534454	144.940000
321.627747	144.740000
321.721069	145.660000
321.814362	145.540000
321.907654	145.620000
322.000946	145.620000
322.094269	146.180000
322.187561	145.420000
322.280884	145.340000
322.374176	145.680000
322.467468	146.040000
322.560791	145.720000
322.654083	146.460000
322.747406	146.600000
322.840698	146.940000
322.934021	146.820000
323.027344	147.080000
323.120636	146.500000
323.213959	146.340000
323.307251	145.800000
323.400574	145.580000
323.493866	145.060000
323.587219	145.260000
323.680511	145.480000
323.773834	145.640000
323.867157	145.700000
323.960449	145.780000
324.053772	145.760000
324.147095	145.380000
324.240387	146.060000
324.333710	145.840000
324.427032	146.240000
324.520355	146.140000
324.613647	146.180000
324.706970	145.540000
324.800293	145.480000
324.893616	145.440000
324.986938	145.340000
325.080231	145.080000
325.173553	145.560000
325.266876	146.140000
325.360199	146.280000
325.453522	145.800000
325.546875	145.720000
325.640167	145.920000
325.733521	145.980000
325.826813	145.760000
325.920166	145.840000
326.013489	145.720000
326.106812	144.320000
326.200134	143.800000
326.293457	143.320000
326.386780	143.360000
326.480103	143.540000
326.573425	144.040000
326.666748	144.200000
326.760071	144.900000
326.853424	145.460000
326.946747	145.540000
327.040070	146.440000
327.133392	146.100000
327.226715	145.200000
327.320068	144.720000
327.413391	145.280000
327.506714	144.060000
327.600037	144.520000
327.693390	145.060000
327.786713	145.200000
327.880066	144.680000
327.973358	145.440000
328.066742	145.560000
328.160034	145.560000
328.253418	145.780000
328.346710	145.600000
328.440063	145.200000
328.533417	144.600000
328.626740	144.760000
328.720093	144.660000
328.813416	144.540000
328.906769	144.600000
329.000092	144.800000
329.093445	144.760000
329.186768	144.600000
329.280121	145.360000
329.373444	145.500000
329.466797	145.740000
329.560120	145.840000
329.653473	146.140000
329.746796	145.520000
329.840149	145.380000
329.933502	145.580000
330.026825	145.220000
330.120178	145.180000
330.213562	145.200000
330.306854	145.300000
330.400238	144.860000
330.493561	144.660000
330.586945	145.020000
330.680237	145.360000
330.773621	145.280000
330.866974	145.280000
330.960327	145.760000
331.053680	145.180000
331.147003	145.080000
331.240356	145.480000
331.333710	145.480000
331.427063	144.900000
331.520416	144.980000
331.613770	144.800000
331.707123	144.680000
331.800476	145.060000
331.893829	146.320000
331.987152	146.420000
332.080505	146.560000
332.173859	146.240000
332.267212	145.680000
332.360565	144.760000
332.453918	144.740000
332.547333	144.460000
332.640656	144.640000
332.734039	144.660000
332.827362	144.660000
332.920746	144.860000
333.014069	145.100000
333.107452	145.580000
333.200806	145.840000
333.294159	145.720000
333.387543	145.060000
333.480896	144.680000
333.574249	144.140000
333.667603	143.740000
333.760956	144.160000
333.854340	144.320000
333.947693	144.660000
334.041046	144.680000
334.134430	145.340000
334.227783	144.940000
334.321136	145.020000
334.414520	144.900000
334.507874	145.080000
334.601227	145.060000
334.694611	144.980000
334.787964	145.040000
334.881348	145.400000
334.974701	145.300000
335.068085	144.620000
335.161438	145.320000
335.254822	144.980000
335.348175	144.680000
335.441559	144.120000
335.534943	145.120000
335.628296	144.500000
335.721680	144.900000
335.815033	144.760000
335.908417	145.420000
336.001770	144.720000
336.095154	144.480000
336.188538	144.220000
336.281891	144.100000
336.375275	143.580000
336.468658	143.620000
336.562012	143.960000
336.655396	144.400000
336.748779	144.920000
336.842133	145.360000
336.935516	145.860000
337.028900	145.460000
337.122284	145.020000
337.215637	144.940000
337.309021	144.740000
337.402435	144.460000
337.495789	144.660000
337.589203	144.920000
337.682526	144.600000
337.775940	144.800000
337.869324	144.600000
337.962708	144.500000
338.056091	144.980000
338.149475	145.060000
338.242859	145.020000
338.336243	144.880000
338.429626	145.040000
338.523010	144.740000
338.616394	144.460000
338.709778	144.600000
338.803162	144.700000
338.896545	144.840000
338.989929	144.160000
339.083313	144.500000
339.176697	144.140000
339.270081	144.040000
339.363464	144.280000
339.456848	145.100000
339.550232	144.640000
339.643616	144.760000
339.737030	144.680000
339.830383	144.380000
339.923828	144.340000
340.017181	144.840000
340.110596	144.980000
340.203949	145.080000
340.297363	144.820000
340.390778	144.460000
340.484161	144.220000
340.577545	144.000000
340.670959	144.220000
340.764343	144.140000
340.857727	144.260000
340.951111	144.040000
341.044525	144.260000
341.137909	143.840000
341.231293	143.920000
341.324707	143.480000
341.418091	144.500000
341.511505	144.260000
341.604889	144.700000
341.698303	144.980000
341.791687	145.320000
341.885071	144.460000
341.978485	144.640000
342.071899	144.580000
342.165283	144.880000
342.258698	144.980000
342.352081	145.560000
342.445496	145.840000
342.538879	145.840000
342.632324	145.200000
342.725708	145.360000
342.819122	144.920000
342.912506	144.580000
343.005920	144.840000
343.099335	145.760000
343.192719	145.480000
343.286133	145.580000
343.379547	145.900000
343.472931	145.500000
343.566345	144.660000
343.659760	144.740000
343.753143	144.340000
343.846558	144.040000
343.939972	144.160000
344.033386	144.940000
344.126770	144.840000
344.220184	145.200000
344.313599	145.540000
344.407043	145.680000
344.500427	145.020000
344.593872	145.580000
344.687225	145.440000
344.780670	145.100000
344.874054	144.960000
344.967499	145.500000
345.060913	145.300000
345.154327	145.320000
345.247742	145.060000
345.341156	144.980000
345.434570	144.660000
345.527985	144.420000
345.621399	144.440000
345.714813	144.500000
345.808228	144.840000
345.901642	144.620000
345.995056	144.280000
346.088470	144.560000
346.181885	144.740000
346.275299	143.940000
346.368713	143.940000
346.462128	143.940000
346.555573	143.980000
346.648987	144.420000
346.742401	144.720000
346.835815	145.160000
346.929260	145.260000
347.022644	145.100000
347.116119	145.060000
347.209503	145.280000
347.302948	145.900000
347.396362	146.240000
347.489807	146.500000
347.583221	146.720000
347.676636	146.640000
347.770050	145.180000
347.863495	144.600000
347.956909	144.380000
348.050323	143.760000
348.143768	143.720000
348.237183	144.000000
348.330597	144.760000
348.424042	145.060000
348.517456	145.520000
348.610901	145.640000
348.704315	145.620000
348.797760	144.980000
348.891174	144.000000
348.984619	143.380000
349.078033	143.740000
349.171448	144.680000
349.264923	145.080000
349.358337	145.300000
349.451782	145.760000
349.545197	145.040000
349.638641	144.060000
349.732086	143.560000
349.825500	144.380000
349.918945	143.820000
350.012390	144.540000
350.105804	145.080000
350.199249	145.680000
350.292664	145.480000
350.386108	145.940000
350.479553	146.260000
350.572968	146.140000
350.666412	145.820000
350.759857	145.540000
350.853302	145.740000
350.946716	144.760000
351.040161	144.820000
351.133606	145.000000
351.227081	144.960000
351.320465	145.540000
351.413940	145.700000
351.507355	145.960000
351.600830	145.960000
351.694244	146.000000
351.787720	145.340000
351.881104	145.580000
351.974579	145.480000
352.067993	146.240000
352.161469	146.040000
352.254883	145.380000
352.348358	145.080000
352.441803	144.820000
352.535248	144.200000
352.628693	144.780000
352.722137	144.980000
352.815582	145.340000
352.909027	145.640000
353.002472	145.380000
353.095917	145.120000
353.189362	145.440000
353.282806	145.280000
353.376251	144.680000
353.469696	144.280000
353.563141	144.600000
353.656586	144.240000
353.750061	143.860000
353.843475	144.080000
353.936981	144.800000
354.030396	144.500000
354.123871	144.680000
354.217285	145.420000
354.310760	145.840000
354.404175	145.460000
354.497681	145.300000
354.591095	145.460000
354.684570	144.600000
354.777985	144.180000
354.871490	144.180000
354.964935	144.580000
355.058380	144.540000
355.151855	144.620000
355.245300	144.880000
355.338745	145.260000
355.432220	144.960000
355.525665	144.400000
355.619110	144.880000
355.712585	144.620000
355.806030	144.340000
355.899475	144.080000
355.992950	144.600000
356.086426	144.900000
356.179871	145.060000
356.273346	144.820000
356.366791	145.060000
356.460266	145.200000
356.553711	144.460000
356.647186	144.560000
356.740631	144.620000
356.834106	144.540000
356.927551	144.580000
357.021027	145.180000
357.114471	145.120000
357.207947	145.480000
357.301422	145.940000
357.394867	145.860000
357.488342	145.660000
357.581818	145.680000
357.675262	145.720000
357.768738	145.140000
357.862213	144.680000
357.955658	144.920000
358.049133	144.740000
358.142609	144.940000
358.236053	144.700000
358.329529	144.900000
358.423035	144.920000
358.516449	144.440000
358.609955	144.740000
358.703400	145.760000
358.796906	145.980000
358.890350	145.520000
358.983826	146.300000
359.077271	145.420000
359.170776	144.860000
359.264221	144.420000
359.357727	144.800000
359.451172	144.780000
359.544647	145.000000
359.638123	145.020000
359.731598	145.440000
359.825073	145.460000
359.918549	145.220000
360.012024	145.460000
360.105499	145.000000
360.198975	145.020000
360.292450	144.840000
360.385925	144.940000
360.479401	144.540000
360.572876	145.040000
360.666351	145.320000
360.759857	145.240000
360.853302	145.440000
360.946808	145.220000
361.040253	145.280000
361.133759	144.720000
361.227203	145.120000
361.320709	144.580000
361.414154	144.960000
361.507660	145.100000
361.601105	145.560000
361.694641	145.860000
361.788086	146.100000
361.881592	146.800000
361.975067	146.400000
362.068542	146.560000
362.162018	146.160000
362.255524	145.600000
362.348999	145.240000
362.442474	145.780000
362.535950	145.540000
362.629456	145.520000
362.722931	145.860000
362.816406	145.940000
362.909882	146.000000
363.003387	145.760000
363.096863	146.020000
363.190338	146.140000
363.283875	145.700000
363.377319	145.200000
363.470825	145.580000
363.564301	144.760000
363.657806	144.880000
363.751282	144.800000
363.844788	145.840000
363.938232	145.440000
364.031769	146.280000
364.125214	146.540000
364.218750	147.060000
364.312225	145.720000
364.405731	146.120000
364.499207	145.600000
364.592712	145.300000
364.686188	145.160000
364.779694	145.660000
364.873169	145.460000
364.966675	145.160000
365.060150	144.900000
365.153656	145.100000
365.247131	144.980000
365.340637	144.980000
365.434143	146.000000
365.527618	146.180000
365.621155	145.060000
365.714600	145.400000
365.808136	145.580000
365.901611	144.460000
365.995117	144.500000
366.088593	144.980000
366.182129	144.500000
366.275604	144.360000
366.369110	144.780000
366.462585	144.540000
366.556122	145.240000
366.649567	145.300000
366.743103	145.600000
366.836609	145.200000
366.930115	145.720000
367.023590	145.540000
367.117096	145.280000
367.210602	145.020000
367.304108	145.740000
367.397614	146.060000
367.491119	146.220000
367.584595	146.520000
367.678101	146.700000
367.771606	146.440000
367.865112	145.520000
367.958649	144.880000
368.052124	144.780000
368.145660	144.280000
368.239136	144.580000
368.332672	145.080000
368.426147	145.300000
368.519684	145.260000
368.613159	145.960000
368.706696	145.500000
368.800171	145.360000
368.893707	145.280000
368.987183	145.560000
369.080719	145.200000
369.174225	145.280000
369.267731	145.540000
369.361237	145.260000
369.454742	144.840000
369.548248	145.060000
369.641754	144.960000
369.735260	144.620000
369.828766	144.240000
369.922272	145.360000
370.015808	145.140000
370.109314	144.980000
370.202820	145.040000
370.296356	146.400000
370.389832	145.500000
370.483368	145.080000
370.576874	145.140000
370.670410	144.980000
370.763885	143.880000
370.857422	143.980000
370.950928	144.240000
371.044464	145.140000
371.137939	145.280000
371.231476	145.880000
371.324982	146.280000
371.418518	146.140000
371.512024	145.640000
371.605560	145.500000
371.699066	145.360000
371.792572	144.980000
371.886108	145.420000
371.979614	144.980000
372.073120	145.360000
372.166656	145.100000
372.260162	145.260000
372.353668	144.820000
372.447205	145.060000
372.540710	145.100000
372.634277	145.360000
372.727753	145.400000
372.821320	145.380000
372.914795	145.180000
373.008362	145.020000
373.101837	145.060000
373.195404	144.800000
373.288879	144.820000
373.382446	145.600000
373.475922	145.480000
373.569489	145.760000
373.662964	146.040000
373.756531	146.080000
373.850037	145.600000
373.943573	145.480000
374.037109	144.400000
374.130615	144.540000
374.224152	144.760000
374.317657	144.740000
374.411194	145.680000
374.504730	146.280000
374.598236	145.440000
374.691772	144.960000
374.785309	144.920000
374.878815	143.760000
374.972351	144.060000
375.065887	144.420000
375.159454	145.340000
375.252930	145.240000
375.346497	145.840000
375.440002	146.300000
375.533569	146.440000
375.627045	145.640000
375.720612	145.620000
375.814117	145.600000
375.907684	145.020000
376.001160	144.600000
376.094727	144.280000
376.188232	145.040000
376.281799	145.180000
376.375336	145.080000
376.468872	145.740000
376.562408	146.300000
376.655914	145.680000
376.749451	145.620000
376.842987	145.900000
376.936523	145.460000
377.030060	145.380000
377.123596	145.660000
377.217133	145.180000
377.310669	145.080000
377.404205	145.380000
377.497772	145.700000
377.591278	145.300000
377.684845	146.020000
377.778351	146.260000
377.871918	146.240000
377.965424	145.660000
378.058990	145.620000
378.152496	145.240000
378.246063	145.080000
378.339569	145.280000
378.433136	145.480000
378.526642	145.660000
378.620209	145.720000
378.713745	145.300000
378.807312	145.540000
378.900848	145.600000
378.994385	145.560000
379.087921	144.880000
379.181458	145.260000
379.274994	144.260000
379.368530	144.320000
379.462097	144.620000
379.555634	145.520000
379.649170	144.900000
379.742706	145.180000
379.836273	145.000000
379.929810	144.680000
380.023376	143.980000
380.116882	144.320000
380.210449	144.080000
380.303986	144.180000
380.397552	144.040000
380.491058	144.200000
380.584656	143.980000
380.678162	144.400000
380.771729	144.460000
380.865265	145.060000
380.958832	145.560000
381.052368	145.700000
381.145935	145.980000
381.239471	146.180000
381.333008	145.800000
381.426575	145.360000
381.520111	146.120000
381.613647	146.340000
381.707214	146.000000
381.800751	145.500000
381.894318	145.820000
381.987854	144.920000
382.081421	144.280000
382.174988	144.180000
382.268524	144.220000
382.362091	144.100000
382.455627	145.140000
382.549194	145.280000
382.642731	145.180000
382.736298	145.480000
382.829834	145.420000
382.923401	145.380000
383.016937	145.460000
383.110504	146.160000
383.204041	146.140000
383.297607	146.440000
383.391174	145.640000
383.484741	146.360000
383.578278	145.700000
383.671844	145.360000
383.765411	144.580000
383.858948	145.000000
383.952515	144.380000
384.046051	144.820000
384.139618	145.340000
384.233185	145.920000
384.326721	145.740000
384.420288	146.520000
384.513855	146.360000
384.607422	146.640000
384.700989	146.720000
384.794525	146.260000
384.888123	145.600000
384.981659	145.480000
385.075226	144.940000
385.168762	144.820000
385.262360	144.800000
385.355896	144.220000
385.449463	144.380000
385.542999	144.680000
385.636597	145.320000
385.730164	145.780000
385.823730	145.640000
385.917267	145.420000
386.010834	145.320000
386.104401	144.900000
386.197968	145.580000
386.291534	146.220000
386.385101	146.460000
386.478668	146.820000
386.572235	146.720000
386.665802	145.540000
386.759338	145.080000
386.852905	144.920000
386.946472	144.160000
387.040070	144.260000
387.133606	144.760000
387.227203	144.760000
387.320740	145.220000
387.414337	145.340000
387.507874	145.140000
387.601471	145.080000
387.695007	145.080000
387.788605	144.200000
387.882141	144.640000
387.975739	145.080000
388.069275	144.940000
388.162872	145.340000
388.256439	145.580000
388.350037	145.200000
388.443604	144.600000
388.537170	144.740000
388.630737	145.040000
388.724304	145.300000
388.817871	145.280000
388.911438	145.560000
389.005005	146.120000
389.098602	146.240000
389.192169	145.820000
389.285736	146.480000
389.379333	146.180000
389.472870	145.200000
389.566467	144.760000
389.660034	145.340000
389.753632	144.480000
389.847168	144.920000
389.940765	145.380000
390.034332	145.640000
390.127930	145.040000
390.221466	145.200000
390.315063	144.460000
390.408630	143.940000
390.502228	143.080000
390.595795	143.520000
390.689362	143.640000
390.782959	144.360000
390.876526	144.700000
390.970093	145.060000
391.063690	145.520000
391.157257	145.560000
391.250824	145.780000
391.344421	145.860000
391.437988	145.980000
391.531555	145.840000
391.625153	146.040000
391.718750	146.020000
391.812317	146.080000
391.905914	145.880000
391.999481	145.960000
392.093079	145.700000
392.186615	145.500000
392.280243	145.500000
392.373779	145.540000
392.467407	145.900000
392.560944	145.940000
392.654572	145.840000
392.748108	145.720000
392.841736	145.900000
392.935303	145.220000
393.028900	145.100000
393.122467	144.940000
393.216064	144.840000
393.309631	144.380000
393.403229	144.060000
393.496796	144.120000
393.590393	143.520000
393.683990	143.620000
393.777557	144.380000
393.871155	144.900000
393.964722	145.260000
394.058350	145.680000
394.151917	145.720000
394.245514	145.000000
394.339081	145.000000
394.432678	145.020000
394.526245	144.920000
394.619873	144.420000
394.713409	144.520000
394.807037	143.980000
394.900604	144.160000
394.994202	144.320000
395.087769	144.680000
395.181396	144.560000
395.274994	145.660000
395.368561	144.980000
395.462158	145.300000
395.555756	145.180000
395.649353	145.700000
395.742920	145.060000
395.836517	145.700000
395.930115	144.940000
396.023712	145.400000
396.117279	145.400000
396.210876	144.800000
396.304474	144.560000
396.398071	144.900000
396.491669	144.780000
396.585266	144.620000
396.678833	144.740000
396.772461	144.920000
396.866028	145.180000
396.959656	145.420000
397.053223	145.940000
397.146851	146.220000
397.240417	146.500000
397.334015	147.460000
397.427582	148.000000
397.521210	148.800000
397.614807	150.460000
397.708405	152.240000
397.802002	154.120000
397.895599	157.360000
397.989197	161.260000
398.082794	165.800000
398.176392	171.480000
398.269989	178.600000
398.363586	186.760000
398.457184	196.600000
398.550781	208.020000
398.644379	219.900000
398.737976	233.040000
398.831573	247.240000
398.925201	261.420000
399.018768	276.560000
399.112396	293.660000
399.205963	311.620000
399.299591	332.100000
399.393158	353.760000
399.486786	377.280000
399.580353	400.500000
399.673981	422.360000
399.767578	441.940000
399.861206	459.760000
399.954773	473.260000
400.048401	481.260000
400.141998	483.880000
400.235596	481.320000
400.329193	474.160000
400.422791	463.420000
400.516418	451.040000
400.610016	439.180000
400.703613	425.900000
400.797211	410.200000
400.890808	393.120000
400.984436	375.620000
401.078033	356.400000
401.171631	336.640000
401.265259	317.160000
401.358826	298.640000
401.452484	279.260000
401.546051	260.860000
401.639679	242.580000
401.733246	226.600000
401.826904	210.720000
401.920471	197.380000
402.014099	185.940000
402.107697	177.000000
402.201324	169.320000
402.294891	163.820000
402.388550	159.680000
402.482147	156.180000
402.575745	153.000000
402.669373	150.340000
402.762970	148.880000
402.856567	147.680000
402.950195	146.940000
403.043793	146.540000
403.137390	147.260000
403.231018	146.240000
403.324615	146.760000
403.418243	146.280000
403.511841	146.600000
403.605469	146.060000
403.699066	146.840000
403.792694	146.380000
403.886292	146.460000
403.979919	146.240000
404.073517	145.960000
404.167145	145.960000
404.260712	145.920000
404.354370	145.860000
404.447937	145.960000
404.541595	146.020000
404.635162	146.000000
404.728821	146.160000
404.822418	145.860000
404.916046	145.280000
405.009644	145.580000
405.103271	145.820000
405.196899	145.360000
405.290497	145.740000
405.384125	146.560000
405.477722	146.000000
405.571350	145.360000
405.664948	145.520000
405.758575	145.080000
405.852203	144.260000
405.945801	144.460000
406.039429	144.620000
406.133057	144.500000
406.226654	144.680000
406.320312	145.240000
406.413879	145.380000
406.507538	145.540000
406.601135	145.020000
406.694763	145.360000
406.788361	144.940000
406.882019	144.720000
406.975586	144.740000
407.069244	145.360000
407.162872	145.080000
407.256470	144.960000
407.350098	145.120000
407.443726	144.660000
407.537323	144.640000
407.630951	145.240000
407.724579	145.020000
407.818207	145.480000
407.911804	145.600000
408.005432	145.300000
408.099060	145.100000
408.192688	145.780000
408.286285	145.140000
408.379913	144.960000
408.473572	144.880000
408.567169	144.060000
408.660828	143.740000
408.754395	143.700000
408.848053	143.900000
408.941650	144.260000
409.035309	144.180000
409.128906	144.200000
409.222565	144.500000
409.316132	144.500000
409.409790	144.300000
409.503387	144.540000
409.597046	144.880000
409.690674	144.780000
409.784302	144.880000
409.877930	144.920000
409.971558	145.200000
410.065186	145.020000
410.158783	145.020000
410.252411	145.020000
410.346039	145.320000
410.439667	145.320000
410.533295	145.540000
410.626923	145.720000
410.720551	145.340000
410.814209	145.520000
410.907806	145.320000
411.001465	144.440000
411.095062	144.660000
411.188721	145.080000
411.282318	144.520000
411.375977	144.480000
411.469574	144.960000
411.563232	144.720000
411.656830	144.480000
411.750488	144.700000
411.844086	144.600000
411.937744	144.640000
412.031372	144.240000
412.125000	144.020000
412.218628	143.680000
412.312256	144.820000
412.405884	145.620000
412.499512	145.560000
412.593170	146.000000
412.686798	146.620000
412.780426	145.800000
412.874054	145.540000
412.967682	145.940000
413.061310	146.260000
413.154968	145.940000
413.248566	145.860000
413.342224	145.500000
413.435852	145.640000
413.529510	145.340000
413.623108	144.900000
413.716766	144.980000
413.810364	145.300000
413.904022	144.760000
413.997650	144.580000
414.091309	145.580000
414.184906	145.320000
414.278564	144.600000
414.372192	145.160000
414.465851	145.440000
414.559479	144.760000
414.653107	145.540000
414.746735	145.820000
414.840393	145.640000
414.934021	145.620000
415.027649	145.200000
415.121277	144.880000
415.214935	145.160000
415.308563	145.000000
415.402191	144.400000
415.495850	144.900000
415.589478	144.520000
415.683136	144.220000
415.776733	144.620000
415.870422	145.320000
415.964020	144.760000
416.057678	144.980000
416.151306	144.800000
416.244965	144.420000
416.338562	144.100000
416.432251	144.820000
416.525848	145.120000
416.619507	145.340000
416.713165	145.640000
416.806793	145.940000
416.900421	146.120000
416.994080	145.260000
417.087708	145.220000
417.181366	144.960000
417.274994	144.720000
417.368622	144.820000
417.462280	145.700000
417.555908	145.520000
417.649567	145.480000
417.743195	145.420000
417.836853	144.940000
417.930481	145.060000
418.024170	145.260000
418.117767	145.600000
418.211426	145.980000
418.305054	146.220000
418.398712	145.340000
418.492340	145.580000
418.585999	145.620000
418.679626	145.700000
418.773285	146.000000
418.866913	146.800000
418.960571	146.760000
419.054230	146.840000
419.147858	146.520000
419.241516	146.200000
419.335144	145.800000
419.428802	145.760000
419.522461	145.220000
419.616089	144.880000
419.709747	144.780000
419.803375	144.720000
419.897034	144.560000
419.990662	144.540000
420.084320	145.200000
420.177979	145.760000
420.271606	146.220000
420.365295	146.680000
420.458893	147.040000
420.552582	147.160000
420.646210	146.660000
420.739868	146.060000
420.833496	145.600000
420.927155	145.260000
421.020782	144.820000
421.114471	144.420000
421.208069	144.800000
421.301758	145.040000
421.395386	145.320000
421.489044	145.380000
421.582703	145.480000
421.676361	145.760000
421.769989	145.220000
421.863647	145.420000
421.957306	145.520000
422.050934	145.660000
422.144592	145.440000
422.238251	145.400000
422.331909	144.560000
422.425537	144.100000
422.519196	144.060000
422.612854	143.520000
422.706543	143.700000
422.800140	144.360000
422.893829	144.080000
422.987457	144.020000
423.081146	144.420000
423.174744	144.820000
423.268433	144.440000
423.362061	144.580000
423.455750	144.420000
423.549347	144.360000
423.643036	143.680000
423.736664	144.440000
423.830353	144.800000
423.924011	145.560000
424.017639	144.960000
424.111298	145.280000
424.204956	144.700000
424.298615	144.540000
424.392273	144.260000
424.485931	144.880000
424.579559	144.920000
424.673218	145.100000
424.766876	145.580000
424.860535	145.180000
424.954193	144.860000
425.047882	145.260000
425.141510	145.300000
425.235199	144.980000
425.328796	144.800000
425.422485	144.900000
425.516113	144.200000
425.609802	144.160000
425.703430	144.000000
425.797119	144.200000
425.890747	144.220000
425.984436	144.440000
426.078064	144.480000
426.171753	144.580000
426.265411	144.620000
426.359070	144.740000
426.452728	144.880000
426.546356	144.460000
426.640015	144.480000
426.733673	144.420000
426.827332	143.980000
426.920990	144.260000
427.014648	144.200000
427.108307	144.120000
427.201965	144.680000
427.295624	145.280000
427.389282	144.680000
427.482941	145.180000
427.576630	145.300000
427.670258	144.420000
427.763947	144.380000
427.857574	144.780000
427.951263	144.620000
428.044922	144.580000
428.138611	144.900000
428.232239	145.520000
428.325928	145.480000
428.419556	145.700000
428.513245	145.360000
428.606903	145.500000
428.700562	144.640000
428.794220	144.220000
428.887878	143.800000
428.981537	144.440000
429.075195	144.460000
429.168854	144.940000
429.262512	145.260000
429.356201	145.480000
429.449860	145.100000
429.543518	145.000000
429.637177	144.660000
429.730835	144.460000
429.824493	144.400000
429.918182	144.600000
430.011810	144.360000
430.105530	143.860000
430.199158	144.140000
430.292847	143.720000
430.386475	143.560000
430.480164	143.340000
430.573792	143.320000
430.667511	143.020000
430.761139	143.180000
430.854828	143.460000
430.948456	143.960000
431.042145	144.520000
431.135834	144.580000
431.229492	144.940000
431.323151	145.120000
431.416809	145.180000
431.510468	145.120000
431.604156	145.080000
431.697815	144.960000
431.791473	144.500000
431.885132	144.140000
431.978821	144.380000
432.072479	144.840000
432.166138	145.380000
432.259827	145.240000
432.353485	145.620000
432.447174	145.680000
432.540802	145.400000
432.634491	145.120000
432.728149	145.540000
432.821838	146.000000
432.915466	145.680000
433.009186	145.400000
433.102814	144.900000
433.196503	144.760000
433.290131	144.280000
433.383850	144.560000
433.477509	144.720000
433.571167	145.500000
433.664856	145.760000
433.758514	146.120000
433.852173	146.020000
433.945862	146.160000
434.039520	145.900000
434.133179	145.160000
434.226868	144.840000
434.320526	144.560000
434.414185	145.060000
434.507874	144.960000
434.601562	145.520000
434.695221	145.340000
434.788910	145.340000
434.882538	145.140000
434.976257	144.940000
435.069885	145.060000
435.163574	145.360000
435.257233	145.080000
435.350922	145.080000
435.444580	144.600000
435.538269	144.180000
435.631897	144.380000
435.725616	144.840000
435.819275	145.280000
435.912964	146.040000
436.006622	146.380000
436.100311	145.860000
436.193970	145.460000
436.287628	144.820000
436.381317	144.640000
436.474976	144.320000
436.568665	144.240000
436.662323	144.400000
436.756012	144.460000
436.849670	144.160000
436.943390	143.980000
437.037018	144.040000
437.130737	144.140000
437.224365	143.720000
437.318085	143.900000
437.411713	144.140000
437.505432	144.340000
437.599060	144.900000
437.692780	145.880000
437.786407	145.640000
437.880127	145.600000
437.973755	145.360000
438.067474	144.460000
438.161133	144.100000
438.254822	144.820000
438.348480	144.820000
438.442169	145.620000
438.535828	146.400000
438.629517	146.100000
438.723175	145.280000
438.816864	145.760000
438.910553	145.080000
439.004211	144.720000
439.097900	144.400000
439.191559	144.680000
439.285248	144.080000
439.378906	144.380000
439.472626	144.200000
439.566284	144.340000
439.659973	144.760000
439.753632	144.720000
439.847321	145.000000
439.940979	145.400000
440.034698	145.640000
440.128326	145.360000
440.222046	145.500000
440.315674	144.900000
440.409393	145.060000
440.503082	144.820000
440.596741	144.860000
440.690430	145.080000
440.784088	145.100000
440.877777	144.420000
440.971466	144.520000
441.065125	144.240000
441.158813	144.000000
441.252502	143.880000
441.346161	144.240000
441.439850	144.600000
441.533539	144.860000
441.627197	145.240000
441.720886	145.580000
441.814606	146.060000
441.908234	146.180000
442.001953	145.980000
442.095612	145.880000
442.189301	145.820000
442.282959	145.520000
442.376678	144.740000
442.470306	145.380000
442.564026	145.240000
442.657684	145.700000
442.751404	145.780000
442.845032	147.100000
442.938751	146.560000
443.032440	146.480000
443.126099	145.640000
443.219788	145.780000
443.313477	145.200000
443.407166	145.400000
443.500824	145.620000
443.594513	146.260000
443.688202	146.080000
443.781891	145.480000
443.875549	145.080000
443.969238	144.920000
444.062927	144.940000
444.156647	144.640000
444.250275	145.140000
444.343994	145.520000
444.437653	145.640000
444.531372	145.260000
444.625031	145.400000
444.718719	145.180000
444.812378	145.040000
444.906097	144.920000
444.999756	144.600000
445.093445	144.440000
445.187103	144.400000
445.280823	144.740000
445.374512	144.220000
445.468201	144.360000
445.561859	144.520000
445.655548	144.680000
445.749237	143.880000
445.842926	144.580000
445.936615	145.240000
446.030304	145.020000
446.123962	145.120000
446.217651	145.320000
446.311340	145.420000
446.405029	144.980000
446.498749	144.900000
446.592407	144.620000
446.686096	144.900000
446.779755	144.920000
446.873474	145.200000
446.967133	145.520000
447.060852	145.380000
447.154510	145.180000
447.248230	144.900000
447.341858	144.660000
447.435577	144.100000
447.529236	143.820000
447.622955	143.980000
447.716644	143.900000
447.810333	144.220000
447.904022	144.900000
447.997711	144.960000
448.091400	145.200000
448.185059	145.200000
448.278748	144.820000
448.372437	144.440000
448.466125	144.900000
448.559814	145.000000
448.653503	145.520000
448.747192	145.960000
448.840912	146.540000
448.934570	146.480000
449.028290	146.240000
449.121948	145.680000
449.215637	145.440000
449.309296	145.000000
449.403015	145.260000
449.496674	145.140000
449.590393	145.160000
449.684052	144.700000
449.777771	145.340000
449.871429	144.580000
449.965149	144.600000
450.058838	144.940000
450.152527	145.660000
450.246216	145.020000
450.339905	145.460000
450.433594	145.260000
450.527283	145.940000
450.620972	145.700000
450.714661	145.760000
450.808350	146.000000
450.902039	146.520000
450.995728	145.980000
451.089417	145.500000
451.183105	145.620000
451.276794	145.820000
451.370514	145.140000
451.464172	144.180000
451.557892	144.100000
451.651550	144.220000
451.745270	143.460000
451.838928	143.180000
451.932648	144.200000
452.026306	144.960000
452.120026	144.580000
452.213684	145.220000
452.307404	145.820000
452.401062	145.580000
452.494781	145.500000
452.588470	145.480000
452.682159	144.920000
452.775848	144.940000
452.869537	144.400000
452.963226	144.020000
453.056915	143.960000
453.150604	144.240000
453.244293	144.460000
453.337982	145.140000
453.431671	145.400000
453.525360	145.960000
453.619049	145.980000
453.712769	145.840000
453.806427	145.460000
453.900146	145.020000
453.993805	144.740000
454.087555	145.180000
454.181213	145.220000
454.274933	144.920000
454.368591	144.960000
454.462311	144.800000
454.555969	143.980000
454.649689	144.400000
454.743347	144.460000
454.837067	145.400000
454.930756	146.180000
455.024445	146.620000
455.118134	146.360000
455.211853	146.760000
455.305542	146.200000
455.399231	145.400000
455.492920	145.360000
455.586609	145.220000
455.680298	145.140000
455.773987	144.780000
455.867676	144.980000
455.961365	145.340000
456.055084	145.380000
456.148773	145.340000
456.242493	145.640000
456.336151	145.360000
456.429871	145.440000
456.523529	145.740000
456.617249	145.280000
456.710907	145.520000
456.804626	145.540000
456.898315	144.740000
456.992035	144.280000
457.085693	144.500000
457.179413	143.620000
457.273102	144.740000
457.366791	144.920000
457.460480	145.420000
457.554199	146.080000
457.647888	146.360000
457.741577	145.520000
457.835266	145.760000
457.928955	145.640000
458.022644	145.580000
458.116364	145.940000
458.210052	146.100000
458.303741	146.060000
458.397461	145.680000
458.491119	145.080000
458.584839	145.160000
458.678528	144.800000
458.772247	144.660000
458.865906	144.820000
458.959625	145.840000
459.053284	145.660000
459.147003	145.620000
459.240692	146.400000
459.334412	146.320000
459.428070	145.480000
459.521790	145.360000
459.615479	145.160000
459.709198	145.120000
459.802887	145.080000
459.896576	144.840000
459.990265	145.120000
460.083954	145.380000
460.177673	144.640000
460.271362	144.520000
460.365051	144.400000
460.458740	144.120000
460.552429	143.920000
460.646149	143.940000
460.739838	143.620000
460.833527	144.040000
460.927246	143.560000
461.020905	143.420000
461.114655	143.260000
461.208313	143.940000
461.302032	143.500000
461.395691	144.200000
461.489441	144.400000
461.583099	144.520000
461.676819	144.020000
461.770477	144.760000
461.864197	144.320000
461.957916	144.060000
462.051605	143.720000
462.145294	144.720000
462.238983	144.240000
462.332703	144.900000
462.426392	146.000000
462.520081	146.140000
462.613770	145.340000
462.707489	145.600000
462.801178	145.180000
462.894867	144.580000
462.988556	144.760000
463.082275	144.900000
463.175964	144.680000
463.269684	145.180000
463.363342	144.920000
463.457092	144.340000
463.550751	144.400000
463.644470	144.560000
463.738129	144.140000
463.831879	144.440000
463.925537	145.320000
464.019257	145.520000
464.112946	145.700000
464.206665	145.560000
464.300323	145.540000
464.394043	145.200000
464.487762	145.220000
464.581451	145.360000
464.675140	145.120000
464.768829	145.260000
464.862549	145.460000
464.956238	145.340000
465.049927	145.280000
465.143646	145.840000
465.237335	145.420000
465.331024	145.780000
465.424713	145.720000
465.518433	145.380000
465.612152	144.880000
465.705811	145.340000
465.799561	144.820000
465.893219	144.820000
465.986938	144.920000
466.080597	144.920000
466.174347	145.040000
466.268005	145.500000
466.361725	145.400000
466.455414	145.260000
466.549133	145.520000
466.642792	145.680000
466.736542	145.040000
466.830231	145.040000
466.923920	145.120000
467.017609	145.200000
467.111328	144.560000
467.205017	144.580000
467.298706	144.420000
467.392426	144.680000
467.486115	144.940000
467.579803	144.800000
467.673523	145.160000
467.767212	145.500000
467.860901	145.240000
467.954651	145.080000
468.048309	145.600000
468.142029	145.500000
468.235718	145.480000
468.329437	145.180000
468.423096	145.020000
468.516846	144.880000
468.610504	144.580000
468.704224	144.200000
468.797913	144.120000
468.891632	144.100000
468.985291	143.780000
469.079010	144.100000
469.172729	143.880000
469.266418	144.680000
469.360107	144.900000
469.453827	145.220000
469.547516	145.240000
469.641205	145.940000
469.734924	145.880000
469.828613	146.100000
469.922302	145.920000
470.016022	146.020000
470.109711	145.580000
470.203430	144.820000
470.297150	144.160000
470.390808	144.320000
470.484558	144.240000
470.578217	144.740000
470.671936	145.420000
470.765625	146.080000
470.859344	145.680000
470.953003	145.940000
471.046753	145.480000
471.140411	144.900000
471.234131	144.940000
471.327820	145.840000
471.421539	145.760000
471.515228	145.500000
471.608948	145.860000
471.702637	145.360000
471.796326	144.560000
471.890045	144.640000
471.983734	144.960000
472.077423	144.620000
472.171143	144.660000
472.264832	144.600000
472.358521	144.180000
472.452240	143.900000
472.545929	144.320000
472.639648	144.540000
472.733337	145.060000
472.827057	145.400000
472.920746	145.780000
473.014465	146.300000
473.108124	146.180000
473.201874	146.120000
473.295532	145.680000
473.389252	146.000000
473.482941	145.740000
473.576660	145.460000
473.670319	145.380000
473.764069	145.880000
473.857727	145.880000
473.951477	146.060000
474.045166	146.720000
474.138855	146.380000
474.232574	146.120000
474.326263	145.800000
474.419952	145.460000
474.513672	144.880000
474.607361	145.060000
474.701050	145.120000
474.794769	145.520000
474.888458	145.540000
474.982178	145.920000
475.075867	145.920000
475.169586	146.100000
475.263275	145.700000
475.356995	146.040000
475.450653	145.440000
475.544403	145.120000
475.638062	145.800000
475.731812	145.280000
475.825470	144.820000
475.919189	145.480000
476.012878	146.000000
476.106598	145.040000
476.200256	145.900000
476.294006	145.840000
476.387695	145.580000
476.481384	145.260000
476.575104	145.240000
476.668793	144.740000
476.762512	144.460000
476.856201	144.900000
476.949890	144.800000
477.043610	144.460000
477.137299	144.480000
477.230988	144.940000
477.324707	144.360000
477.418396	144.740000
477.512146	145.360000
477.605804	145.280000
477.699524	145.340000
477.793213	145.340000
477.886932	145.060000
477.980591	144.660000
478.074341	144.840000
478.167999	144.280000
478.261749	144.420000
478.355408	144.320000
478.449127	144.760000
478.542816	145.380000
478.636536	146.060000
478.730225	146.280000
478.823944	146.680000
478.917633	146.420000
479.011322	145.880000
479.105042	145.700000
479.198730	145.820000
479.292450	145.520000
479.386139	145.740000
479.479828	145.760000
479.573547	146.100000
479.667267	145.700000
479.760925	146.100000
479.854675	146.120000
479.948334	146.000000
480.042084	145.240000
480.135742	146.080000
480.229462	145.360000
480.323151	145.460000
480.416870	145.120000
480.510529	145.360000
480.604279	144.500000
480.697937	145.260000
480.791656	144.500000
480.885345	144.760000
480.979065	144.500000
481.072754	144.880000
481.166473	145.200000
481.260132	145.440000
481.353882	145.720000
481.447540	145.880000
481.541260	145.840000
481.635010	144.900000
481.728668	145.180000
481.822388	144.800000
481.916077	145.160000
482.009796	145.160000
482.103485	145.900000
482.197205	145.660000
482.290863	145.920000
482.384613	145.480000
482.478271	145.020000
482.571991	144.860000
482.665680	145.060000
482.759399	145.660000
482.853058	146.160000
482.946808	146.320000
483.040466	145.900000
483.134216	145.920000
483.227875	145.300000
483.321594	145.600000
483.415283	145.740000
483.509003	145.780000
483.602661	145.280000
483.696411	145.620000
483.790070	145.280000
483.883789	145.080000
483.977478	145.520000
484.071198	145.680000
484.164917	144.860000
484.258606	144.380000
484.352325	144.740000
484.445984	144.760000
484.539734	144.840000
484.633392	144.960000
484.727142	145.560000
484.820801	145.260000
484.914520	144.680000
485.008209	144.920000
485.101929	145.300000
485.195587	144.880000
485.289337	144.700000
485.382996	145.340000
485.476715	145.300000
485.570404	145.520000
485.664124	145.500000
485.757782	146.200000
485.851532	145.540000
485.945190	145.260000
486.038910	145.140000
486.132599	145.520000
486.226318	144.960000
486.319977	145.120000
486.413727	145.760000
486.507446	145.460000
486.601105	145.200000
486.694855	144.800000
486.788513	144.640000
486.882233	144.120000
486.975922	143.980000
487.069641	143.480000
487.163300	143.900000
487.257050	145.080000
487.350708	145.140000
487.444427	145.360000
487.538116	145.580000
487.631836	145.300000
487.725494	144.480000
487.819214	144.520000
487.912903	144.580000
488.006622	145.060000
488.100281	145.280000
488.194031	145.440000
488.287689	145.720000
488.381409	146.260000
488.475098	145.980000
488.568817	146.300000
488.662476	145.680000
488.756226	145.280000
488.849945	144.400000
488.943604	144.200000
489.037354	144.100000
489.131012	144.320000
489.224731	144.180000
489.318390	144.340000
489.412140	144.700000
489.505798	144.500000
489.599518	144.540000
489.693207	145.060000
489.786926	145.120000
489.880585	144.840000
489.974335	145.080000
490.067993	145.720000
490.161713	145.780000
490.255371	146.400000
490.349121	146.480000
490.442780	146.440000
490.536499	145.620000
490.630188	145.420000
490.723907	144.820000
490.817566	144.700000
490.911285	144.660000
491.004974	144.840000
491.098694	144.520000
491.192413	145.120000
491.286102	145.220000
491.379822	145.420000
491.473480	145.600000
491.567200	145.520000
491.660889	144.540000
491.754608	144.780000
491.848267	144.680000
491.941986	144.460000
492.035675	144.660000
492.129395	145.400000
492.223053	144.960000
492.316772	144.880000
492.410461	145.040000
492.504181	145.120000
492.597839	144.660000
492.691559	145.080000
492.785248	145.240000
492.878967	145.300000
492.972626	145.060000
493.066345	145.080000
493.160034	144.460000
493.253754	144.460000
493.347412	144.060000
493.441132	144.400000
493.534882	144.960000
493.628540	145.540000
493.722260	145.580000
493.815918	146.220000
493.909668	146.460000
494.003326	146.400000
494.097046	146.200000
494.190704	146.080000
494.284454	145.880000
494.378113	145.940000
494.471832	145.920000
494.565491	145.860000
494.659210	145.660000
494.752899	145.480000
494.846619	144.840000
494.940277	144.760000
495.033997	144.520000
495.127686	144.260000
495.221405	144.300000
495.315063	144.640000
495.408783	144.280000
495.502441	144.760000
495.596191	144.980000
495.689850	144.840000
495.783569	145.100000
495.877228	145.220000
495.970947	144.980000
496.064697	145.040000
496.158356	145.720000
496.252075	145.500000
496.345734	145.460000
496.439453	146.060000
496.533142	146.020000
496.626862	145.940000
496.720520	146.100000
496.814240	146.220000
496.907898	145.840000
497.001617	146.060000
497.095306	145.100000
497.189026	144.980000
497.282684	145.040000
497.376404	145.040000
497.470062	144.820000
497.563782	145.560000
497.657471	145.440000
497.751190	145.060000
497.844849	145.080000
497.938568	145.400000
498.032227	145.040000
498.125946	144.800000
498.219635	144.740000
498.313354	144.800000
498.407074	144.360000
498.500732	144.460000
498.594452	144.700000
498.688110	144.800000
498.781830	144.320000
498.875519	144.600000
498.969238	144.780000
499.062897	144.640000
499.156616	145.080000
499.250275	145.460000
499.343994	144.940000
499.437653	144.720000
499.531372	145.120000
499.625061	145.680000
499.718781	146.060000
499.812439	146.560000
499.906158	146.340000
499.999817	145.980000
500.093536	145.160000
500.187195	144.920000
500.280914	145.060000
500.374573	145.440000
500.468323	145.380000
500.561981	145.660000
500.655701	145.100000
500.749420	144.940000
500.843079	145.160000
500.936798	145.040000
501.030457	145.180000
501.124176	145.540000
501.217834	145.380000
501.311554	144.900000
501.405212	145.080000
501.498962	144.320000
501.592621	144.260000
501.686340	144.800000
501.779999	145.000000
501.873718	144.860000
501.967377	145.500000
502.061096	145.820000
502.154755	144.940000
502.248474	145.160000
502.342133	145.620000
502.435852	145.420000
502.529510	145.860000
502.623230	146.740000
502.716888	146.120000
502.810608	145.900000
502.904266	146.240000
502.997986	145.500000
503.091705	144.740000
503.185364	145.180000
503.279083	145.180000
503.372772	145.120000
503.466492	145.060000
503.560150	145.420000
503.653870	145.420000
503.747528	145.360000
503.841248	145.000000
503.934906	145.180000
504.028625	144.760000
504.122284	144.860000
504.216003	145.200000
504.309662	144.740000
504.403381	144.780000
504.497040	145.320000
504.590759	145.120000
504.684418	145.360000
504.778137	146.280000
504.871796	146.340000
504.965515	145.920000
505.059174	146.040000
505.152893	145.360000
505.246521	144.500000
505.340240	144.340000
505.433899	144.560000
505.527618	144.860000
505.621338	145.160000
505.714996	145.340000
505.808716	145.360000
505.902374	145.680000
505.996094	145.400000
506.089752	145.000000
506.183472	145.420000
506.277130	145.400000
506.370850	145.220000
506.464508	145.000000
506.558228	145.180000
506.651886	144.640000
506.745605	144.660000
506.839264	144.680000
506.932983	144.900000
507.026611	145.000000
507.120331	145.620000
507.213989	145.140000
507.307709	145.000000
507.401367	145.220000
507.495087	145.840000
507.588745	145.400000
507.682465	146.500000
507.776123	146.300000
507.869843	146.240000
507.963531	145.960000
508.057190	146.380000
508.150909	145.620000
508.244568	146.040000
508.338287	145.540000
508.431946	145.300000
508.525665	144.940000
508.619324	144.820000
508.713013	145.400000
508.806671	145.840000
508.900391	146.440000
508.994049	146.780000
509.087769	146.580000
509.181427	145.720000
509.275146	145.120000
509.368774	144.280000
509.462494	144.080000
509.556152	144.380000
509.649872	144.920000
509.743530	145.760000
509.837250	145.880000
509.930878	146.040000
510.024597	145.880000
510.118256	145.700000
510.211975	145.040000
510.305695	144.820000
510.399353	145.060000
510.493042	145.560000
510.586700	145.640000
510.680420	146.320000
510.774078	146.360000
510.867798	146.300000
510.961426	145.680000
511.055145	145.200000
511.148804	144.700000
511.242523	144.980000
511.336151	144.860000
511.429871	145.540000
511.523529	145.580000
511.617249	145.240000
511.710876	144.980000
511.804596	144.520000
511.898254	144.200000
511.991974	144.500000
512.085632	144.680000
512.179321	144.960000
512.272949	145.420000
512.366699	145.880000
512.460327	145.700000
512.554077	146.360000
512.647766	146.240000
512.741394	146.120000
512.835144	146.360000
512.928772	146.080000
513.022461	145.660000
513.116150	145.060000
513.209839	145.480000
513.303467	144.600000
513.397217	144.440000
513.490845	144.000000
513.584595	144.360000
513.678223	143.540000
513.771912	143.140000
513.865601	143.260000
513.959290	143.500000
514.052917	143.720000
514.146667	144.380000
514.240295	145.020000
514.333984	145.460000
514.427673	145.440000
514.521362	145.700000
514.614990	145.240000
514.708740	145.120000
514.802368	144.880000
514.896057	145.100000
514.989746	145.620000
515.083435	145.480000
515.177124	145.620000
515.270752	145.360000
515.364502	145.320000
515.458130	145.060000
515.551819	144.860000
515.645508	144.720000
515.739197	145.240000
515.832825	145.320000
515.926575	144.860000
516.020203	145.440000
516.113892	146.060000
516.207520	145.760000
516.301270	146.000000
516.394897	146.280000
516.488586	146.540000
516.582275	146.140000
516.675964	145.560000
516.769592	145.000000
516.863281	145.400000
516.956970	145.520000
517.050659	145.260000
517.144287	145.760000
517.238037	146.020000
517.331665	145.160000
517.425354	144.620000
517.519043	144.460000
517.612732	144.480000
517.706421	144.480000
517.800049	144.440000
517.893738	143.800000
517.987427	143.940000
518.081116	143.740000
518.174744	143.220000
518.268433	143.600000
518.362122	144.640000
518.455811	144.680000
518.549438	145.540000
518.643127	146.700000
518.736816	146.280000
518.830505	145.900000
518.924133	145.680000
519.017822	145.500000
519.111511	145.020000
519.205200	145.700000
519.298828	145.720000
519.392517	145.960000
519.486206	146.300000
519.579895	146.240000
519.673523	145.960000
519.767212	146.020000
519.860901	146.060000
519.954590	145.300000
520.048279	145.260000
520.141907	145.060000
520.235596	145.820000
520.329224	146.160000
520.422974	146.320000
520.516602	146.100000
520.610291	145.680000
520.703918	145.040000
520.797607	144.720000
520.891296	144.620000
520.984985	145.040000
521.078613	145.940000
521.172302	145.260000
521.265930	145.940000
521.359680	146.740000
521.453308	146.220000
521.546997	145.940000
521.640625	146.520000
521.734314	146.140000
521.827942	145.680000
521.921692	146.040000
522.015320	146.140000
522.109009	145.900000
522.202698	145.960000
522.296326	145.940000
522.390015	146.280000
522.483704	146.520000
522.577393	146.840000
522.671021	146.280000
522.764709	145.960000
522.858337	146.360000
522.952026	146.020000
523.045654	146.280000
523.139404	147.040000
523.233032	147.200000
523.326721	146.480000
523.420349	146.540000
523.514038	146.200000
523.607666	146.200000
523.701355	145.820000
523.795044	145.940000
523.888733	146.080000
523.982361	146.320000
524.076050	145.900000
524.169678	146.720000
524.263367	146.340000
524.356995	145.900000
524.450684	145.560000
524.544373	145.380000
524.638062	144.900000
524.731750	145.180000
524.825378	145.380000
524.919067	145.000000
525.012695	145.140000
525.106384	144.640000
525.200012	144.600000
525.293701	144.560000
525.387329	145.220000
525.481018	145.320000
525.574646	145.880000
525.668396	145.820000
525.762024	146.120000
525.855713	146.060000
525.949341	145.640000
526.043030	145.700000
526.136658	145.620000
526.230347	144.980000
526.323975	144.840000
526.417664	144.840000
526.511292	144.740000
526.604980	144.880000
526.698608	145.400000
526.792297	145.480000
526.885925	146.020000
526.979614	146.260000
527.073303	146.040000
527.166931	145.840000
527.260620	145.920000
527.354309	146.260000
527.447998	146.140000
527.541626	146.340000
527.635315	146.320000
527.728943	146.820000
527.822632	146.720000
527.916260	146.580000
528.009949	146.560000
528.103577	146.480000
528.197266	145.640000
528.290894	145.200000
528.384583	144.960000
528.478210	144.880000
528.571899	144.820000
528.665527	145.100000
528.759216	145.580000
528.852844	145.940000
528.946533	146.120000
529.040161	146.360000
529.133850	145.940000
529.227478	145.840000
529.321167	146.100000
529.414856	146.080000
529.508484	146.500000
529.602173	146.440000
529.695801	146.120000
529.789490	146.160000
529.883057	145.940000
529.976746	145.440000
530.070374	145.840000
530.164062	145.820000
530.257690	145.880000
530.351379	146.440000
530.445007	146.680000
530.538696	146.420000
530.632324	146.620000
530.726013	146.380000
530.819641	145.800000
530.913330	145.700000
531.006958	145.500000
531.100647	145.440000
531.194275	145.320000
531.287964	145.280000
531.381592	145.060000
531.475220	145.420000
531.568848	145.480000
531.662537	145.380000
531.756226	146.080000
531.849854	145.960000
531.943542	145.840000
532.037170	145.340000
532.130859	145.720000
532.224487	144.980000
532.318176	144.820000
532.411804	145.400000
532.505432	145.820000
532.599060	145.480000
532.692749	145.560000
532.786377	146.200000
532.880066	145.520000
532.973694	144.720000
533.067383	144.760000
533.161011	144.680000
533.254639	144.300000
533.348267	144.080000
533.441956	145.020000
533.535583	144.900000
533.629272	144.920000
533.722900	144.400000
533.816589	144.800000
533.910156	144.680000
534.003845	144.340000
534.097534	144.960000
534.191162	146.000000
534.284851	146.100000
534.378479	145.680000
534.472107	145.920000
534.565735	145.320000
534.659424	145.300000
534.753052	145.340000
534.846741	145.100000
534.940369	145.760000
535.033997	146.020000
535.127625	145.920000
535.221313	146.340000
535.314941	146.580000
535.408630	145.640000
535.502197	145.860000
535.595886	145.240000
535.689514	144.780000
535.783203	145.200000
535.876831	145.860000
535.970459	145.580000
536.064087	145.780000
536.157776	145.640000
536.251404	145.200000
536.345093	145.020000
536.438721	144.900000
536.532349	145.060000
536.626038	144.740000
536.719666	145.360000
536.813293	145.180000
536.906921	145.180000
537.000610	145.320000
537.094238	145.760000
537.187866	145.260000
537.281494	145.140000
537.375183	145.500000
537.468811	145.100000
537.562439	144.840000
537.656067	144.980000
537.749756	145.040000
537.843384	145.440000
537.937012	146.040000
538.030640	145.980000
538.124329	145.840000
538.217896	146.440000
538.311584	146.200000
538.405212	145.760000
538.498901	146.180000
538.592468	147.260000
538.686157	146.660000
538.779785	145.920000
538.873413	146.040000
538.967102	145.620000
539.060730	144.560000
539.154358	144.980000
539.247986	145.720000
539.341675	145.660000
539.435242	145.960000
539.528931	146.120000
539.622559	145.680000
539.716187	145.920000
539.809814	145.880000
539.903503	145.800000
539.997070	145.600000
540.090759	145.620000
540.184387	145.260000
540.278015	145.540000
540.371643	145.800000
540.465332	145.700000
540.558899	145.620000
540.652588	145.320000
540.746216	145.100000
540.839844	145.300000
540.933472	145.460000
541.027100	145.460000
541.120728	145.400000
541.214417	145.520000
541.308044	145.420000
541.401672	145.500000
541.495300	145.600000
541.588928	145.680000
541.682617	145.240000
541.776184	144.860000
541.869873	145.300000
541.963440	145.420000
542.057129	145.700000
542.150757	146.360000
542.244385	146.200000
542.338013	145.460000
542.431641	145.460000
542.525269	145.200000
542.618958	145.200000
542.712524	145.540000
542.806213	145.680000
542.899780	145.600000
542.993469	145.480000
543.087036	145.180000
543.180725	144.760000
543.274292	145.240000
543.367981	145.480000
543.461548	145.800000
543.555237	145.680000
543.648926	146.440000
543.742493	146.760000
543.836182	146.840000
543.929749	146.800000
544.023437	146.940000
544.117004	146.620000
544.210693	146.580000
544.304260	146.660000
544.397949	146.320000
544.491516	146.640000
544.585205	146.680000
544.678772	146.060000
544.772461	146.260000
544.866028	146.340000
544.959717	146.160000
545.053284	145.780000
545.146973	146.080000
545.240540	145.920000
545.334229	146.720000
545.427795	147.160000
545.521423	147.360000
545.615051	147.420000
545.708679	147.520000
545.802307	147.020000
545.895935	147.120000
545.989624	147.700000
546.083191	147.440000
546.176880	147.520000
546.270447	147.100000
546.364136	147.220000
546.457703	147.020000
546.551331	147.100000
546.644958	146.900000
546.738586	147.320000
546.832214	146.400000
546.925842	146.040000
547.019409	146.280000
547.113098	145.640000
547.206665	145.140000
547.300354	145.420000
547.393921	145.800000
547.487549	146.240000
547.581177	146.180000
547.674805	146.400000
547.768433	145.660000
547.862061	145.120000
547.955627	144.140000
548.049316	145.140000
548.142883	145.540000
548.236572	146.160000
548.330139	146.580000
548.423767	146.360000
548.517456	145.980000
548.611023	146.040000
548.704651	145.540000
548.798279	145.540000
548.891907	146.300000
548.985474	145.780000
549.079163	145.400000
549.172729	145.400000
549.266357	144.760000
549.359985	144.680000
549.453613	144.380000
549.547180	144.160000
549.640869	144.680000
549.734436	144.880000
549.828064	145.120000
549.921631	145.420000
550.015320	145.240000
550.108887	145.300000
550.202515	145.320000
550.296143	144.740000
550.389771	144.640000
550.483337	144.880000
550.576965	144.660000
550.670593	145.080000
550.764221	145.260000
550.857849	145.660000
550.951477	145.400000
551.045105	145.140000
551.138672	145.020000
551.232300	144.740000
551.325928	144.780000
551.419556	145.260000
551.513123	145.480000
551.606750	145.140000
551.700378	145.260000
551.794006	145.080000
551.887573	144.800000
551.981201	145.220000
552.074768	145.020000
552.168457	144.640000
552.262024	145.380000
552.355652	145.300000
552.449219	145.560000
552.542847	145.920000
552.636475	146.060000
552.730103	145.180000
552.823669	145.380000
552.917297	144.800000
553.010864	144.920000
553.104553	145.180000
553.198181	145.240000
553.291748	145.420000
553.385376	145.700000
553.478943	145.360000
553.572571	145.320000
553.666199	145.360000
553.759827	145.180000
553.853394	144.520000
553.947021	144.860000
554.040588	144.900000
554.134216	145.180000
554.227783	146.120000
554.321411	146.920000
554.415039	146.340000
554.508667	146.460000
554.602234	146.740000
554.695862	145.580000
554.789429	145.340000
554.883057	145.720000
554.976624	145.340000
555.070251	144.960000
555.163818	145.160000
555.257507	145.100000
555.351074	145.240000
555.444702	146.360000
555.538330	146.020000
555.631897	146.300000
555.725525	146.340000
555.819092	146.140000
555.912720	144.900000
556.006287	145.660000
556.099915	145.580000
556.193481	145.460000
556.287109	145.560000
556.380676	145.540000
556.474304	145.140000
556.567871	145.080000
556.661499	144.580000
556.755066	144.620000
556.848694	144.880000
556.942261	144.840000
557.035889	144.960000
557.129517	145.540000
557.223145	145.960000
557.316711	146.160000
557.410339	146.360000
557.503906	145.960000
557.597473	146.200000
557.691040	145.780000
557.784668	145.620000
557.878296	145.480000
557.971863	145.940000
558.065491	145.800000
558.159058	145.700000
558.252686	146.660000
558.346252	147.160000
558.439880	146.980000
558.533447	146.640000
558.627075	146.380000
558.720642	145.400000
558.814270	144.720000
558.907837	144.480000
559.001465	144.080000
559.095032	144.680000
559.188660	145.080000
559.282227	144.960000
559.375854	145.580000
559.469360	145.700000
559.562988	146.000000
559.656555	145.760000
559.750183	146.080000
559.843750	146.060000
559.937378	146.580000
560.030945	146.140000
560.124573	0.000000
560.218140	0.000000
560.311707	0.000000
560.405334	0.000000
560.498901	0.000000
560.592529	0.000000
560.686096	0.000000
560.779724	0.000000
560.873291	0.000000
560.966858	0.000000
561.060425	0.000000
561.154053	0.000000
561.247620	0.000000
561.341248	0.000000
561.434814	0.000000
561.528381	0.000000
561.621948	0.000000
561.715576	0.000000
561.809143	0.000000
561.902771	0.000000
561.996277	0.000000
562.089905	0.000000
562.183472	0.000000
562.277100	0.000000
