Model Number: SPM-002-B   
Serial Number: 70087108
Firmware Version: 004.15.4
Exposure Time: 100000.000000us
Data Taken on: 11-12-2020 19:31:35.701
Wavelength	Amplitude
221.570786	0.000000
221.663406	0.000000
221.756027	0.000000
221.848648	0.000000
221.941269	0.000000
222.033905	0.000000
222.126526	0.000000
222.219162	0.000000
222.311798	0.000000
222.404419	0.000000
222.497055	0.000000
222.589676	0.000000
222.682312	0.000000
222.774933	0.000000
222.867569	0.000000
222.960205	0.000000
223.052841	0.000000
223.145462	0.000000
223.238098	0.000000
223.330734	0.000000
223.423386	0.000000
223.516022	0.000000
223.608658	0.000000
223.701309	0.000000
223.793945	0.000000
223.886581	0.000000
223.979218	0.000000
224.071869	0.000000
224.164505	0.000000
224.257156	0.000000
224.349792	0.000000
224.442444	0.000000
224.535095	0.000000
224.627747	0.000000
224.720398	0.000000
224.813034	0.000000
224.905685	0.000000
224.998337	145.320000
225.090988	145.220000
225.183640	145.560000
225.276291	145.240000
225.368942	145.660000
225.461594	145.920000
225.554245	146.320000
225.646912	146.160000
225.739578	146.880000
225.832230	147.000000
225.924896	146.480000
226.017548	146.460000
226.110199	147.180000
226.202866	146.440000
226.295532	146.020000
226.388184	145.940000
226.480850	145.480000
226.573517	144.720000
226.666168	145.120000
226.758835	145.840000
226.851501	146.780000
226.944183	147.180000
227.036850	146.800000
227.129517	146.880000
227.222183	146.840000
227.314850	146.580000
227.407516	146.680000
227.500198	147.680000
227.592865	147.120000
227.685532	146.540000
227.778214	146.040000
227.870880	146.100000
227.963562	146.400000
228.056229	146.900000
228.148926	146.960000
228.241592	147.920000
228.334274	147.640000
228.426956	147.100000
228.519638	147.180000
228.612305	146.820000
228.704987	146.300000
228.797668	146.380000
228.890350	145.940000
228.983032	145.140000
229.075714	146.000000
229.168396	145.980000
229.261108	145.400000
229.353790	145.540000
229.446472	146.040000
229.539169	145.400000
229.631851	145.040000
229.724533	145.740000
229.817230	146.060000
229.909912	147.080000
230.002609	147.540000
230.095306	147.620000
230.187988	147.360000
230.280685	147.040000
230.373383	145.740000
230.466095	145.480000
230.558792	145.680000
230.651474	145.720000
230.744171	145.800000
230.836868	146.180000
230.929581	146.360000
231.022278	146.320000
231.114975	146.300000
231.207672	146.080000
231.300369	146.080000
231.393082	145.900000
231.485779	145.920000
231.578506	145.880000
231.671204	146.300000
231.763916	146.200000
231.856613	146.120000
231.949326	146.200000
232.042023	146.260000
232.134735	146.020000
232.227448	145.760000
232.320160	146.280000
232.412872	146.260000
232.505585	147.080000
232.598297	147.400000
232.691010	147.420000
232.783722	146.800000
232.876450	147.180000
232.969162	146.160000
233.061874	145.760000
233.154587	145.580000
233.247314	145.980000
233.340027	145.400000
233.432739	146.080000
233.525467	146.040000
233.618179	146.600000
233.710907	146.240000
233.803635	146.680000
233.896347	146.020000
233.989090	146.640000
234.081818	146.260000
234.174545	146.620000
234.267258	146.100000
234.359985	146.400000
234.452713	146.240000
234.545441	146.220000
234.638168	145.920000
234.730896	146.500000
234.823639	146.500000
234.916367	146.460000
235.009094	146.740000
235.101822	146.920000
235.194580	146.520000
235.287308	146.440000
235.380051	145.880000
235.472778	146.000000
235.565521	146.100000
235.658249	145.980000
235.750992	145.980000
235.843719	146.440000
235.936462	146.740000
236.029205	146.180000
236.121948	146.180000
236.214691	146.480000
236.307449	146.920000
236.400192	146.360000
236.492935	146.200000
236.585678	146.380000
236.678421	146.340000
236.771164	145.640000
236.863907	146.140000
236.956665	146.640000
237.049408	148.120000
237.142151	147.620000
237.234909	148.480000
237.327652	147.900000
237.420410	147.720000
237.513153	146.480000
237.605927	146.600000
237.698669	145.940000
237.791428	145.720000
237.884186	146.080000
237.976944	145.440000
238.069702	145.560000
238.162445	145.480000
238.255203	145.920000
238.347961	146.420000
238.440720	146.860000
238.533478	146.760000
238.626266	146.280000
238.719025	146.420000
238.811783	145.860000
238.904541	145.700000
238.997314	145.780000
239.090073	145.840000
239.182831	146.020000
239.275604	146.600000
239.368362	146.380000
239.461136	146.060000
239.553909	146.020000
239.646667	145.480000
239.739441	145.040000
239.832214	145.220000
239.925003	145.620000
240.017761	146.400000
240.110535	147.160000
240.203308	146.520000
240.296082	146.800000
240.388855	146.740000
240.481628	146.600000
240.574417	146.260000
240.667191	146.540000
240.759964	146.260000
240.852737	146.080000
240.945526	145.660000
241.038315	145.660000
241.131088	145.840000
241.223877	146.300000
241.316650	146.040000
241.409439	146.400000
241.502228	146.060000
241.595001	146.660000
241.687790	146.260000
241.780579	146.540000
241.873367	146.620000
241.966141	147.020000
242.058929	146.080000
242.151718	146.260000
242.244507	146.420000
242.337311	145.620000
242.430099	145.860000
242.522903	146.300000
242.615692	145.740000
242.708481	145.920000
242.801270	146.760000
242.894073	146.360000
242.986862	146.360000
243.079651	147.260000
243.172455	146.760000
243.265244	146.780000
243.358063	146.300000
243.450867	146.540000
243.543655	146.000000
243.636459	146.060000
243.729263	146.120000
243.822067	146.760000
243.914856	147.000000
244.007660	147.180000
244.100464	147.360000
244.193268	146.640000
244.286072	146.300000
244.378876	145.680000
244.471680	145.520000
244.564499	145.980000
244.657318	146.900000
244.750122	147.160000
244.842926	146.720000
244.935745	146.820000
245.028549	146.080000
245.121368	145.960000
245.214172	146.300000
245.306992	146.920000
245.399796	146.500000
245.492615	147.000000
245.585434	146.540000
245.678253	145.960000
245.771072	145.840000
245.863892	146.460000
245.956711	146.320000
246.049530	146.240000
246.142349	146.140000
246.235168	146.160000
246.327988	146.280000
246.420807	146.140000
246.513626	146.380000
246.606445	146.260000
246.699280	146.320000
246.792099	146.160000
246.884918	145.860000
246.977753	145.620000
247.070587	145.960000
247.163422	145.680000
247.256241	145.440000
247.349075	145.900000
247.441895	146.020000
247.534729	145.960000
247.627563	146.180000
247.720383	146.980000
247.813217	147.020000
247.906052	146.820000
247.998886	146.760000
248.091736	146.620000
248.184570	146.120000
248.277405	146.320000
248.370239	147.340000
248.463074	148.440000
248.555908	148.620000
248.648743	148.240000
248.741592	147.920000
248.834427	147.220000
248.927261	145.720000
249.020111	146.260000
249.112946	147.060000
249.205795	146.780000
249.298630	146.760000
249.391495	147.300000
249.484344	146.480000
249.577179	145.980000
249.670029	146.360000
249.762878	146.680000
249.855728	146.680000
249.948563	146.620000
250.041412	146.300000
250.134262	146.400000
250.227112	146.340000
250.319962	146.300000
250.412827	146.780000
250.505692	146.480000
250.598541	146.320000
250.691391	145.940000
250.784241	145.740000
250.877106	145.660000
250.969955	145.980000
251.062805	146.560000
251.155670	147.240000
251.248520	147.200000
251.341385	147.420000
251.434235	147.000000
251.527100	146.360000
251.619965	145.860000
251.712814	146.940000
251.805695	146.640000
251.898560	147.400000
251.991425	147.760000
252.084290	147.840000
252.177155	146.800000
252.270020	146.420000
252.362885	146.100000
252.455750	145.820000
252.548615	145.300000
252.641479	145.180000
252.734360	145.360000
252.827240	145.240000
252.920105	145.720000
253.012970	145.660000
253.105850	145.700000
253.198715	145.360000
253.291595	145.580000
253.384460	144.660000
253.477341	144.820000
253.570221	145.200000
253.663086	145.340000
253.755966	145.760000
253.848846	146.040000
253.941727	146.520000
254.034592	146.300000
254.127472	146.040000
254.220367	145.840000
254.313248	146.100000
254.406128	145.820000
254.499008	146.020000
254.591904	147.100000
254.684784	147.540000
254.777664	147.460000
254.870544	147.140000
254.963440	147.140000
255.056335	146.920000
255.149216	146.200000
255.242111	146.620000
255.334991	146.960000
255.427887	147.180000
255.520767	147.020000
255.613663	147.460000
255.706558	146.700000
255.799438	146.300000
255.892334	145.660000
255.985229	145.680000
256.078125	145.160000
256.171021	145.300000
256.263916	145.880000
256.356812	146.240000
256.449707	146.320000
256.542603	146.520000
256.635498	147.000000
256.728394	146.780000
256.821289	146.620000
256.914215	146.700000
257.007080	147.080000
257.100006	147.040000
257.192932	147.380000
257.285828	147.800000
257.378723	147.380000
257.471619	146.760000
257.564545	146.280000
257.657440	146.220000
257.750336	146.100000
257.843262	146.100000
257.936157	147.140000
258.029053	147.620000
258.121979	147.400000
258.214874	147.240000
258.307800	147.120000
258.400696	146.040000
258.493622	145.680000
258.586517	145.220000
258.679443	145.420000
258.772339	145.280000
258.865265	145.380000
258.958160	145.100000
259.051086	145.860000
259.144012	145.760000
259.236938	146.500000
259.329834	146.560000
259.422791	146.620000
259.515717	146.000000
259.608612	145.700000
259.701538	145.640000
259.794464	145.600000
259.887390	145.680000
259.980316	145.800000
260.073212	145.660000
260.166138	144.820000
260.259064	145.200000
260.351990	145.880000
260.444916	145.740000
260.537842	146.100000
260.630768	146.840000
260.723694	146.580000
260.816620	146.380000
260.909546	146.580000
261.002472	146.180000
261.095398	145.500000
261.188354	145.420000
261.281281	144.760000
261.374207	144.880000
261.467133	145.860000
261.560089	146.380000
261.653015	146.360000
261.745972	147.040000
261.838867	147.360000
261.931824	147.120000
262.024780	146.540000
262.117706	146.860000
262.210663	147.140000
262.303589	146.740000
262.396515	146.500000
262.489471	147.520000
262.582397	147.340000
262.675354	146.800000
262.768280	147.140000
262.861237	147.340000
262.954163	146.980000
263.047119	147.400000
263.140045	147.140000
263.233002	146.920000
263.325958	146.660000
263.418884	146.080000
263.511841	145.780000
263.604797	145.980000
263.697723	145.900000
263.790680	145.960000
263.883636	146.560000
263.976593	146.120000
264.069550	146.360000
264.162476	145.960000
264.255463	145.960000
264.348419	145.780000
264.441376	146.320000
264.534332	145.520000
264.627289	146.060000
264.720245	146.420000
264.813202	146.280000
264.906158	146.380000
264.999115	147.340000
265.092072	147.080000
265.185028	147.220000
265.277985	147.200000
265.370941	146.900000
265.463898	146.640000
265.556854	146.540000
265.649811	145.680000
265.742798	146.000000
265.835754	146.220000
265.928711	146.460000
266.021667	146.540000
266.114655	146.880000
266.207611	146.640000
266.300568	146.040000
266.393585	145.500000
266.486511	146.000000
266.579498	145.540000
266.672485	145.580000
266.765442	145.740000
266.858429	146.520000
266.951385	146.020000
267.044342	146.140000
267.137329	146.240000
267.230316	146.420000
267.323273	145.560000
267.416260	146.120000
267.509216	146.200000
267.602203	146.020000
267.695160	146.440000
267.788147	146.640000
267.881134	146.040000
267.974091	146.160000
268.067078	145.880000
268.160065	145.660000
268.253052	145.440000
268.346008	145.480000
268.438995	145.580000
268.531982	145.780000
268.624969	145.300000
268.717987	145.760000
268.810944	145.920000
268.903961	145.980000
268.996948	145.760000
269.089905	146.540000
269.182892	146.240000
269.275879	146.360000
269.368866	146.060000
269.461853	146.340000
269.554871	145.780000
269.647858	146.060000
269.740845	146.440000
269.833832	146.600000
269.926819	146.580000
270.019806	146.820000
270.112793	146.100000
270.205811	146.060000
270.298798	146.000000
270.391785	146.660000
270.484772	146.460000
270.577789	146.900000
270.670776	146.380000
270.763763	146.600000
270.856750	146.420000
270.949768	146.100000
271.042786	146.400000
271.135773	146.400000
271.228790	146.420000
271.321808	145.960000
271.414795	145.900000
271.507782	145.220000
271.600800	144.740000
271.693817	144.760000
271.786804	145.020000
271.879822	145.480000
271.972809	145.760000
272.065826	146.580000
272.158844	146.180000
272.251831	146.680000
272.344849	146.560000
272.437866	146.340000
272.530853	146.220000
272.623871	146.440000
272.716888	145.680000
272.809906	146.040000
272.902893	146.360000
272.995911	145.780000
273.088928	145.960000
273.181946	145.920000
273.274963	145.480000
273.367981	145.580000
273.460999	145.980000
273.554047	146.140000
273.647003	146.720000
273.740051	146.720000
273.833069	146.980000
273.926086	147.240000
274.019135	146.760000
274.112152	146.260000
274.205170	146.300000
274.298187	146.480000
274.391205	145.820000
274.484222	145.720000
274.577240	145.760000
274.670258	145.640000
274.763306	145.240000
274.856323	145.880000
274.949341	146.140000
275.042358	146.700000
275.135406	146.820000
275.228424	146.660000
275.321442	146.400000
275.414490	146.320000
275.507507	146.260000
275.600525	146.520000
275.693573	146.240000
275.786591	146.160000
275.879669	146.380000
275.972656	145.940000
276.065735	146.060000
276.158752	146.800000
276.251801	147.480000
276.344818	147.620000
276.437866	148.040000
276.530884	147.740000
276.623932	147.040000
276.716980	146.700000
276.809998	146.320000
276.903046	146.100000
276.996094	146.900000
277.089111	147.740000
277.182159	148.180000
277.275208	148.080000
277.368256	147.920000
277.461304	147.360000
277.554321	146.440000
277.647369	146.040000
277.740417	146.160000
277.833466	146.000000
277.926514	145.960000
278.019562	146.960000
278.112610	146.280000
278.205688	146.480000
278.298706	146.720000
278.391785	146.360000
278.484833	145.380000
278.577881	145.740000
278.670929	145.940000
278.763977	146.020000
278.857025	146.500000
278.950073	146.960000
279.043121	146.840000
279.136169	146.640000
279.229248	146.520000
279.322296	146.540000
279.415344	146.200000
279.508392	146.080000
279.601440	146.020000
279.694519	145.920000
279.787567	145.820000
279.880615	145.740000
279.973694	145.920000
280.066742	145.840000
280.159790	146.020000
280.252869	145.580000
280.345917	145.740000
280.438995	145.660000
280.532074	145.780000
280.625122	146.220000
280.718201	147.200000
280.811279	147.560000
280.904327	147.380000
280.997406	147.380000
281.090454	146.880000
281.183533	146.200000
281.276581	146.020000
281.369659	146.340000
281.462738	146.280000
281.555786	146.780000
281.648865	146.900000
281.741943	146.960000
281.835022	147.560000
281.928070	147.520000
282.021149	147.200000
282.114227	146.720000
282.207306	146.520000
282.300385	146.340000
282.393433	146.460000
282.486511	146.120000
282.579590	146.760000
282.672668	146.960000
282.765747	146.500000
282.858856	146.280000
282.951904	146.780000
283.045013	146.880000
283.138062	147.260000
283.231171	147.520000
283.324249	147.940000
283.417328	147.640000
283.510406	147.080000
283.603485	146.660000
283.696564	146.340000
283.789642	146.140000
283.882751	146.020000
283.975830	146.520000
284.068909	146.280000
284.161987	147.100000
284.255066	146.660000
284.348175	146.700000
284.441254	146.260000
284.534332	146.540000
284.627441	145.920000
284.720520	145.800000
284.813599	146.000000
284.906708	146.320000
284.999786	145.880000
285.092896	145.680000
285.185974	147.040000
285.279053	146.540000
285.372192	146.340000
285.465240	147.140000
285.558380	147.160000
285.651459	146.360000
285.744568	147.220000
285.837677	146.960000
285.930756	146.540000
286.023865	146.420000
286.116943	146.120000
286.210052	145.800000
286.303162	145.880000
286.396240	145.860000
286.489349	146.080000
286.582458	146.380000
286.675568	146.160000
286.768646	146.360000
286.861755	146.640000
286.954865	147.160000
287.047974	146.500000
287.141083	146.440000
287.234161	146.480000
287.327271	146.120000
287.420380	145.880000
287.513519	146.320000
287.606598	146.400000
287.699738	146.460000
287.792816	146.260000
287.885956	146.080000
287.979034	146.220000
288.072174	146.580000
288.165283	146.400000
288.258392	147.080000
288.351501	146.560000
288.444611	146.700000
288.537720	146.760000
288.630859	146.820000
288.723969	146.720000
288.817078	147.460000
288.910187	147.200000
289.003296	146.560000
289.096436	146.120000
289.189545	145.860000
289.282654	145.140000
289.375763	145.420000
289.468903	145.780000
289.562012	146.120000
289.655121	145.960000
289.748260	146.460000
289.841400	146.840000
289.934509	146.640000
290.027649	147.160000
290.120728	147.120000
290.213898	146.900000
290.306976	146.240000
290.400146	146.260000
290.493256	145.700000
290.586395	146.120000
290.679535	146.520000
290.772644	146.520000
290.865784	146.020000
290.958893	146.040000
291.052032	145.760000
291.145172	145.620000
291.238281	145.460000
291.331421	145.680000
291.424561	146.020000
291.517670	145.960000
291.610809	146.120000
291.703949	146.060000
291.797089	146.480000
291.890228	146.120000
291.983337	146.260000
292.076477	145.580000
292.169617	145.920000
292.262756	146.120000
292.355927	146.200000
292.449036	146.020000
292.542206	146.520000
292.635315	146.620000
292.728485	146.520000
292.821625	146.160000
292.914764	147.040000
293.007904	146.960000
293.101044	147.020000
293.194183	147.040000
293.287323	147.180000
293.380463	146.460000
293.473602	146.320000
293.566742	146.540000
293.659882	146.680000
293.753021	147.120000
293.846191	147.100000
293.939331	147.000000
294.032471	146.580000
294.125610	146.180000
294.218781	146.440000
294.311920	146.840000
294.405060	147.000000
294.498230	147.120000
294.591370	146.840000
294.684540	145.780000
294.777679	145.180000
294.870850	145.400000
294.963959	145.260000
295.057159	145.420000
295.150299	146.160000
295.243469	146.180000
295.336609	145.800000
295.429779	145.940000
295.522919	146.260000
295.616089	146.340000
295.709229	147.180000
295.802399	147.420000
295.895569	147.100000
295.988708	146.800000
296.081879	146.460000
296.175018	145.700000
296.268188	145.640000
296.361359	146.080000
296.454529	146.380000
296.547668	146.260000
296.640839	146.580000
296.734009	146.200000
296.827179	146.440000
296.920319	146.680000
297.013519	146.740000
297.106659	146.780000
297.199860	146.820000
297.292999	146.700000
297.386200	146.020000
297.479309	145.920000
297.572510	145.740000
297.665680	145.620000
297.758850	145.300000
297.852020	145.520000
297.945190	145.560000
298.038361	145.100000
298.131531	146.260000
298.224701	146.240000
298.317871	146.180000
298.411072	145.920000
298.504242	145.980000
298.597412	145.360000
298.690582	145.440000
298.783752	145.540000
298.876923	146.020000
298.970093	146.220000
299.063293	146.340000
299.156464	146.700000
299.249634	146.920000
299.342834	146.920000
299.436005	147.420000
299.529205	147.240000
299.622345	147.180000
299.715576	146.620000
299.808716	146.520000
299.901917	146.360000
299.995117	146.620000
300.088287	146.480000
300.181488	146.860000
300.274658	146.840000
300.367828	146.860000
300.461029	146.900000
300.554199	146.960000
300.647400	146.980000
300.740601	147.380000
300.833771	147.180000
300.926971	147.080000
301.020142	146.720000
301.113342	146.420000
301.206512	145.960000
301.299713	146.040000
301.392914	145.960000
301.486084	146.360000
301.579285	146.120000
301.672516	146.460000
301.765686	146.520000
301.858887	146.460000
301.952057	146.040000
302.045288	146.540000
302.138458	146.480000
302.231659	146.060000
302.324860	145.960000
302.418060	145.860000
302.511261	145.740000
302.604462	145.660000
302.697662	145.700000
302.790863	145.780000
302.884064	145.600000
302.977264	145.420000
303.070465	145.760000
303.163666	146.800000
303.256866	147.040000
303.350067	147.380000
303.443268	147.520000
303.536469	147.480000
303.629669	146.420000
303.722870	146.460000
303.816071	146.220000
303.909271	145.820000
304.002472	145.120000
304.095673	145.180000
304.188934	144.400000
304.282104	145.020000
304.375336	145.440000
304.468506	145.580000
304.561768	145.480000
304.654968	146.360000
304.748169	145.800000
304.841370	145.720000
304.934601	146.100000
305.027802	145.660000
305.121002	145.220000
305.214233	145.080000
305.307434	144.940000
305.400665	145.420000
305.493866	145.780000
305.587097	145.960000
305.680298	145.960000
305.773499	146.540000
305.866730	145.740000
305.959930	146.320000
306.053162	146.580000
306.146393	146.940000
306.239594	146.080000
306.332825	146.160000
306.426025	146.240000
306.519287	145.520000
306.612488	145.500000
306.705719	145.800000
306.798920	145.900000
306.892181	145.120000
306.985352	145.260000
307.078613	144.540000
307.171844	144.840000
307.265045	144.680000
307.358276	144.620000
307.451508	144.920000
307.544739	145.940000
307.637970	145.540000
307.731201	145.460000
307.824402	146.200000
307.917633	146.400000
308.010864	146.800000
308.104095	147.260000
308.197327	147.640000
308.290558	147.240000
308.383789	146.760000
308.477020	145.760000
308.570251	145.220000
308.663483	144.480000
308.756714	144.280000
308.849976	144.320000
308.943176	144.860000
309.036438	145.020000
309.129639	145.340000
309.222900	145.520000
309.316101	145.440000
309.409393	145.100000
309.502625	144.980000
309.595856	144.880000
309.689087	145.060000
309.782318	145.260000
309.875580	145.280000
309.968811	145.500000
310.062042	145.660000
310.155273	145.640000
310.248535	145.900000
310.341766	145.960000
310.434998	145.840000
310.528259	145.700000
310.621490	145.900000
310.714722	145.200000
310.807983	145.040000
310.901215	145.240000
310.994476	145.540000
311.087708	144.880000
311.181000	145.500000
311.274200	145.360000
311.367462	145.040000
311.460693	144.700000
311.553986	145.560000
311.647186	145.700000
311.740479	146.460000
311.833710	146.680000
311.926971	146.860000
312.020203	146.120000
312.113464	145.540000
312.206726	144.660000
312.299957	144.900000
312.393219	145.560000
312.486481	145.840000
312.579712	145.980000
312.672974	146.360000
312.766235	146.220000
312.859497	145.680000
312.952759	145.820000
313.045990	146.540000
313.139252	146.160000
313.232513	146.320000
313.325775	146.420000
313.419037	146.280000
313.512299	145.620000
313.605530	146.040000
313.698822	146.080000
313.792053	145.920000
313.885345	145.460000
313.978577	145.440000
314.071869	145.140000
314.165131	145.220000
314.258392	145.440000
314.351654	145.920000
314.444916	145.340000
314.538177	145.980000
314.631439	146.000000
314.724701	145.920000
314.817993	145.900000
314.911255	146.700000
315.004517	146.000000
315.097778	145.560000
315.191040	145.980000
315.284302	146.080000
315.377594	145.800000
315.470856	146.100000
315.564117	145.960000
315.657379	145.180000
315.750671	144.820000
315.843933	145.080000
315.937195	144.820000
316.030518	144.860000
316.123749	145.120000
316.217041	145.820000
316.310303	145.740000
316.403595	145.980000
316.496857	146.100000
316.590149	146.460000
316.683411	145.840000
316.776703	145.780000
316.869965	145.560000
316.963257	145.500000
317.056519	144.740000
317.149811	144.880000
317.243073	144.920000
317.336365	145.300000
317.429626	145.520000
317.522919	146.300000
317.616180	146.360000
317.709473	145.960000
317.802765	145.760000
317.896027	145.760000
317.989319	145.780000
318.082611	145.700000
318.175873	145.440000
318.269165	145.780000
318.362488	145.760000
318.455750	145.420000
318.549042	145.700000
318.642303	146.460000
318.735626	146.120000
318.828888	146.200000
318.922211	146.000000
319.015472	146.480000
319.108765	145.840000
319.202057	145.440000
319.295349	145.780000
319.388641	146.020000
319.481934	145.500000
319.575226	145.920000
319.668518	146.460000
319.761810	146.160000
319.855103	146.120000
319.948395	145.860000
320.041687	146.300000
320.134979	146.340000
320.228271	146.300000
320.321564	146.320000
320.414856	146.520000
320.508148	146.000000
320.601440	145.840000
320.694763	145.460000
320.788025	146.140000
320.881348	145.980000
320.974640	145.920000
321.067963	145.380000
321.161224	145.680000
321.254547	144.680000
321.347839	145.380000
321.441162	145.160000
321.534454	145.680000
321.627747	145.460000
321.721069	146.460000
321.814362	146.240000
321.907654	146.500000
322.000946	146.560000
322.094269	147.400000
322.187561	146.540000
322.280884	146.740000
322.374176	146.880000
322.467468	147.000000
322.560791	146.500000
322.654083	147.080000
322.747406	146.980000
322.840698	147.220000
322.934021	147.480000
323.027344	147.700000
323.120636	147.380000
323.213959	147.180000
323.307251	146.740000
323.400574	146.240000
323.493866	145.620000
323.587219	145.760000
323.680511	146.260000
323.773834	146.380000
323.867157	146.760000
323.960449	147.100000
324.053772	146.980000
324.147095	146.340000
324.240387	146.820000
324.333710	146.920000
324.427032	146.940000
324.520355	146.740000
324.613647	146.360000
324.706970	145.820000
324.800293	145.460000
324.893616	145.700000
324.986938	146.280000
325.080231	146.460000
325.173553	146.940000
325.266876	147.380000
325.360199	147.440000
325.453522	146.380000
325.546875	145.980000
325.640167	145.960000
325.733521	145.600000
325.826813	145.800000
325.920166	146.100000
326.013489	146.380000
326.106812	145.360000
326.200134	145.120000
326.293457	144.280000
326.386780	144.660000
326.480103	144.840000
326.573425	145.520000
326.666748	145.700000
326.760071	146.280000
326.853424	145.780000
326.946747	145.440000
327.040070	146.060000
327.133392	145.780000
327.226715	144.760000
327.320068	144.880000
327.413391	145.920000
327.506714	145.020000
327.600037	145.080000
327.693390	145.780000
327.786713	145.760000
327.880066	145.360000
327.973358	145.760000
328.066742	146.280000
328.160034	146.640000
328.253418	147.200000
328.346710	146.560000
328.440063	146.340000
328.533417	145.860000
328.626740	145.800000
328.720093	145.660000
328.813416	145.780000
328.906769	145.780000
329.000092	145.920000
329.093445	145.780000
329.186768	145.440000
329.280121	146.040000
329.373444	146.460000
329.466797	146.580000
329.560120	146.480000
329.653473	146.960000
329.746796	146.420000
329.840149	146.100000
329.933502	146.200000
330.026825	146.100000
330.120178	145.600000
330.213562	145.520000
330.306854	145.300000
330.400238	144.920000
330.493561	144.960000
330.586945	145.820000
330.680237	146.420000
330.773621	146.480000
330.866974	146.400000
330.960327	146.820000
331.053680	146.300000
331.147003	146.180000
331.240356	146.380000
331.333710	146.700000
331.427063	146.220000
331.520416	146.180000
331.613770	145.980000
331.707123	146.020000
331.800476	146.000000
331.893829	146.640000
331.987152	146.700000
332.080505	146.760000
332.173859	146.860000
332.267212	146.440000
332.360565	145.840000
332.453918	145.640000
332.547333	145.720000
332.640656	145.600000
332.734039	145.820000
332.827362	145.560000
332.920746	146.020000
333.014069	146.200000
333.107452	146.640000
333.200806	146.760000
333.294159	147.340000
333.387543	146.580000
333.480896	146.060000
333.574249	145.460000
333.667603	145.420000
333.760956	145.200000
333.854340	145.440000
333.947693	145.720000
334.041046	145.900000
334.134430	146.200000
334.227783	145.980000
334.321136	146.020000
334.414520	145.560000
334.507874	145.860000
334.601227	145.480000
334.694611	145.600000
334.787964	145.860000
334.881348	146.420000
334.974701	146.380000
335.068085	146.220000
335.161438	146.480000
335.254822	146.120000
335.348175	145.840000
335.441559	145.460000
335.534943	146.300000
335.628296	145.940000
335.721680	145.960000
335.815033	146.400000
335.908417	146.440000
336.001770	145.960000
336.095154	146.040000
336.188538	146.140000
336.281891	145.580000
336.375275	145.040000
336.468658	144.880000
336.562012	145.280000
336.655396	145.500000
336.748779	145.920000
336.842133	146.680000
336.935516	146.980000
337.028900	146.620000
337.122284	146.300000
337.215637	146.320000
337.309021	145.960000
337.402435	145.680000
337.495789	145.600000
337.589203	145.700000
337.682526	145.280000
337.775940	145.720000
337.869324	146.080000
337.962708	145.980000
338.056091	146.140000
338.149475	145.920000
338.242859	145.840000
338.336243	145.400000
338.429626	145.320000
338.523010	145.400000
338.616394	145.620000
338.709778	145.660000
338.803162	146.020000
338.896545	146.280000
338.989929	145.880000
339.083313	146.000000
339.176697	145.620000
339.270081	145.380000
339.363464	145.660000
339.456848	145.920000
339.550232	145.440000
339.643616	145.440000
339.737030	145.500000
339.830383	145.380000
339.923828	145.660000
340.017181	145.960000
340.110596	146.040000
340.203949	145.840000
340.297363	145.260000
340.390778	144.940000
340.484161	144.960000
340.577545	144.780000
340.670959	145.040000
340.764343	145.120000
340.857727	145.400000
340.951111	144.820000
341.044525	145.260000
341.137909	144.840000
341.231293	144.880000
341.324707	144.160000
341.418091	145.380000
341.511505	145.140000
341.604889	145.420000
341.698303	145.840000
341.791687	146.180000
341.885071	145.380000
341.978485	145.120000
342.071899	145.180000
342.165283	145.120000
342.258698	145.380000
342.352081	146.180000
342.445496	146.960000
342.538879	146.780000
342.632324	146.760000
342.725708	146.580000
342.819122	145.940000
342.912506	145.440000
343.005920	145.640000
343.099335	146.360000
343.192719	146.580000
343.286133	146.540000
343.379547	146.900000
343.472931	146.880000
343.566345	146.040000
343.659760	146.100000
343.753143	145.840000
343.846558	145.080000
343.939972	145.280000
344.033386	145.880000
344.126770	145.320000
344.220184	145.660000
344.313599	146.440000
344.407043	146.220000
344.500427	145.360000
344.593872	146.220000
344.687225	146.220000
344.780670	145.800000
344.874054	145.740000
344.967499	146.320000
345.060913	146.220000
345.154327	145.900000
345.247742	145.720000
345.341156	145.680000
345.434570	145.660000
345.527985	145.460000
345.621399	146.000000
345.714813	146.120000
345.808228	146.420000
345.901642	146.000000
345.995056	145.540000
346.088470	145.320000
346.181885	145.200000
346.275299	144.680000
346.368713	144.680000
346.462128	144.520000
346.555573	144.660000
346.648987	145.040000
346.742401	145.440000
346.835815	146.060000
346.929260	146.000000
347.022644	145.840000
347.116119	145.700000
347.209503	145.820000
347.302948	145.860000
347.396362	146.740000
347.489807	146.960000
347.583221	147.300000
347.676636	146.800000
347.770050	146.160000
347.863495	145.420000
347.956909	145.340000
348.050323	144.900000
348.143768	144.960000
348.237183	144.900000
348.330597	145.540000
348.424042	145.920000
348.517456	146.260000
348.610901	146.760000
348.704315	146.900000
348.797760	146.200000
348.891174	145.580000
348.984619	145.200000
349.078033	145.200000
349.171448	145.740000
349.264923	145.860000
349.358337	145.880000
349.451782	146.160000
349.545197	145.440000
349.638641	144.660000
349.732086	144.360000
349.825500	144.940000
349.918945	144.500000
350.012390	145.200000
350.105804	145.980000
350.199249	146.320000
350.292664	146.340000
350.386108	146.600000
350.479553	147.200000
350.572968	146.740000
350.666412	146.760000
350.759857	146.360000
350.853302	146.740000
350.946716	145.780000
351.040161	145.900000
351.133606	145.740000
351.227081	145.520000
351.320465	146.060000
351.413940	146.540000
351.507355	146.560000
351.600830	146.980000
351.694244	147.140000
351.787720	146.500000
351.881104	146.360000
351.974579	146.180000
352.067993	146.900000
352.161469	146.900000
352.254883	146.360000
352.348358	145.960000
352.441803	146.100000
352.535248	145.200000
352.628693	145.440000
352.722137	145.480000
352.815582	145.880000
352.909027	145.840000
353.002472	145.720000
353.095917	145.360000
353.189362	145.780000
353.282806	145.360000
353.376251	145.280000
353.469696	144.940000
353.563141	145.580000
353.656586	145.400000
353.750061	145.120000
353.843475	145.100000
353.936981	145.760000
354.030396	145.060000
354.123871	144.860000
354.217285	145.840000
354.310760	146.120000
354.404175	145.960000
354.497681	146.240000
354.591095	146.600000
354.684570	145.800000
354.777985	145.500000
354.871490	145.360000
354.964935	145.640000
355.058380	145.680000
355.151855	145.460000
355.245300	145.860000
355.338745	146.340000
355.432220	146.080000
355.525665	145.520000
355.619110	146.480000
355.712585	146.160000
355.806030	145.700000
355.899475	145.400000
355.992950	146.260000
356.086426	146.160000
356.179871	146.100000
356.273346	146.520000
356.366791	146.900000
356.460266	146.640000
356.553711	146.280000
356.647186	146.220000
356.740631	145.860000
356.834106	145.460000
356.927551	145.580000
357.021027	145.820000
357.114471	146.000000
357.207947	146.380000
357.301422	146.880000
357.394867	146.400000
357.488342	146.540000
357.581818	146.800000
357.675262	146.480000
357.768738	146.200000
357.862213	145.900000
357.955658	145.600000
358.049133	145.280000
358.142609	145.540000
358.236053	145.220000
358.329529	145.580000
358.423035	145.740000
358.516449	145.500000
358.609955	145.720000
358.703400	146.580000
358.796906	146.780000
358.890350	146.360000
358.983826	146.780000
359.077271	146.240000
359.170776	145.760000
359.264221	145.640000
359.357727	145.780000
359.451172	145.980000
359.544647	145.840000
359.638123	145.820000
359.731598	146.200000
359.825073	146.740000
359.918549	146.380000
360.012024	146.840000
360.105499	146.720000
360.198975	146.500000
360.292450	146.220000
360.385925	146.180000
360.479401	145.680000
360.572876	145.880000
360.666351	146.120000
360.759857	146.260000
360.853302	146.120000
360.946808	145.940000
361.040253	145.840000
361.133759	145.240000
361.227203	145.060000
361.320709	144.760000
361.414154	145.400000
361.507660	145.680000
361.601105	146.180000
361.694641	146.620000
361.788086	147.000000
361.881592	147.200000
361.975067	146.660000
362.068542	146.780000
362.162018	146.580000
362.255524	146.200000
362.348999	146.080000
362.442474	146.580000
362.535950	146.200000
362.629456	145.840000
362.722931	145.980000
362.816406	146.040000
362.909882	146.180000
363.003387	145.780000
363.096863	146.180000
363.190338	146.580000
363.283875	146.100000
363.377319	145.940000
363.470825	146.520000
363.564301	145.960000
363.657806	145.740000
363.751282	145.600000
363.844788	146.560000
363.938232	146.300000
364.031769	146.840000
364.125214	147.200000
364.218750	147.960000
364.312225	146.440000
364.405731	146.420000
364.499207	145.640000
364.592712	145.280000
364.686188	144.880000
364.779694	145.320000
364.873169	145.360000
364.966675	145.740000
365.060150	145.740000
365.153656	145.900000
365.247131	145.840000
365.340637	145.900000
365.434143	146.140000
365.527618	146.140000
365.621155	145.220000
365.714600	145.060000
365.808136	145.160000
365.901611	144.360000
365.995117	144.280000
366.088593	144.820000
366.182129	144.920000
366.275604	144.720000
366.369110	145.040000
366.462585	145.140000
366.556122	145.660000
366.649567	145.840000
366.743103	146.300000
366.836609	146.160000
366.930115	146.520000
367.023590	146.460000
367.117096	146.260000
367.210602	146.040000
367.304108	146.820000
367.397614	147.060000
367.491119	146.820000
367.584595	147.220000
367.678101	147.160000
367.771606	146.620000
367.865112	146.120000
367.958649	145.620000
368.052124	145.260000
368.145660	145.360000
368.239136	145.940000
368.332672	146.360000
368.426147	146.840000
368.519684	146.560000
368.613159	146.680000
368.706696	146.240000
368.800171	145.540000
368.893707	145.600000
368.987183	145.900000
369.080719	145.920000
369.174225	145.740000
369.267731	146.160000
369.361237	145.640000
369.454742	145.300000
369.548248	145.560000
369.641754	145.380000
369.735260	145.200000
369.828766	144.840000
369.922272	145.560000
370.015808	145.080000
370.109314	144.900000
370.202820	144.820000
370.296356	146.060000
370.389832	145.640000
370.483368	145.060000
370.576874	145.400000
370.670410	145.680000
370.763885	144.780000
370.857422	144.960000
370.950928	145.340000
371.044464	146.140000
371.137939	146.020000
371.231476	146.220000
371.324982	146.400000
371.418518	146.460000
371.512024	145.740000
371.605560	145.460000
371.699066	145.880000
371.792572	145.500000
371.886108	145.980000
371.979614	145.820000
372.073120	146.520000
372.166656	146.340000
372.260162	146.520000
372.353668	146.000000
372.447205	146.200000
372.540710	145.900000
372.634277	145.680000
372.727753	145.720000
372.821320	145.640000
372.914795	145.560000
373.008362	145.320000
373.101837	145.820000
373.195404	145.900000
373.288879	146.080000
373.382446	146.940000
373.475922	147.220000
373.569489	147.540000
373.662964	147.700000
373.756531	147.840000
373.850037	147.480000
373.943573	147.300000
374.037109	146.060000
374.130615	145.840000
374.224152	145.920000
374.317657	145.600000
374.411194	146.160000
374.504730	146.560000
374.598236	146.340000
374.691772	146.040000
374.785309	146.000000
374.878815	145.140000
374.972351	145.500000
375.065887	145.340000
375.159454	145.980000
375.252930	145.980000
375.346497	146.380000
375.440002	146.800000
375.533569	146.700000
375.627045	145.860000
375.720612	145.860000
375.814117	146.240000
375.907684	145.920000
376.001160	145.760000
376.094727	145.460000
376.188232	146.200000
376.281799	146.200000
376.375336	145.820000
376.468872	146.600000
376.562408	146.960000
376.655914	146.320000
376.749451	146.140000
376.842987	146.180000
376.936523	145.800000
377.030060	145.920000
377.123596	146.020000
377.217133	145.360000
377.310669	145.540000
377.404205	145.920000
377.497772	146.200000
377.591278	145.920000
377.684845	146.840000
377.778351	146.700000
377.871918	146.460000
377.965424	145.780000
378.058990	145.740000
378.152496	145.220000
378.246063	145.620000
378.339569	145.940000
378.433136	146.180000
378.526642	146.280000
378.620209	146.140000
378.713745	145.900000
378.807312	146.280000
378.900848	146.340000
378.994385	146.360000
379.087921	145.920000
379.181458	145.940000
379.274994	144.920000
379.368530	144.760000
379.462097	145.020000
379.555634	145.760000
379.649170	145.300000
379.742706	145.660000
379.836273	145.960000
379.929810	145.540000
380.023376	145.040000
380.116882	145.040000
380.210449	144.860000
380.303986	144.500000
380.397552	144.040000
380.491058	144.560000
380.584656	144.560000
380.678162	144.740000
380.771729	144.960000
380.865265	146.080000
380.958832	146.180000
381.052368	146.600000
381.145935	147.160000
381.239471	147.560000
381.333008	147.180000
381.426575	147.040000
381.520111	147.200000
381.613647	147.040000
381.707214	146.620000
381.800751	146.200000
381.894318	146.180000
381.987854	145.840000
382.081421	145.480000
382.174988	145.600000
382.268524	145.380000
382.362091	145.340000
382.455627	145.900000
382.549194	145.580000
382.642731	145.200000
382.736298	145.640000
382.829834	145.280000
382.923401	145.580000
383.016937	146.040000
383.110504	146.540000
383.204041	146.420000
383.297607	146.920000
383.391174	146.060000
383.484741	146.380000
383.578278	145.900000
383.671844	145.740000
383.765411	145.080000
383.858948	145.540000
383.952515	145.160000
384.046051	145.640000
384.139618	146.080000
384.233185	146.480000
384.326721	146.520000
384.420288	146.920000
384.513855	146.760000
384.607422	146.740000
384.700989	147.080000
384.794525	146.460000
384.888123	146.280000
384.981659	146.520000
385.075226	146.420000
385.168762	145.840000
385.262360	145.720000
385.355896	145.020000
385.449463	144.560000
385.542999	144.620000
385.636597	145.300000
385.730164	145.720000
385.823730	145.660000
385.917267	145.820000
386.010834	145.880000
386.104401	145.840000
386.197968	146.140000
386.291534	146.800000
386.385101	146.940000
386.478668	147.500000
386.572235	147.180000
386.665802	146.660000
386.759338	146.100000
386.852905	145.920000
386.946472	145.040000
387.040070	145.220000
387.133606	145.460000
387.227203	145.400000
387.320740	145.640000
387.414337	145.440000
387.507874	145.260000
387.601471	145.360000
387.695007	145.480000
387.788605	145.180000
387.882141	145.700000
387.975739	145.660000
388.069275	145.320000
388.162872	145.480000
388.256439	145.460000
388.350037	145.240000
388.443604	145.340000
388.537170	145.480000
388.630737	146.040000
388.724304	146.280000
388.817871	146.280000
388.911438	146.180000
389.005005	146.320000
389.098602	146.460000
389.192169	145.840000
389.285736	146.100000
389.379333	145.920000
389.472870	145.600000
389.566467	145.020000
389.660034	145.580000
389.753632	145.260000
389.847168	145.940000
389.940765	146.520000
390.034332	146.620000
390.127930	146.140000
390.221466	146.420000
390.315063	145.740000
390.408630	144.880000
390.502228	144.100000
390.595795	144.560000
390.689362	144.660000
390.782959	144.880000
390.876526	145.620000
390.970093	146.100000
391.063690	146.740000
391.157257	146.900000
391.250824	147.600000
391.344421	147.060000
391.437988	147.480000
391.531555	147.000000
391.625153	146.860000
391.718750	146.620000
391.812317	146.680000
391.905914	146.140000
391.999481	146.340000
392.093079	146.200000
392.186615	146.280000
392.280243	146.440000
392.373779	146.540000
392.467407	146.520000
392.560944	146.340000
392.654572	145.520000
392.748108	145.580000
392.841736	145.740000
392.935303	145.500000
393.028900	145.640000
393.122467	146.060000
393.216064	145.960000
393.309631	145.540000
393.403229	145.320000
393.496796	144.920000
393.590393	144.620000
393.683990	144.560000
393.777557	145.260000
393.871155	145.380000
393.964722	145.880000
394.058350	146.080000
394.151917	146.080000
394.245514	145.640000
394.339081	146.000000
394.432678	146.160000
394.526245	146.300000
394.619873	145.880000
394.713409	146.240000
394.807037	145.960000
394.900604	146.260000
394.994202	146.040000
395.087769	146.580000
395.181396	146.060000
395.274994	146.760000
395.368561	145.640000
395.462158	146.120000
395.555756	146.280000
395.649353	146.800000
395.742920	145.900000
395.836517	146.660000
395.930115	145.820000
396.023712	145.860000
396.117279	145.780000
396.210876	145.700000
396.304474	145.560000
396.398071	146.080000
396.491669	146.080000
396.585266	145.880000
396.678833	146.020000
396.772461	146.340000
396.866028	146.100000
396.959656	146.240000
397.053223	146.660000
397.146851	146.780000
397.240417	147.240000
397.334015	148.600000
397.427582	148.920000
397.521210	150.100000
397.614807	151.980000
397.708405	153.680000
397.802002	155.680000
397.895599	159.960000
397.989197	164.020000
398.082794	169.080000
398.176392	176.440000
398.269989	184.980000
398.363586	194.400000
398.457184	205.780000
398.550781	218.700000
398.644379	230.940000
398.737976	245.500000
398.831573	260.320000
398.925201	275.660000
399.018768	292.020000
399.112396	309.960000
399.205963	328.220000
399.299591	348.920000
399.393158	370.160000
399.486786	392.720000
399.580353	414.680000
399.673981	435.300000
399.767578	453.600000
399.861206	470.200000
399.954773	481.820000
400.048401	486.580000
400.141998	485.120000
400.235596	479.120000
400.329193	466.780000
400.422791	452.120000
400.516418	436.720000
400.610016	422.340000
400.703613	406.180000
400.797211	389.540000
400.890808	371.360000
400.984436	354.100000
401.078033	334.600000
401.171631	315.140000
401.265259	296.200000
401.358826	277.960000
401.452484	259.480000
401.546051	243.200000
401.639679	226.860000
401.733246	213.420000
401.826904	200.620000
401.920471	189.560000
402.014099	179.960000
402.107697	172.880000
402.201324	166.300000
402.294891	161.620000
402.388550	158.240000
402.482147	155.120000
402.575745	152.440000
402.669373	150.120000
402.762970	148.760000
402.856567	147.840000
402.950195	147.340000
403.043793	147.040000
403.137390	147.780000
403.231018	147.100000
403.324615	147.360000
403.418243	146.880000
403.511841	147.420000
403.605469	147.160000
403.699066	147.740000
403.792694	147.760000
403.886292	148.080000
403.979919	147.320000
404.073517	146.980000
404.167145	146.800000
404.260712	146.340000
404.354370	145.980000
404.447937	146.420000
404.541595	146.380000
404.635162	146.400000
404.728821	146.800000
404.822418	146.480000
404.916046	146.140000
405.009644	146.400000
405.103271	146.660000
405.196899	146.420000
405.290497	146.820000
405.384125	147.140000
405.477722	146.340000
405.571350	145.740000
405.664948	145.720000
405.758575	145.440000
405.852203	145.020000
405.945801	145.660000
406.039429	145.680000
406.133057	145.520000
406.226654	145.760000
406.320312	145.860000
406.413879	146.000000
406.507538	146.340000
406.601135	146.100000
406.694763	146.540000
406.788361	146.400000
406.882019	145.860000
406.975586	146.140000
407.069244	146.560000
407.162872	146.360000
407.256470	145.780000
407.350098	146.060000
407.443726	145.640000
407.537323	145.520000
407.630951	145.640000
407.724579	145.980000
407.818207	146.360000
407.911804	146.220000
408.005432	145.960000
408.099060	146.020000
408.192688	146.700000
408.286285	146.440000
408.379913	146.260000
408.473572	146.540000
408.567169	145.740000
408.660828	145.520000
408.754395	145.320000
408.848053	145.360000
408.941650	145.700000
409.035309	145.700000
409.128906	145.620000
409.222565	145.580000
409.316132	145.940000
409.409790	145.600000
409.503387	145.920000
409.597046	145.980000
409.690674	146.240000
409.784302	146.180000
409.877930	145.880000
409.971558	146.020000
410.065186	145.700000
410.158783	145.500000
410.252411	145.220000
410.346039	145.700000
410.439667	145.660000
410.533295	145.780000
410.626923	146.260000
410.720551	146.360000
410.814209	146.460000
410.907806	146.500000
411.001465	146.180000
411.095062	145.720000
411.188721	145.880000
411.282318	145.460000
411.375977	145.100000
411.469574	145.380000
411.563232	145.160000
411.656830	145.260000
411.750488	145.220000
411.844086	145.120000
411.937744	145.340000
412.031372	145.260000
412.125000	145.100000
412.218628	144.900000
412.312256	145.620000
412.405884	145.860000
412.499512	146.000000
412.593170	146.120000
412.686798	146.600000
412.780426	146.120000
412.874054	146.040000
412.967682	146.220000
413.061310	146.660000
413.154968	146.840000
413.248566	147.020000
413.342224	146.860000
413.435852	146.740000
413.529510	146.100000
413.623108	145.100000
413.716766	144.780000
413.810364	145.000000
413.904022	144.660000
413.997650	144.600000
414.091309	145.660000
414.184906	146.060000
414.278564	145.700000
414.372192	146.320000
414.465851	146.580000
414.559479	146.080000
414.653107	146.700000
414.746735	146.820000
414.840393	146.820000
414.934021	146.880000
415.027649	146.440000
415.121277	146.100000
415.214935	146.160000
415.308563	146.240000
415.402191	145.640000
415.495850	146.120000
415.589478	145.760000
415.683136	145.660000
415.776733	145.420000
415.870422	146.040000
415.964020	145.620000
416.057678	145.740000
416.151306	145.720000
416.244965	145.560000
416.338562	145.500000
416.432251	146.460000
416.525848	147.120000
416.619507	147.480000
416.713165	148.000000
416.806793	147.860000
416.900421	147.360000
416.994080	146.460000
417.087708	145.980000
417.181366	145.360000
417.274994	145.260000
417.368622	145.460000
417.462280	146.040000
417.555908	146.040000
417.649567	146.020000
417.743195	146.100000
417.836853	146.080000
417.930481	146.120000
418.024170	146.400000
418.117767	147.300000
418.211426	147.860000
418.305054	147.900000
418.398712	147.160000
418.492340	146.920000
418.585999	146.860000
418.679626	146.800000
418.773285	146.740000
418.866913	147.220000
418.960571	147.800000
419.054230	147.620000
419.147858	147.440000
419.241516	147.520000
419.335144	147.340000
419.428802	147.100000
419.522461	146.800000
419.616089	146.340000
419.709747	146.540000
419.803375	146.720000
419.897034	146.380000
419.990662	146.260000
420.084320	146.780000
420.177979	146.700000
420.271606	146.940000
420.365295	147.720000
420.458893	147.900000
420.552582	148.020000
420.646210	147.800000
420.739868	147.160000
420.833496	146.340000
420.927155	145.880000
421.020782	145.340000
421.114471	144.900000
421.208069	145.180000
421.301758	145.760000
421.395386	146.280000
421.489044	146.360000
421.582703	146.660000
421.676361	147.280000
421.769989	146.700000
421.863647	146.740000
421.957306	146.780000
422.050934	147.200000
422.144592	146.460000
422.238251	146.360000
422.331909	145.920000
422.425537	145.960000
422.519196	145.640000
422.612854	145.560000
422.706543	145.460000
422.800140	145.660000
422.893829	145.220000
422.987457	144.800000
423.081146	145.120000
423.174744	145.840000
423.268433	145.520000
423.362061	145.600000
423.455750	145.580000
423.549347	145.260000
423.643036	144.460000
423.736664	145.080000
423.830353	145.040000
423.924011	145.760000
424.017639	145.660000
424.111298	145.840000
424.204956	145.960000
424.298615	146.220000
424.392273	145.760000
424.485931	146.020000
424.579559	146.160000
424.673218	145.740000
424.766876	145.840000
424.860535	145.720000
424.954193	145.340000
425.047882	145.780000
425.141510	145.880000
425.235199	145.540000
425.328796	145.300000
425.422485	145.320000
425.516113	144.560000
425.609802	144.520000
425.703430	144.940000
425.797119	144.900000
425.890747	144.920000
425.984436	145.340000
426.078064	145.440000
426.171753	145.320000
426.265411	145.400000
426.359070	145.660000
426.452728	145.460000
426.546356	145.280000
426.640015	145.280000
426.733673	145.400000
426.827332	145.220000
426.920990	146.060000
427.014648	145.880000
427.108307	146.060000
427.201965	146.520000
427.295624	146.740000
427.389282	145.840000
427.482941	146.160000
427.576630	145.980000
427.670258	145.360000
427.763947	145.160000
427.857574	145.200000
427.951263	145.220000
428.044922	145.100000
428.138611	145.220000
428.232239	145.980000
428.325928	146.500000
428.419556	146.880000
428.513245	146.640000
428.606903	146.980000
428.700562	146.060000
428.794220	145.300000
428.887878	144.540000
428.981537	144.860000
429.075195	145.020000
429.168854	145.520000
429.262512	145.900000
429.356201	146.200000
429.449860	146.100000
429.543518	145.640000
429.637177	145.680000
429.730835	145.780000
429.824493	145.540000
429.918182	145.580000
430.011810	145.380000
430.105530	144.560000
430.199158	144.560000
430.292847	144.720000
430.386475	144.880000
430.480164	145.040000
430.573792	145.180000
430.667511	145.000000
430.761139	145.000000
430.854828	145.340000
430.948456	145.440000
431.042145	146.180000
431.135834	146.180000
431.229492	146.140000
431.323151	145.940000
431.416809	145.940000
431.510468	145.780000
431.604156	145.680000
431.697815	145.720000
431.791473	145.240000
431.885132	144.940000
431.978821	145.220000
432.072479	145.680000
432.166138	146.300000
432.259827	146.580000
432.353485	147.200000
432.447174	147.160000
432.540802	146.700000
432.634491	146.360000
432.728149	146.540000
432.821838	146.960000
432.915466	146.220000
433.009186	146.440000
433.102814	145.820000
433.196503	145.500000
433.290131	144.840000
433.383850	145.380000
433.477509	145.480000
433.571167	146.480000
433.664856	146.840000
433.758514	147.260000
433.852173	147.160000
433.945862	146.760000
434.039520	146.420000
434.133179	146.100000
434.226868	145.640000
434.320526	145.300000
434.414185	146.140000
434.507874	145.840000
434.601562	146.060000
434.695221	146.240000
434.788910	146.620000
434.882538	146.520000
434.976257	146.080000
435.069885	146.080000
435.163574	145.940000
435.257233	145.180000
435.350922	144.980000
435.444580	145.000000
435.538269	144.600000
435.631897	145.140000
435.725616	146.220000
435.819275	146.380000
435.912964	147.320000
436.006622	148.180000
436.100311	147.840000
436.193970	146.940000
436.287628	146.580000
436.381317	146.140000
436.474976	145.240000
436.568665	144.660000
436.662323	145.120000
436.756012	145.320000
436.849670	144.840000
436.943390	145.280000
437.037018	145.660000
437.130737	145.520000
437.224365	145.100000
437.318085	145.260000
437.411713	145.220000
437.505432	145.660000
437.599060	146.320000
437.692780	146.920000
437.786407	146.920000
437.880127	146.680000
437.973755	146.100000
438.067474	145.340000
438.161133	145.100000
438.254822	145.860000
438.348480	145.500000
438.442169	146.160000
438.535828	146.800000
438.629517	146.520000
438.723175	145.640000
438.816864	146.460000
438.910553	146.060000
439.004211	145.580000
439.097900	145.820000
439.191559	146.180000
439.285248	145.460000
439.378906	145.600000
439.472626	145.680000
439.566284	145.660000
439.659973	145.740000
439.753632	145.840000
439.847321	146.020000
439.940979	146.100000
440.034698	146.100000
440.128326	145.680000
440.222046	145.620000
440.315674	145.080000
440.409393	145.340000
440.503082	144.940000
440.596741	145.580000
440.690430	146.080000
440.784088	146.060000
440.877777	145.280000
440.971466	145.540000
441.065125	145.220000
441.158813	144.600000
441.252502	144.880000
441.346161	145.520000
441.439850	145.760000
441.533539	145.460000
441.627197	146.040000
441.720886	145.720000
441.814606	145.900000
441.908234	145.860000
442.001953	145.760000
442.095612	145.740000
442.189301	146.040000
442.282959	145.880000
442.376678	145.400000
442.470306	146.220000
442.564026	146.060000
442.657684	146.340000
442.751404	146.100000
442.845032	147.060000
442.938751	146.300000
443.032440	146.640000
443.126099	145.880000
443.219788	146.460000
443.313477	146.080000
443.407166	146.600000
443.500824	146.360000
443.594513	146.920000
443.688202	146.680000
443.781891	146.160000
443.875549	145.500000
443.969238	145.600000
444.062927	145.560000
444.156647	145.100000
444.250275	145.640000
444.343994	146.020000
444.437653	146.060000
444.531372	145.780000
444.625031	145.820000
444.718719	145.100000
444.812378	145.300000
444.906097	144.860000
444.999756	144.660000
445.093445	144.900000
445.187103	145.420000
445.280823	146.000000
445.374512	145.760000
445.468201	146.200000
445.561859	145.840000
445.655548	145.920000
445.749237	144.840000
445.842926	145.260000
445.936615	145.540000
446.030304	145.400000
446.123962	145.460000
446.217651	145.740000
446.311340	146.040000
446.405029	145.480000
446.498749	145.600000
446.592407	145.160000
446.686096	145.240000
446.779755	145.380000
446.873474	145.820000
446.967133	146.120000
447.060852	146.100000
447.154510	146.120000
447.248230	145.760000
447.341858	145.440000
447.435577	144.980000
447.529236	144.960000
447.622955	144.780000
447.716644	145.020000
447.810333	145.440000
447.904022	146.100000
447.997711	146.140000
448.091400	146.540000
448.185059	146.220000
448.278748	146.040000
448.372437	145.560000
448.466125	145.980000
448.559814	145.600000
448.653503	146.140000
448.747192	146.420000
448.840912	146.900000
448.934570	146.600000
449.028290	147.060000
449.121948	146.500000
449.215637	146.120000
449.309296	145.880000
449.403015	146.180000
449.496674	145.900000
449.590393	145.960000
449.684052	145.820000
449.777771	146.160000
449.871429	145.200000
449.965149	145.380000
450.058838	145.600000
450.152527	145.980000
450.246216	145.620000
450.339905	146.240000
450.433594	145.800000
450.527283	146.260000
450.620972	146.160000
450.714661	146.280000
450.808350	146.300000
450.902039	146.780000
450.995728	146.420000
451.089417	145.980000
451.183105	145.900000
451.276794	146.320000
451.370514	145.480000
451.464172	144.380000
451.557892	144.120000
451.651550	144.480000
451.745270	143.820000
451.838928	144.120000
451.932648	145.120000
452.026306	145.800000
452.120026	145.520000
452.213684	146.340000
452.307404	146.540000
452.401062	146.660000
452.494781	146.700000
452.588470	146.620000
452.682159	145.980000
452.775848	146.280000
452.869537	145.540000
452.963226	145.300000
453.056915	145.360000
453.150604	145.400000
453.244293	145.240000
453.337982	146.160000
453.431671	146.220000
453.525360	146.500000
453.619049	146.800000
453.712769	146.820000
453.806427	146.500000
453.900146	146.340000
453.993805	145.960000
454.087555	146.060000
454.181213	146.120000
454.274933	145.560000
454.368591	145.680000
454.462311	145.700000
454.555969	145.020000
454.649689	145.720000
454.743347	145.640000
454.837067	146.180000
454.930756	146.480000
455.024445	147.100000
455.118134	146.320000
455.211853	146.740000
455.305542	146.180000
455.399231	145.820000
455.492920	145.700000
455.586609	145.680000
455.680298	145.720000
455.773987	145.340000
455.867676	145.620000
455.961365	145.800000
456.055084	145.620000
456.148773	145.720000
456.242493	146.180000
456.336151	146.100000
456.429871	146.260000
456.523529	146.980000
456.617249	146.600000
456.710907	147.200000
456.804626	147.320000
456.898315	146.580000
456.992035	146.200000
457.085693	146.200000
457.179413	145.340000
457.273102	146.040000
457.366791	146.180000
457.460480	146.520000
457.554199	147.360000
457.647888	147.620000
457.741577	146.920000
457.835266	147.160000
457.928955	146.860000
458.022644	146.460000
458.116364	146.740000
458.210052	146.660000
458.303741	146.860000
458.397461	146.180000
458.491119	145.800000
458.584839	145.480000
458.678528	145.120000
458.772247	144.520000
458.865906	145.000000
458.959625	145.880000
459.053284	146.040000
459.147003	146.120000
459.240692	146.920000
459.334412	147.040000
459.428070	146.480000
459.521790	145.980000
459.615479	145.960000
459.709198	146.120000
459.802887	145.600000
459.896576	144.980000
459.990265	145.580000
460.083954	146.000000
460.177673	145.180000
460.271362	145.560000
460.365051	145.920000
460.458740	145.460000
460.552429	144.760000
460.646149	144.840000
460.739838	144.600000
460.833527	144.640000
460.927246	144.360000
461.020905	144.500000
461.114655	144.540000
461.208313	144.880000
461.302032	144.580000
461.395691	144.940000
461.489441	145.360000
461.583099	145.240000
461.676819	144.900000
461.770477	145.560000
461.864197	145.460000
461.957916	145.120000
462.051605	144.740000
462.145294	145.720000
462.238983	145.160000
462.332703	145.620000
462.426392	146.220000
462.520081	146.440000
462.613770	145.600000
462.707489	146.080000
462.801178	145.960000
462.894867	145.380000
462.988556	145.860000
463.082275	146.140000
463.175964	145.800000
463.269684	145.780000
463.363342	146.100000
463.457092	145.160000
463.550751	144.920000
463.644470	144.980000
463.738129	144.780000
463.831879	144.660000
463.925537	145.800000
464.019257	146.000000
464.112946	146.080000
464.206665	146.240000
464.300323	146.160000
464.394043	145.680000
464.487762	145.540000
464.581451	145.920000
464.675140	145.800000
464.768829	145.840000
464.862549	145.840000
464.956238	146.120000
465.049927	145.840000
465.143646	146.000000
465.237335	145.740000
465.331024	146.320000
465.424713	146.200000
465.518433	146.220000
465.612152	145.900000
465.705811	146.160000
465.799561	145.620000
465.893219	145.540000
465.986938	145.400000
466.080597	145.300000
466.174347	145.520000
466.268005	145.480000
466.361725	145.620000
466.455414	145.800000
466.549133	145.580000
466.642792	145.480000
466.736542	145.300000
466.830231	145.180000
466.923920	144.860000
467.017609	145.240000
467.111328	145.140000
467.205017	145.300000
467.298706	144.980000
467.392426	145.300000
467.486115	145.260000
467.579803	145.020000
467.673523	145.340000
467.767212	145.860000
467.860901	145.800000
467.954651	146.340000
468.048309	146.560000
468.142029	146.420000
468.235718	146.200000
468.329437	145.940000
468.423096	145.660000
468.516846	145.660000
468.610504	145.340000
468.704224	145.120000
468.797913	144.940000
468.891632	144.980000
468.985291	144.820000
469.079010	144.820000
469.172729	144.640000
469.266418	145.160000
469.360107	145.140000
469.453827	145.100000
469.547516	145.440000
469.641205	146.120000
469.734924	146.120000
469.828613	146.400000
469.922302	146.640000
470.016022	146.540000
470.109711	146.320000
470.203430	145.640000
470.297150	144.820000
470.390808	144.880000
470.484558	144.780000
470.578217	144.920000
470.671936	145.980000
470.765625	146.740000
470.859344	146.320000
470.953003	146.640000
471.046753	146.460000
471.140411	145.520000
471.234131	145.380000
471.327820	146.100000
471.421539	145.820000
471.515228	145.300000
471.608948	145.620000
471.702637	145.140000
471.796326	144.600000
471.890045	144.780000
471.983734	145.440000
472.077423	145.260000
472.171143	145.540000
472.264832	145.660000
472.358521	145.380000
472.452240	144.920000
472.545929	145.260000
472.639648	145.500000
472.733337	145.780000
472.827057	145.960000
472.920746	146.020000
473.014465	146.340000
473.108124	146.420000
473.201874	146.320000
473.295532	146.000000
473.389252	146.520000
473.482941	146.280000
473.576660	145.800000
473.670319	145.460000
473.764069	146.080000
473.857727	146.300000
473.951477	146.540000
474.045166	147.320000
474.138855	147.540000
474.232574	147.160000
474.326263	146.800000
474.419952	146.880000
474.513672	146.220000
474.607361	146.100000
474.701050	146.380000
474.794769	146.560000
474.888458	146.460000
474.982178	146.600000
475.075867	146.680000
475.169586	146.880000
475.263275	146.600000
475.356995	146.340000
475.450653	146.140000
475.544403	145.940000
475.638062	146.340000
475.731812	146.000000
475.825470	145.940000
475.919189	146.080000
476.012878	146.520000
476.106598	145.540000
476.200256	146.140000
476.294006	146.280000
476.387695	146.160000
476.481384	145.840000
476.575104	145.920000
476.668793	145.620000
476.762512	145.140000
476.856201	145.720000
476.949890	145.680000
477.043610	145.380000
477.137299	145.300000
477.230988	145.820000
477.324707	145.180000
477.418396	145.540000
477.512146	145.840000
477.605804	145.920000
477.699524	145.940000
477.793213	146.000000
477.886932	145.760000
477.980591	145.540000
478.074341	145.320000
478.167999	144.920000
478.261749	145.040000
478.355408	144.780000
478.449127	145.140000
478.542816	145.920000
478.636536	146.560000
478.730225	146.680000
478.823944	147.020000
478.917633	147.120000
479.011322	146.780000
479.105042	146.480000
479.198730	146.700000
479.292450	146.440000
479.386139	146.600000
479.479828	146.760000
479.573547	147.140000
479.667267	146.800000
479.760925	147.020000
479.854675	146.920000
479.948334	146.740000
480.042084	146.040000
480.135742	146.180000
480.229462	145.980000
480.323151	146.080000
480.416870	145.540000
480.510529	145.840000
480.604279	145.460000
480.697937	145.820000
480.791656	145.260000
480.885345	145.340000
480.979065	145.120000
481.072754	145.560000
481.166473	145.900000
481.260132	146.100000
481.353882	146.120000
481.447540	146.220000
481.541260	146.120000
481.635010	145.260000
481.728668	145.180000
481.822388	145.200000
481.916077	145.260000
482.009796	145.160000
482.103485	145.720000
482.197205	145.780000
482.290863	146.000000
482.384613	145.840000
482.478271	145.480000
482.571991	145.420000
482.665680	145.380000
482.759399	146.240000
482.853058	146.740000
482.946808	146.800000
483.040466	146.660000
483.134216	146.780000
483.227875	145.820000
483.321594	145.900000
483.415283	146.240000
483.509003	146.020000
483.602661	145.800000
483.696411	146.300000
483.790070	146.080000
483.883789	146.020000
483.977478	146.320000
484.071198	146.380000
484.164917	145.680000
484.258606	145.340000
484.352325	145.600000
484.445984	145.360000
484.539734	145.440000
484.633392	145.280000
484.727142	146.000000
484.820801	145.500000
484.914520	145.600000
485.008209	145.480000
485.101929	146.180000
485.195587	145.680000
485.289337	146.060000
485.382996	146.140000
485.476715	146.240000
485.570404	146.320000
485.664124	146.260000
485.757782	146.520000
485.851532	146.040000
485.945190	146.060000
486.038910	145.960000
486.132599	146.240000
486.226318	145.500000
486.319977	145.920000
486.413727	146.620000
486.507446	145.920000
486.601105	145.380000
486.694855	145.480000
486.788513	145.140000
486.882233	144.460000
486.975922	144.980000
487.069641	144.980000
487.163300	145.120000
487.257050	146.520000
487.350708	146.180000
487.444427	145.520000
487.538116	145.660000
487.631836	145.700000
487.725494	144.860000
487.819214	145.000000
487.912903	145.280000
488.006622	145.700000
488.100281	145.860000
488.194031	145.420000
488.287689	145.860000
488.381409	146.640000
488.475098	146.260000
488.568817	146.280000
488.662476	146.160000
488.756226	145.420000
488.849945	144.340000
488.943604	144.200000
489.037354	144.120000
489.131012	144.280000
489.224731	144.460000
489.318390	144.880000
489.412140	145.020000
489.505798	144.800000
489.599518	144.300000
489.693207	144.880000
489.786926	144.860000
489.880585	144.500000
489.974335	144.840000
490.067993	146.160000
490.161713	146.000000
490.255371	146.740000
490.349121	147.060000
490.442780	146.700000
490.536499	146.060000
490.630188	146.360000
490.723907	145.340000
490.817566	145.240000
490.911285	145.260000
491.004974	145.060000
491.098694	144.200000
491.192413	144.940000
491.286102	145.040000
491.379822	145.280000
491.473480	145.560000
491.567200	145.900000
491.660889	145.420000
491.754608	145.400000
491.848267	145.180000
491.941986	144.980000
492.035675	144.940000
492.129395	145.400000
492.223053	145.280000
492.316772	145.760000
492.410461	145.640000
492.504181	145.580000
492.597839	144.960000
492.691559	145.020000
492.785248	144.820000
492.878967	144.980000
492.972626	144.840000
493.066345	145.320000
493.160034	145.060000
493.253754	144.860000
493.347412	144.380000
493.441132	144.720000
493.534882	145.160000
493.628540	145.500000
493.722260	145.680000
493.815918	146.160000
493.909668	146.620000
494.003326	146.680000
494.097046	146.660000
494.190704	146.500000
494.284454	146.580000
494.378113	146.400000
494.471832	145.680000
494.565491	145.520000
494.659210	145.480000
494.752899	145.240000
494.846619	144.940000
494.940277	145.000000
495.033997	145.060000
495.127686	144.780000
495.221405	144.440000
495.315063	144.420000
495.408783	144.540000
495.502441	144.640000
495.596191	145.040000
495.689850	145.280000
495.783569	145.600000
495.877228	145.600000
495.970947	145.380000
496.064697	144.900000
496.158356	145.540000
496.252075	145.460000
496.345734	145.400000
496.439453	146.220000
496.533142	146.640000
496.626862	146.940000
496.720520	147.060000
496.814240	147.240000
496.907898	146.640000
497.001617	146.700000
497.095306	145.540000
497.189026	145.300000
497.282684	145.340000
497.376404	145.800000
497.470062	145.640000
497.563782	146.240000
497.657471	146.280000
497.751190	145.960000
497.844849	145.360000
497.938568	145.500000
498.032227	145.460000
498.125946	145.440000
498.219635	145.280000
498.313354	145.660000
498.407074	145.140000
498.500732	145.240000
498.594452	145.340000
498.688110	145.060000
498.781830	144.800000
498.875519	145.040000
498.969238	144.600000
499.062897	144.360000
499.156616	145.040000
499.250275	145.360000
499.343994	145.480000
499.437653	145.760000
499.531372	145.840000
499.625061	146.200000
499.718781	146.240000
499.812439	146.400000
499.906158	145.980000
499.999817	145.700000
500.093536	145.080000
500.187195	144.900000
500.280914	144.920000
500.374573	145.500000
500.468323	145.580000
500.561981	145.660000
500.655701	145.200000
500.749420	145.000000
500.843079	145.000000
500.936798	145.320000
501.030457	145.920000
501.124176	146.420000
501.217834	146.480000
501.311554	146.200000
501.405212	146.000000
501.498962	145.400000
501.592621	145.380000
501.686340	145.860000
501.779999	146.100000
501.873718	146.020000
501.967377	146.360000
502.061096	146.320000
502.154755	145.520000
502.248474	145.560000
502.342133	145.980000
502.435852	145.760000
502.529510	146.360000
502.623230	147.160000
502.716888	146.560000
502.810608	146.340000
502.904266	146.660000
502.997986	146.020000
503.091705	145.360000
503.185364	145.700000
503.279083	145.500000
503.372772	145.440000
503.466492	145.040000
503.560150	145.160000
503.653870	145.340000
503.747528	145.420000
503.841248	145.380000
503.934906	145.700000
504.028625	145.540000
504.122284	145.660000
504.216003	146.360000
504.309662	145.660000
504.403381	145.860000
504.497040	145.820000
504.590759	145.540000
504.684418	145.420000
504.778137	146.120000
504.871796	146.280000
504.965515	146.360000
505.059174	146.540000
505.152893	145.560000
505.246521	144.840000
505.340240	144.240000
505.433899	144.500000
505.527618	144.380000
505.621338	145.100000
505.714996	145.220000
505.808716	145.540000
505.902374	146.020000
505.996094	146.240000
506.089752	145.740000
506.183472	146.160000
506.277130	146.200000
506.370850	145.920000
506.464508	145.540000
506.558228	145.840000
506.651886	145.300000
506.745605	145.420000
506.839264	145.240000
506.932983	145.620000
507.026611	145.560000
507.120331	146.240000
507.213989	145.740000
507.307709	145.780000
507.401367	145.940000
507.495087	147.080000
507.588745	146.620000
507.682465	147.220000
507.776123	147.440000
507.869843	147.160000
507.963531	146.480000
508.057190	147.000000
508.150909	146.480000
508.244568	146.380000
508.338287	146.040000
508.431946	145.420000
508.525665	145.080000
508.619324	145.100000
508.713013	145.140000
508.806671	145.560000
508.900391	146.480000
508.994049	146.460000
509.087769	146.240000
509.181427	146.220000
509.275146	145.960000
509.368774	144.980000
509.462494	144.960000
509.556152	145.440000
509.649872	145.600000
509.743530	145.820000
509.837250	146.220000
509.930878	146.540000
510.024597	146.580000
510.118256	146.220000
510.211975	146.260000
510.305695	146.000000
510.399353	146.100000
510.493042	146.140000
510.586700	146.340000
510.680420	146.920000
510.774078	147.000000
510.867798	146.980000
510.961426	146.580000
511.055145	146.660000
511.148804	146.120000
511.242523	146.460000
511.336151	146.400000
511.429871	146.680000
511.523529	146.060000
511.617249	145.520000
511.710876	145.280000
511.804596	144.720000
511.898254	144.500000
511.991974	145.220000
512.085632	145.340000
512.179321	145.640000
512.272949	146.300000
512.366699	146.980000
512.460327	147.000000
512.554077	147.940000
512.647766	147.880000
512.741394	147.420000
512.835144	147.720000
512.928772	147.200000
513.022461	146.880000
513.116150	146.600000
513.209839	147.000000
513.303467	146.120000
513.397217	146.040000
513.490845	145.520000
513.584595	145.280000
513.678223	145.100000
513.771912	144.780000
513.865601	144.920000
513.959290	145.000000
514.052917	145.260000
514.146667	145.720000
514.240295	146.400000
514.333984	146.740000
514.427673	146.540000
514.521362	146.720000
514.614990	145.980000
514.708740	145.900000
514.802368	145.980000
514.896057	146.320000
514.989746	146.860000
515.083435	146.820000
515.177124	146.980000
515.270752	146.740000
515.364502	146.840000
515.458130	146.720000
515.551819	146.900000
515.645508	146.600000
515.739197	146.540000
515.832825	146.280000
515.926575	145.660000
516.020203	145.860000
516.113892	146.340000
516.207520	146.200000
516.301270	146.420000
516.394897	146.740000
516.488586	147.040000
516.582275	146.680000
516.675964	146.260000
516.769592	146.080000
516.863281	146.540000
516.956970	146.480000
517.050659	146.460000
517.144287	146.900000
517.238037	146.940000
517.331665	145.780000
517.425354	145.640000
517.519043	145.600000
517.612732	145.960000
517.706421	145.960000
517.800049	146.140000
517.893738	145.760000
517.987427	145.520000
518.081116	145.080000
518.174744	144.620000
518.268433	145.140000
518.362122	146.020000
518.455811	146.200000
518.549438	146.660000
518.643127	147.900000
518.736816	147.620000
518.830505	146.900000
518.924133	146.640000
519.017822	146.580000
519.111511	145.900000
519.205200	146.660000
519.298828	146.620000
519.392517	146.600000
519.486206	146.740000
519.579895	146.760000
519.673523	146.000000
519.767212	146.000000
519.860901	146.620000
519.954590	146.440000
520.048279	146.060000
520.141907	146.100000
520.235596	146.980000
520.329224	146.860000
520.422974	146.620000
520.516602	146.720000
520.610291	146.260000
520.703918	145.680000
520.797607	145.340000
520.891296	145.620000
520.984985	145.720000
521.078613	146.600000
521.172302	146.140000
521.265930	147.100000
521.359680	147.520000
521.453308	147.600000
521.546997	147.060000
521.640625	147.460000
521.734314	146.540000
521.827942	146.260000
521.921692	146.360000
522.015320	146.540000
522.109009	146.120000
522.202698	145.880000
522.296326	145.440000
522.390015	145.420000
522.483704	145.580000
522.577393	145.640000
522.671021	145.660000
522.764709	145.320000
522.858337	145.720000
522.952026	145.640000
523.045654	146.420000
523.139404	147.240000
523.233032	147.660000
523.326721	147.420000
523.420349	147.400000
523.514038	146.840000
523.607666	146.880000
523.701355	146.400000
523.795044	146.320000
523.888733	146.500000
523.982361	146.800000
524.076050	146.340000
524.169678	147.160000
524.263367	146.800000
524.356995	146.400000
524.450684	146.180000
524.544373	145.640000
524.638062	145.360000
524.731750	145.740000
524.825378	145.800000
524.919067	145.200000
525.012695	145.840000
525.106384	145.560000
525.200012	145.460000
525.293701	145.140000
525.387329	145.800000
525.481018	145.380000
525.574646	145.780000
525.668396	145.780000
525.762024	146.380000
525.855713	146.680000
525.949341	146.780000
526.043030	146.760000
526.136658	146.740000
526.230347	146.480000
526.323975	145.800000
526.417664	145.620000
526.511292	145.780000
526.604980	145.880000
526.698608	145.840000
526.792297	145.780000
526.885925	145.980000
526.979614	145.860000
527.073303	145.460000
527.166931	145.700000
527.260620	145.880000
527.354309	146.320000
527.447998	146.020000
527.541626	146.160000
527.635315	146.100000
527.728943	146.620000
527.822632	146.420000
527.916260	146.700000
528.009949	146.660000
528.103577	146.500000
528.197266	145.800000
528.290894	145.680000
528.384583	145.560000
528.478210	145.760000
528.571899	145.800000
528.665527	146.340000
528.759216	146.560000
528.852844	146.900000
528.946533	146.900000
529.040161	146.980000
529.133850	146.440000
529.227478	146.500000
529.321167	146.640000
529.414856	146.880000
529.508484	147.260000
529.602173	147.380000
529.695801	147.220000
529.789490	146.860000
529.883057	146.540000
529.976746	146.460000
530.070374	146.820000
530.164062	146.660000
530.257690	146.720000
530.351379	146.980000
530.445007	146.660000
530.538696	146.060000
530.632324	146.500000
530.726013	146.300000
530.819641	146.300000
530.913330	146.400000
531.006958	146.520000
531.100647	146.220000
531.194275	146.120000
531.287964	145.740000
531.381592	145.540000
531.475220	145.900000
531.568848	145.820000
531.662537	145.840000
531.756226	146.260000
531.849854	146.440000
531.943542	146.420000
532.037170	146.100000
532.130859	146.760000
532.224487	146.460000
532.318176	145.780000
532.411804	146.260000
532.505432	146.500000
532.599060	145.940000
532.692749	145.820000
532.786377	146.680000
532.880066	145.760000
532.973694	145.320000
533.067383	145.480000
533.161011	145.600000
533.254639	145.260000
533.348267	145.380000
533.441956	145.900000
533.535583	145.740000
533.629272	145.720000
533.722900	145.120000
533.816589	145.220000
533.910156	145.460000
534.003845	144.940000
534.097534	145.260000
534.191162	146.400000
534.284851	146.480000
534.378479	146.100000
534.472107	146.360000
534.565735	145.980000
534.659424	145.600000
534.753052	145.880000
534.846741	145.800000
534.940369	146.720000
535.033997	146.840000
535.127625	146.920000
535.221313	146.940000
535.314941	146.820000
535.408630	145.760000
535.502197	145.980000
535.595886	145.700000
535.689514	145.280000
535.783203	145.780000
535.876831	146.180000
535.970459	146.100000
536.064087	145.960000
536.157776	146.080000
536.251404	146.160000
536.345093	146.200000
536.438721	146.140000
536.532349	146.660000
536.626038	146.440000
536.719666	146.460000
536.813293	145.900000
536.906921	145.740000
537.000610	145.600000
537.094238	145.820000
537.187866	145.560000
537.281494	145.920000
537.375183	145.960000
537.468811	145.560000
537.562439	145.640000
537.656067	145.540000
537.749756	145.680000
537.843384	146.120000
537.937012	146.480000
538.030640	146.140000
538.124329	146.420000
538.217896	146.900000
538.311584	146.620000
538.405212	146.700000
538.498901	147.020000
538.592468	147.460000
538.686157	146.660000
538.779785	146.100000
538.873413	145.780000
538.967102	145.580000
539.060730	144.800000
539.154358	145.220000
539.247986	145.860000
539.341675	146.180000
539.435242	146.440000
539.528931	146.460000
539.622559	146.300000
539.716187	146.620000
539.809814	146.320000
539.903503	146.060000
539.997070	146.080000
540.090759	146.120000
540.184387	145.800000
540.278015	146.140000
540.371643	146.500000
540.465332	146.560000
540.558899	146.280000
540.652588	146.500000
540.746216	146.020000
540.839844	146.080000
540.933472	146.340000
541.027100	146.560000
541.120728	146.420000
541.214417	146.860000
541.308044	146.920000
541.401672	146.800000
541.495300	146.340000
541.588928	146.040000
541.682617	145.680000
541.776184	145.560000
541.869873	145.660000
541.963440	146.180000
542.057129	146.220000
542.150757	146.600000
542.244385	146.140000
542.338013	145.560000
542.431641	145.320000
542.525269	145.140000
542.618958	145.480000
542.712524	145.860000
542.806213	145.920000
542.899780	146.080000
542.993469	146.080000
543.087036	145.300000
543.180725	144.780000
543.274292	145.160000
543.367981	145.120000
543.461548	145.460000
543.555237	145.760000
543.648926	146.660000
543.742493	147.400000
543.836182	147.540000
543.929749	147.600000
544.023437	147.600000
544.117004	147.140000
544.210693	146.640000
544.304260	146.620000
544.397949	146.460000
544.491516	146.760000
544.585205	146.840000
544.678772	146.240000
544.772461	146.580000
544.866028	146.500000
544.959717	146.460000
545.053284	146.200000
545.146973	146.660000
545.240540	146.580000
545.334229	147.180000
545.427795	147.260000
545.521423	147.220000
545.615051	147.200000
545.708679	147.780000
545.802307	147.540000
545.895935	147.640000
545.989624	148.600000
546.083191	148.780000
546.176880	148.280000
546.270447	147.740000
546.364136	148.140000
546.457703	147.380000
546.551331	147.100000
546.644958	147.020000
546.738586	147.360000
546.832214	146.420000
546.925842	146.220000
547.019409	146.620000
547.113098	146.300000
547.206665	146.100000
547.300354	146.180000
547.393921	146.900000
547.487549	146.940000
547.581177	147.000000
547.674805	146.960000
547.768433	146.440000
547.862061	146.180000
547.955627	145.240000
548.049316	145.540000
548.142883	145.820000
548.236572	146.440000
548.330139	146.480000
548.423767	146.700000
548.517456	146.480000
548.611023	146.580000
548.704651	146.120000
548.798279	145.800000
548.891907	146.480000
548.985474	146.260000
549.079163	146.140000
549.172729	146.100000
549.266357	145.640000
549.359985	145.040000
549.453613	144.620000
549.547180	144.520000
549.640869	145.140000
549.734436	145.260000
549.828064	146.080000
549.921631	146.540000
550.015320	146.480000
550.108887	146.560000
550.202515	147.020000
550.296143	146.040000
550.389771	146.060000
550.483337	146.080000
550.576965	146.020000
550.670593	146.360000
550.764221	146.780000
550.857849	146.780000
550.951477	146.380000
551.045105	146.020000
551.138672	145.920000
551.232300	145.500000
551.325928	145.660000
551.419556	145.980000
551.513123	146.020000
551.606750	145.360000
551.700378	145.560000
551.794006	145.300000
551.887573	145.300000
551.981201	145.760000
552.074768	145.760000
552.168457	145.540000
552.262024	146.620000
552.355652	146.620000
552.449219	147.140000
552.542847	147.540000
552.636475	147.580000
552.730103	146.680000
552.823669	146.640000
552.917297	145.520000
553.010864	145.360000
553.104553	145.860000
553.198181	145.480000
553.291748	146.040000
553.385376	146.440000
553.478943	146.260000
553.572571	146.280000
553.666199	146.660000
553.759827	146.040000
553.853394	145.440000
553.947021	145.620000
554.040588	145.280000
554.134216	145.520000
554.227783	146.280000
554.321411	147.280000
554.415039	147.060000
554.508667	147.020000
554.602234	147.140000
554.695862	146.300000
554.789429	145.800000
554.883057	146.160000
554.976624	146.400000
555.070251	145.880000
555.163818	145.860000
555.257507	146.020000
555.351074	145.800000
555.444702	146.660000
555.538330	146.480000
555.631897	147.020000
555.725525	146.740000
555.819092	146.740000
555.912720	145.320000
556.006287	145.940000
556.099915	145.500000
556.193481	145.840000
556.287109	146.160000
556.380676	146.440000
556.474304	146.220000
556.567871	146.280000
556.661499	145.620000
556.755066	145.360000
556.848694	145.620000
556.942261	145.680000
557.035889	146.180000
557.129517	146.620000
557.223145	146.740000
557.316711	146.780000
557.410339	146.620000
557.503906	146.080000
557.597473	146.060000
557.691040	146.040000
557.784668	146.040000
557.878296	146.060000
557.971863	146.080000
558.065491	146.280000
558.159058	146.300000
558.252686	146.740000
558.346252	147.500000
558.439880	147.480000
558.533447	147.120000
558.627075	146.820000
558.720642	146.380000
558.814270	145.880000
558.907837	146.160000
559.001465	146.020000
559.095032	146.740000
559.188660	146.660000
559.282227	146.100000
559.375854	146.520000
559.469360	146.600000
559.562988	146.800000
559.656555	147.140000
559.750183	147.860000
559.843750	147.380000
559.937378	147.380000
560.030945	146.940000
560.124573	0.000000
560.218140	0.000000
560.311707	0.000000
560.405334	0.000000
560.498901	0.000000
560.592529	0.000000
560.686096	0.000000
560.779724	0.000000
560.873291	0.000000
560.966858	0.000000
561.060425	0.000000
561.154053	0.000000
561.247620	0.000000
561.341248	0.000000
561.434814	0.000000
561.528381	0.000000
561.621948	0.000000
561.715576	0.000000
561.809143	0.000000
561.902771	0.000000
561.996277	0.000000
562.089905	0.000000
562.183472	0.000000
562.277100	0.000000
