Model Number: SPM-002-B   
Serial Number: 70087108
Firmware Version: 004.15.4
Exposure Time: 100000.000000us
Data Taken on: 11-12-2020 19:32:10.216
Wavelength	Amplitude
221.570786	0.000000
221.663406	0.000000
221.756027	0.000000
221.848648	0.000000
221.941269	0.000000
222.033905	0.000000
222.126526	0.000000
222.219162	0.000000
222.311798	0.000000
222.404419	0.000000
222.497055	0.000000
222.589676	0.000000
222.682312	0.000000
222.774933	0.000000
222.867569	0.000000
222.960205	0.000000
223.052841	0.000000
223.145462	0.000000
223.238098	0.000000
223.330734	0.000000
223.423386	0.000000
223.516022	0.000000
223.608658	0.000000
223.701309	0.000000
223.793945	0.000000
223.886581	0.000000
223.979218	0.000000
224.071869	0.000000
224.164505	0.000000
224.257156	0.000000
224.349792	0.000000
224.442444	0.000000
224.535095	0.000000
224.627747	0.000000
224.720398	0.000000
224.813034	0.000000
224.905685	0.000000
224.998337	144.800000
225.090988	144.740000
225.183640	144.640000
225.276291	144.080000
225.368942	144.420000
225.461594	144.900000
225.554245	145.300000
225.646912	145.180000
225.739578	145.720000
225.832230	145.940000
225.924896	145.320000
226.017548	145.520000
226.110199	146.360000
226.202866	145.640000
226.295532	145.520000
226.388184	145.580000
226.480850	144.900000
226.573517	144.300000
226.666168	145.120000
226.758835	145.480000
226.851501	145.940000
226.944183	146.140000
227.036850	145.700000
227.129517	145.380000
227.222183	145.200000
227.314850	145.100000
227.407516	145.260000
227.500198	146.160000
227.592865	145.920000
227.685532	145.500000
227.778214	145.380000
227.870880	145.660000
227.963562	145.720000
228.056229	146.080000
228.148926	146.240000
228.241592	147.020000
228.334274	146.800000
228.426956	146.480000
228.519638	146.280000
228.612305	145.760000
228.704987	145.340000
228.797668	145.180000
228.890350	144.940000
228.983032	144.580000
229.075714	145.620000
229.168396	145.260000
229.261108	145.360000
229.353790	145.360000
229.446472	145.820000
229.539169	145.620000
229.631851	145.260000
229.724533	145.460000
229.817230	145.800000
229.909912	146.740000
230.002609	146.660000
230.095306	146.940000
230.187988	147.000000
230.280685	146.700000
230.373383	145.420000
230.466095	145.260000
230.558792	145.580000
230.651474	145.300000
230.744171	145.280000
230.836868	145.380000
230.929581	145.520000
231.022278	145.420000
231.114975	145.480000
231.207672	145.340000
231.300369	145.680000
231.393082	145.840000
231.485779	145.640000
231.578506	145.660000
231.671204	145.860000
231.763916	145.920000
231.856613	145.780000
231.949326	146.180000
232.042023	145.960000
232.134735	146.160000
232.227448	145.660000
232.320160	145.700000
232.412872	145.480000
232.505585	146.560000
232.598297	146.560000
232.691010	146.860000
232.783722	146.780000
232.876450	147.220000
232.969162	146.160000
233.061874	145.920000
233.154587	145.500000
233.247314	145.240000
233.340027	144.720000
233.432739	145.140000
233.525467	145.040000
233.618179	145.660000
233.710907	145.620000
233.803635	146.120000
233.896347	145.700000
233.989090	146.240000
234.081818	145.860000
234.174545	146.280000
234.267258	145.780000
234.359985	146.180000
234.452713	146.080000
234.545441	145.800000
234.638168	145.200000
234.730896	145.480000
234.823639	145.300000
234.916367	145.300000
235.009094	145.720000
235.101822	145.960000
235.194580	145.980000
235.287308	145.980000
235.380051	145.240000
235.472778	145.700000
235.565521	146.120000
235.658249	145.800000
235.750992	145.980000
235.843719	146.380000
235.936462	146.220000
236.029205	145.760000
236.121948	145.480000
236.214691	146.020000
236.307449	146.420000
236.400192	146.160000
236.492935	146.120000
236.585678	146.400000
236.678421	145.920000
236.771164	145.860000
236.863907	146.300000
236.956665	146.580000
237.049408	148.220000
237.142151	147.560000
237.234909	148.020000
237.327652	147.660000
237.420410	147.300000
237.513153	146.140000
237.605927	146.220000
237.698669	145.620000
237.791428	145.060000
237.884186	145.740000
237.976944	145.240000
238.069702	145.820000
238.162445	145.020000
238.255203	145.340000
238.347961	145.620000
238.440720	145.760000
238.533478	145.540000
238.626266	145.760000
238.719025	145.820000
238.811783	145.000000
238.904541	144.800000
238.997314	144.460000
239.090073	144.260000
239.182831	144.820000
239.275604	145.700000
239.368362	145.580000
239.461136	145.740000
239.553909	146.060000
239.646667	145.540000
239.739441	144.860000
239.832214	145.420000
239.925003	145.760000
240.017761	146.480000
240.110535	146.980000
240.203308	146.980000
240.296082	146.900000
240.388855	146.700000
240.481628	146.260000
240.574417	146.480000
240.667191	146.500000
240.759964	145.860000
240.852737	146.040000
240.945526	146.060000
241.038315	145.620000
241.131088	145.860000
241.223877	146.400000
241.316650	145.880000
241.409439	146.080000
241.502228	145.360000
241.595001	145.640000
241.687790	145.180000
241.780579	145.400000
241.873367	145.440000
241.966141	146.340000
242.058929	145.820000
242.151718	146.120000
242.244507	146.340000
242.337311	145.460000
242.430099	145.500000
242.522903	145.640000
242.615692	145.540000
242.708481	145.320000
242.801270	146.260000
242.894073	146.020000
242.986862	145.960000
243.079651	146.660000
243.172455	146.480000
243.265244	146.560000
243.358063	146.060000
243.450867	146.120000
243.543655	145.420000
243.636459	145.760000
243.729263	145.420000
243.822067	145.900000
243.914856	146.180000
244.007660	146.440000
244.100464	146.600000
244.193268	146.560000
244.286072	146.400000
244.378876	145.820000
244.471680	145.640000
244.564499	145.580000
244.657318	145.960000
244.750122	145.960000
244.842926	145.640000
244.935745	145.940000
245.028549	145.560000
245.121368	145.100000
245.214172	145.220000
245.306992	145.680000
245.399796	145.400000
245.492615	145.500000
245.585434	145.500000
245.678253	145.460000
245.771072	145.200000
245.863892	145.740000
245.956711	146.060000
246.049530	146.140000
246.142349	145.880000
246.235168	146.220000
246.327988	146.300000
246.420807	146.160000
246.513626	146.100000
246.606445	146.300000
246.699280	146.200000
246.792099	145.760000
246.884918	145.400000
246.977753	145.280000
247.070587	145.040000
247.163422	145.100000
247.256241	145.220000
247.349075	145.520000
247.441895	145.380000
247.534729	145.500000
247.627563	145.160000
247.720383	145.680000
247.813217	145.820000
247.906052	145.720000
247.998886	145.740000
248.091736	145.920000
248.184570	145.460000
248.277405	145.540000
248.370239	146.700000
248.463074	147.560000
248.555908	148.060000
248.648743	147.820000
248.741592	147.660000
248.834427	146.940000
248.927261	145.920000
249.020111	145.960000
249.112946	146.620000
249.205795	146.320000
249.298630	146.400000
249.391495	146.320000
249.484344	145.900000
249.577179	145.460000
249.670029	145.880000
249.762878	146.560000
249.855728	146.760000
249.948563	146.760000
250.041412	146.460000
250.134262	146.700000
250.227112	146.200000
250.319962	146.320000
250.412827	146.320000
250.505692	146.040000
250.598541	145.620000
250.691391	145.440000
250.784241	145.480000
250.877106	146.020000
250.969955	145.820000
251.062805	146.260000
251.155670	146.500000
251.248520	146.460000
251.341385	146.220000
251.434235	146.540000
251.527100	146.060000
251.619965	145.680000
251.712814	146.420000
251.805695	146.420000
251.898560	146.460000
251.991425	146.680000
252.084290	147.220000
252.177155	146.440000
252.270020	145.960000
252.362885	145.920000
252.455750	145.980000
252.548615	145.340000
252.641479	145.240000
252.734360	145.040000
252.827240	145.060000
252.920105	145.160000
253.012970	145.100000
253.105850	145.160000
253.198715	144.880000
253.291595	145.060000
253.384460	144.400000
253.477341	144.400000
253.570221	144.660000
253.663086	145.080000
253.755966	145.640000
253.848846	145.940000
253.941727	146.340000
254.034592	145.980000
254.127472	145.200000
254.220367	144.960000
254.313248	144.880000
254.406128	144.340000
254.499008	144.720000
254.591904	146.020000
254.684784	146.480000
254.777664	147.040000
254.870544	146.760000
254.963440	146.740000
255.056335	146.560000
255.149216	145.780000
255.242111	145.880000
255.334991	146.660000
255.427887	146.580000
255.520767	146.660000
255.613663	147.020000
255.706558	146.360000
255.799438	145.840000
255.892334	145.440000
255.985229	145.220000
256.078125	144.720000
256.171021	144.360000
256.263916	144.820000
256.356812	145.140000
256.449707	145.480000
256.542603	145.560000
256.635498	146.800000
256.728394	146.700000
256.821289	146.420000
256.914215	146.380000
257.007080	146.760000
257.100006	146.080000
257.192932	146.600000
257.285828	147.160000
257.378723	146.840000
257.471619	146.360000
257.564545	146.180000
257.657440	146.060000
257.750336	146.120000
257.843262	146.120000
257.936157	147.180000
258.029053	147.460000
258.121979	147.280000
258.214874	146.760000
258.307800	146.560000
258.400696	145.860000
258.493622	145.880000
258.586517	145.200000
258.679443	145.900000
258.772339	145.700000
258.865265	145.780000
258.958160	145.280000
259.051086	146.560000
259.144012	146.160000
259.236938	146.860000
259.329834	146.820000
259.422791	146.880000
259.515717	145.920000
259.608612	145.440000
259.701538	145.260000
259.794464	144.700000
259.887390	144.800000
259.980316	144.780000
260.073212	144.700000
260.166138	144.060000
260.259064	144.740000
260.351990	145.340000
260.444916	145.400000
260.537842	146.200000
260.630768	147.080000
260.723694	146.680000
260.816620	146.280000
260.909546	146.320000
261.002472	145.760000
261.095398	145.220000
261.188354	145.420000
261.281281	145.160000
261.374207	145.300000
261.467133	145.840000
261.560089	145.960000
261.653015	145.560000
261.745972	146.320000
261.838867	146.340000
261.931824	146.700000
262.024780	146.160000
262.117706	146.580000
262.210663	146.400000
262.303589	146.300000
262.396515	145.700000
262.489471	146.660000
262.582397	146.600000
262.675354	146.220000
262.768280	146.140000
262.861237	146.220000
262.954163	146.140000
263.047119	146.120000
263.140045	145.960000
263.233002	146.220000
263.325958	145.980000
263.418884	145.340000
263.511841	145.520000
263.604797	145.660000
263.697723	145.560000
263.790680	145.700000
263.883636	146.300000
263.976593	145.960000
264.069550	145.840000
264.162476	145.480000
264.255463	145.540000
264.348419	145.360000
264.441376	145.620000
264.534332	145.540000
264.627289	145.940000
264.720245	146.200000
264.813202	145.600000
264.906158	145.760000
264.999115	146.300000
265.092072	146.220000
265.185028	146.540000
265.277985	146.860000
265.370941	146.460000
265.463898	146.000000
265.556854	145.560000
265.649811	144.660000
265.742798	144.920000
265.835754	145.080000
265.928711	145.600000
266.021667	146.040000
266.114655	146.380000
266.207611	146.540000
266.300568	146.220000
266.393585	145.520000
266.486511	145.680000
266.579498	144.880000
266.672485	144.540000
266.765442	144.440000
266.858429	145.300000
266.951385	144.740000
267.044342	145.260000
267.137329	145.260000
267.230316	145.680000
267.323273	145.100000
267.416260	145.920000
267.509216	145.500000
267.602203	145.660000
267.695160	145.960000
267.788147	145.620000
267.881134	144.840000
267.974091	145.620000
268.067078	145.420000
268.160065	145.240000
268.253052	145.520000
268.346008	145.640000
268.438995	145.260000
268.531982	145.400000
268.624969	145.000000
268.717987	145.300000
268.810944	145.340000
268.903961	145.480000
268.996948	145.100000
269.089905	145.760000
269.182892	145.700000
269.275879	146.060000
269.368866	145.180000
269.461853	145.760000
269.554871	145.340000
269.647858	145.320000
269.740845	145.260000
269.833832	146.140000
269.926819	145.520000
270.019806	145.900000
270.112793	145.360000
270.205811	145.320000
270.298798	145.240000
270.391785	146.220000
270.484772	145.740000
270.577789	145.940000
270.670776	145.800000
270.763763	145.740000
270.856750	145.500000
270.949768	145.100000
271.042786	145.220000
271.135773	145.120000
271.228790	145.700000
271.321808	145.180000
271.414795	145.300000
271.507782	145.160000
271.600800	144.900000
271.693817	144.660000
271.786804	145.140000
271.879822	145.160000
271.972809	145.180000
272.065826	145.740000
272.158844	145.300000
272.251831	145.320000
272.344849	145.480000
272.437866	145.020000
272.530853	144.660000
272.623871	144.860000
272.716888	144.160000
272.809906	144.580000
272.902893	144.840000
272.995911	144.560000
273.088928	144.460000
273.181946	144.640000
273.274963	143.840000
273.367981	143.980000
273.460999	144.600000
273.554047	144.900000
273.647003	145.440000
273.740051	146.140000
273.833069	146.560000
273.926086	146.520000
274.019135	146.420000
274.112152	146.120000
274.205170	145.940000
274.298187	145.840000
274.391205	145.120000
274.484222	144.720000
274.577240	144.780000
274.670258	144.740000
274.763306	144.680000
274.856323	145.420000
274.949341	145.660000
275.042358	146.040000
275.135406	145.720000
275.228424	145.740000
275.321442	145.540000
275.414490	145.440000
275.507507	145.560000
275.600525	146.080000
275.693573	145.740000
275.786591	145.560000
275.879669	145.660000
275.972656	145.460000
276.065735	145.300000
276.158752	145.800000
276.251801	146.580000
276.344818	146.880000
276.437866	146.700000
276.530884	146.560000
276.623932	145.860000
276.716980	145.520000
276.809998	145.340000
276.903046	145.340000
276.996094	145.980000
277.089111	146.740000
277.182159	147.260000
277.275208	147.060000
277.368256	147.180000
277.461304	146.920000
277.554321	146.200000
277.647369	145.820000
277.740417	145.860000
277.833466	145.460000
277.926514	145.240000
278.019562	146.160000
278.112610	145.360000
278.205688	145.420000
278.298706	145.800000
278.391785	145.620000
278.484833	145.000000
278.577881	145.100000
278.670929	145.560000
278.763977	145.580000
278.857025	146.180000
278.950073	146.460000
279.043121	146.640000
279.136169	146.320000
279.229248	145.920000
279.322296	145.620000
279.415344	145.420000
279.508392	145.580000
279.601440	145.380000
279.694519	145.420000
279.787567	145.260000
279.880615	145.140000
279.973694	144.980000
280.066742	144.900000
280.159790	145.200000
280.252869	145.360000
280.345917	145.380000
280.438995	145.200000
280.532074	145.400000
280.625122	145.420000
280.718201	146.020000
280.811279	146.180000
280.904327	146.380000
280.997406	146.500000
281.090454	146.340000
281.183533	145.640000
281.276581	145.660000
281.369659	145.440000
281.462738	145.420000
281.555786	145.600000
281.648865	145.500000
281.741943	145.020000
281.835022	145.680000
281.928070	145.540000
282.021149	144.720000
282.114227	144.740000
282.207306	145.140000
282.300385	145.120000
282.393433	145.160000
282.486511	145.800000
282.579590	146.220000
282.672668	146.460000
282.765747	145.900000
282.858856	145.440000
282.951904	145.540000
283.045013	145.220000
283.138062	145.320000
283.231171	145.740000
283.324249	146.640000
283.417328	146.740000
283.510406	146.520000
283.603485	146.340000
283.696564	146.140000
283.789642	145.760000
283.882751	145.400000
283.975830	146.260000
284.068909	145.960000
284.161987	146.420000
284.255066	145.880000
284.348175	146.320000
284.441254	145.580000
284.534332	145.940000
284.627441	145.520000
284.720520	145.640000
284.813599	145.300000
284.906708	145.640000
284.999786	145.000000
285.092896	144.620000
285.185974	145.640000
285.279053	145.240000
285.372192	145.080000
285.465240	145.960000
285.558380	146.420000
285.651459	145.960000
285.744568	146.900000
285.837677	146.760000
285.930756	146.440000
286.023865	146.520000
286.116943	146.240000
286.210052	146.000000
286.303162	146.160000
286.396240	146.100000
286.489349	145.720000
286.582458	146.000000
286.675568	146.180000
286.768646	146.180000
286.861755	146.500000
286.954865	147.220000
287.047974	146.820000
287.141083	146.420000
287.234161	146.000000
287.327271	145.640000
287.420380	145.660000
287.513519	145.380000
287.606598	145.200000
287.699738	145.580000
287.792816	145.560000
287.885956	145.240000
287.979034	145.580000
288.072174	145.700000
288.165283	145.320000
288.258392	145.520000
288.351501	144.980000
288.444611	145.200000
288.537720	145.760000
288.630859	146.060000
288.723969	146.080000
288.817078	146.660000
288.910187	146.340000
289.003296	145.740000
289.096436	145.320000
289.189545	144.780000
289.282654	144.160000
289.375763	144.600000
289.468903	145.060000
289.562012	145.320000
289.655121	145.780000
289.748260	146.160000
289.841400	146.260000
289.934509	145.840000
290.027649	146.180000
290.120728	145.980000
290.213898	145.860000
290.306976	145.600000
290.400146	145.580000
290.493256	144.980000
290.586395	145.340000
290.679535	145.740000
290.772644	145.440000
290.865784	144.780000
290.958893	144.960000
291.052032	144.620000
291.145172	144.440000
291.238281	144.280000
291.331421	144.760000
291.424561	145.240000
291.517670	145.080000
291.610809	145.320000
291.703949	145.680000
291.797089	145.840000
291.890228	145.240000
291.983337	145.360000
292.076477	144.880000
292.169617	145.160000
292.262756	145.460000
292.355927	145.540000
292.449036	145.420000
292.542206	145.980000
292.635315	145.700000
292.728485	145.800000
292.821625	145.680000
292.914764	146.660000
293.007904	146.500000
293.101044	146.840000
293.194183	146.480000
293.287323	146.840000
293.380463	146.180000
293.473602	145.760000
293.566742	145.640000
293.659882	146.180000
293.753021	146.200000
293.846191	146.380000
293.939331	146.420000
294.032471	146.140000
294.125610	145.660000
294.218781	146.200000
294.311920	146.380000
294.405060	146.540000
294.498230	146.640000
294.591370	146.500000
294.684540	145.580000
294.777679	144.760000
294.870850	145.040000
294.963959	144.960000
295.057159	145.020000
295.150299	145.400000
295.243469	145.720000
295.336609	145.000000
295.429779	145.180000
295.522919	145.680000
295.616089	145.640000
295.709229	146.080000
295.802399	146.380000
295.895569	146.140000
295.988708	145.660000
296.081879	145.940000
296.175018	145.180000
296.268188	145.120000
296.361359	145.460000
296.454529	145.800000
296.547668	145.380000
296.640839	145.880000
296.734009	145.780000
296.827179	145.840000
296.920319	145.820000
297.013519	145.680000
297.106659	145.820000
297.199860	146.120000
297.292999	145.920000
297.386200	145.640000
297.479309	145.860000
297.572510	145.340000
297.665680	145.020000
297.758850	145.020000
297.852020	145.100000
297.945190	145.040000
298.038361	144.940000
298.131531	145.920000
298.224701	145.760000
298.317871	145.360000
298.411072	144.940000
298.504242	145.020000
298.597412	144.140000
298.690582	144.360000
298.783752	144.420000
298.876923	145.040000
298.970093	145.300000
299.063293	145.720000
299.156464	146.180000
299.249634	146.360000
299.342834	146.480000
299.436005	146.800000
299.529205	146.540000
299.622345	146.120000
299.715576	145.620000
299.808716	145.160000
299.901917	144.840000
299.995117	145.220000
300.088287	145.400000
300.181488	145.700000
300.274658	145.740000
300.367828	145.700000
300.461029	145.460000
300.554199	145.400000
300.647400	145.740000
300.740601	146.360000
300.833771	146.240000
300.926971	146.320000
301.020142	146.040000
301.113342	145.800000
301.206512	145.560000
301.299713	145.940000
301.392914	146.100000
301.486084	146.500000
301.579285	146.280000
301.672516	146.520000
301.765686	146.080000
301.858887	145.500000
301.952057	145.240000
302.045288	145.440000
302.138458	144.900000
302.231659	145.120000
302.324860	145.280000
302.418060	145.100000
302.511261	145.280000
302.604462	145.760000
302.697662	145.620000
302.790863	145.780000
302.884064	145.560000
302.977264	145.540000
303.070465	145.660000
303.163666	146.200000
303.256866	146.200000
303.350067	146.580000
303.443268	146.640000
303.536469	146.240000
303.629669	145.740000
303.722870	146.040000
303.816071	145.820000
303.909271	145.860000
304.002472	145.460000
304.095673	145.180000
304.188934	144.520000
304.282104	145.400000
304.375336	145.120000
304.468506	145.380000
304.561768	145.620000
304.654968	146.140000
304.748169	145.000000
304.841370	144.820000
304.934601	145.140000
305.027802	144.880000
305.121002	144.540000
305.214233	145.000000
305.307434	145.240000
305.400665	145.600000
305.493866	145.360000
305.587097	145.840000
305.680298	145.840000
305.773499	146.320000
305.866730	145.880000
305.959930	146.520000
306.053162	146.460000
306.146393	146.060000
306.239594	145.240000
306.332825	145.060000
306.426025	145.300000
306.519287	144.400000
306.612488	144.940000
306.705719	145.020000
306.798920	145.300000
306.892181	144.520000
306.985352	144.660000
307.078613	143.980000
307.171844	144.380000
307.265045	143.760000
307.358276	143.700000
307.451508	144.540000
307.544739	145.140000
307.637970	144.860000
307.731201	144.980000
307.824402	145.980000
307.917633	145.980000
308.010864	146.260000
308.104095	146.700000
308.197327	146.940000
308.290558	146.780000
308.383789	146.480000
308.477020	145.940000
308.570251	145.360000
308.663483	145.260000
308.756714	144.980000
308.849976	144.880000
308.943176	145.820000
309.036438	145.660000
309.129639	145.480000
309.222900	145.360000
309.316101	145.340000
309.409393	144.260000
309.502625	144.320000
309.595856	144.760000
309.689087	144.720000
309.782318	144.620000
309.875580	144.880000
309.968811	144.980000
310.062042	144.520000
310.155273	144.580000
310.248535	144.940000
310.341766	144.640000
310.434998	144.560000
310.528259	144.380000
310.621490	144.900000
310.714722	144.160000
310.807983	144.600000
310.901215	144.920000
310.994476	145.340000
311.087708	144.680000
311.181000	145.180000
311.274200	144.720000
311.367462	144.820000
311.460693	144.620000
311.553986	145.580000
311.647186	145.900000
311.740479	146.780000
311.833710	146.420000
311.926971	146.320000
312.020203	145.200000
312.113464	144.820000
312.206726	143.900000
312.299957	144.440000
312.393219	145.200000
312.486481	145.520000
312.579712	145.460000
312.672974	145.820000
312.766235	145.440000
312.859497	145.240000
312.952759	145.480000
313.045990	146.100000
313.139252	145.440000
313.232513	145.800000
313.325775	145.500000
313.419037	145.000000
313.512299	144.160000
313.605530	144.880000
313.698822	145.240000
313.792053	145.600000
313.885345	145.400000
313.978577	145.840000
314.071869	145.440000
314.165131	145.100000
314.258392	145.140000
314.351654	145.540000
314.444916	145.040000
314.538177	145.640000
314.631439	145.880000
314.724701	145.760000
314.817993	145.880000
314.911255	146.220000
315.004517	145.580000
315.097778	145.140000
315.191040	145.260000
315.284302	145.260000
315.377594	145.120000
315.470856	145.260000
315.564117	144.660000
315.657379	144.060000
315.750671	143.680000
315.843933	143.800000
315.937195	143.580000
316.030518	143.520000
316.123749	143.560000
316.217041	144.600000
316.310303	144.760000
316.403595	145.220000
316.496857	146.000000
316.590149	146.520000
316.683411	145.500000
316.776703	145.320000
316.869965	145.300000
316.963257	144.700000
317.056519	144.340000
317.149811	144.660000
317.243073	144.860000
317.336365	144.820000
317.429626	145.220000
317.522919	145.560000
317.616180	145.480000
317.709473	145.200000
317.802765	145.080000
317.896027	145.160000
317.989319	145.380000
318.082611	145.580000
318.175873	145.440000
318.269165	145.700000
318.362488	145.620000
318.455750	145.020000
318.549042	145.260000
318.642303	146.040000
318.735626	145.800000
318.828888	145.860000
318.922211	145.640000
319.015472	145.800000
319.108765	145.040000
319.202057	144.520000
319.295349	144.740000
319.388641	145.060000
319.481934	144.560000
319.575226	144.520000
319.668518	145.100000
319.761810	145.020000
319.855103	145.100000
319.948395	145.140000
320.041687	145.620000
320.134979	145.600000
320.228271	145.240000
320.321564	145.260000
320.414856	145.340000
320.508148	144.660000
320.601440	144.580000
320.694763	144.640000
320.788025	145.120000
320.881348	144.980000
320.974640	145.220000
321.067963	144.640000
321.161224	144.580000
321.254547	143.800000
321.347839	144.400000
321.441162	144.160000
321.534454	144.760000
321.627747	144.820000
321.721069	145.740000
321.814362	145.580000
321.907654	145.820000
322.000946	145.580000
322.094269	146.180000
322.187561	145.520000
322.280884	145.700000
322.374176	145.900000
322.467468	146.560000
322.560791	146.180000
322.654083	146.340000
322.747406	146.340000
322.840698	146.680000
322.934021	146.960000
323.027344	147.220000
323.120636	147.160000
323.213959	147.000000
323.307251	146.580000
323.400574	145.820000
323.493866	145.140000
323.587219	145.020000
323.680511	145.220000
323.773834	145.120000
323.867157	145.160000
323.960449	145.680000
324.053772	145.640000
324.147095	145.260000
324.240387	145.620000
324.333710	145.760000
324.427032	145.860000
324.520355	145.920000
324.613647	145.740000
324.706970	145.880000
324.800293	145.780000
324.893616	145.980000
324.986938	146.340000
325.080231	145.940000
325.173553	145.880000
325.266876	146.400000
325.360199	145.940000
325.453522	145.200000
325.546875	145.220000
325.640167	145.340000
325.733521	145.400000
325.826813	145.780000
325.920166	145.960000
326.013489	146.240000
326.106812	145.300000
326.200134	144.520000
326.293457	143.880000
326.386780	144.160000
326.480103	144.160000
326.573425	144.440000
326.666748	144.860000
326.760071	145.500000
326.853424	145.480000
326.946747	145.600000
327.040070	146.180000
327.133392	145.840000
327.226715	145.020000
327.320068	144.700000
327.413391	145.040000
327.506714	144.500000
327.600037	144.580000
327.693390	145.240000
327.786713	145.420000
327.880066	145.300000
327.973358	145.720000
328.066742	146.280000
328.160034	146.420000
328.253418	146.620000
328.346710	146.260000
328.440063	145.900000
328.533417	145.460000
328.626740	145.500000
328.720093	145.480000
328.813416	145.500000
328.906769	145.560000
329.000092	145.560000
329.093445	145.160000
329.186768	144.780000
329.280121	145.180000
329.373444	145.580000
329.466797	145.680000
329.560120	145.900000
329.653473	146.180000
329.746796	145.700000
329.840149	145.360000
329.933502	145.360000
330.026825	145.300000
330.120178	145.180000
330.213562	145.260000
330.306854	145.080000
330.400238	144.760000
330.493561	144.480000
330.586945	145.120000
330.680237	145.300000
330.773621	145.540000
330.866974	145.800000
330.960327	145.860000
331.053680	145.440000
331.147003	145.540000
331.240356	145.860000
331.333710	145.820000
331.427063	145.700000
331.520416	145.380000
331.613770	145.040000
331.707123	144.940000
331.800476	145.280000
331.893829	146.220000
331.987152	146.500000
332.080505	146.560000
332.173859	146.400000
332.267212	145.580000
332.360565	144.960000
332.453918	144.820000
332.547333	144.840000
332.640656	145.020000
332.734039	145.540000
332.827362	145.200000
332.920746	145.460000
333.014069	145.980000
333.107452	146.060000
333.200806	145.720000
333.294159	145.880000
333.387543	145.300000
333.480896	144.360000
333.574249	144.060000
333.667603	144.100000
333.760956	144.220000
333.854340	144.400000
333.947693	144.840000
334.041046	144.760000
334.134430	145.380000
334.227783	145.200000
334.321136	145.140000
334.414520	144.880000
334.507874	145.000000
334.601227	144.700000
334.694611	144.800000
334.787964	144.940000
334.881348	145.200000
334.974701	145.120000
335.068085	144.760000
335.161438	145.120000
335.254822	145.320000
335.348175	145.060000
335.441559	144.860000
335.534943	145.560000
335.628296	145.180000
335.721680	145.040000
335.815033	145.560000
335.908417	145.960000
336.001770	145.840000
336.095154	145.620000
336.188538	145.100000
336.281891	144.400000
336.375275	143.960000
336.468658	143.340000
336.562012	143.420000
336.655396	144.180000
336.748779	144.660000
336.842133	144.720000
336.935516	145.320000
337.028900	144.940000
337.122284	144.580000
337.215637	144.860000
337.309021	144.960000
337.402435	144.760000
337.495789	145.060000
337.589203	145.120000
337.682526	144.520000
337.775940	144.780000
337.869324	144.780000
337.962708	144.640000
338.056091	145.080000
338.149475	145.080000
338.242859	145.180000
338.336243	144.820000
338.429626	145.340000
338.523010	144.900000
338.616394	144.980000
338.709778	145.140000
338.803162	145.660000
338.896545	145.640000
338.989929	145.600000
339.083313	145.860000
339.176697	145.460000
339.270081	145.180000
339.363464	145.340000
339.456848	145.620000
339.550232	145.120000
339.643616	144.700000
339.737030	144.860000
339.830383	144.500000
339.923828	144.520000
340.017181	144.940000
340.110596	145.340000
340.203949	145.220000
340.297363	144.820000
340.390778	144.820000
340.484161	144.500000
340.577545	144.560000
340.670959	144.660000
340.764343	145.040000
340.857727	144.800000
340.951111	144.720000
341.044525	145.040000
341.137909	144.760000
341.231293	144.580000
341.324707	144.300000
341.418091	145.000000
341.511505	144.720000
341.604889	144.960000
341.698303	145.380000
341.791687	145.740000
341.885071	145.000000
341.978485	144.560000
342.071899	144.860000
342.165283	145.280000
342.258698	145.420000
342.352081	146.180000
342.445496	147.020000
342.538879	146.780000
342.632324	145.980000
342.725708	145.960000
342.819122	145.500000
342.912506	145.120000
343.005920	145.000000
343.099335	146.100000
343.192719	145.940000
343.286133	145.800000
343.379547	146.100000
343.472931	146.220000
343.566345	145.280000
343.659760	145.820000
343.753143	145.840000
343.846558	145.260000
343.939972	145.340000
344.033386	145.900000
344.126770	145.320000
344.220184	145.700000
344.313599	146.280000
344.407043	146.340000
344.500427	145.260000
344.593872	145.920000
344.687225	145.320000
344.780670	144.920000
344.874054	144.560000
344.967499	145.440000
345.060913	145.060000
345.154327	145.340000
345.247742	144.980000
345.341156	145.240000
345.434570	144.740000
345.527985	144.640000
345.621399	144.900000
345.714813	145.160000
345.808228	145.160000
345.901642	145.180000
345.995056	144.940000
346.088470	145.020000
346.181885	145.420000
346.275299	145.140000
346.368713	145.220000
346.462128	145.000000
346.555573	144.860000
346.648987	144.560000
346.742401	144.300000
346.835815	144.380000
346.929260	144.320000
347.022644	144.320000
347.116119	144.680000
347.209503	145.020000
347.302948	146.120000
347.396362	146.840000
347.489807	146.820000
347.583221	147.000000
347.676636	146.960000
347.770050	145.760000
347.863495	145.380000
347.956909	145.340000
348.050323	145.040000
348.143768	145.040000
348.237183	144.880000
348.330597	145.420000
348.424042	145.840000
348.517456	145.920000
348.610901	146.080000
348.704315	146.180000
348.797760	145.120000
348.891174	144.300000
348.984619	143.700000
349.078033	143.920000
349.171448	144.620000
349.264923	144.920000
349.358337	145.140000
349.451782	145.360000
349.545197	144.580000
349.638641	143.840000
349.732086	143.640000
349.825500	144.060000
349.918945	143.980000
350.012390	144.740000
350.105804	145.280000
350.199249	145.480000
350.292664	145.600000
350.386108	145.880000
350.479553	146.200000
350.572968	145.980000
350.666412	146.300000
350.759857	146.040000
350.853302	146.460000
350.946716	145.900000
351.040161	146.000000
351.133606	146.060000
351.227081	145.820000
351.320465	146.160000
351.413940	146.320000
351.507355	146.500000
351.600830	146.700000
351.694244	146.760000
351.787720	146.240000
351.881104	146.140000
351.974579	145.700000
352.067993	146.020000
352.161469	146.000000
352.254883	145.420000
352.348358	145.400000
352.441803	145.280000
352.535248	144.720000
352.628693	145.340000
352.722137	145.660000
352.815582	145.580000
352.909027	145.960000
353.002472	145.520000
353.095917	145.400000
353.189362	145.700000
353.282806	145.960000
353.376251	145.800000
353.469696	145.740000
353.563141	146.020000
353.656586	145.640000
353.750061	145.160000
353.843475	145.200000
353.936981	145.820000
354.030396	145.400000
354.123871	145.580000
354.217285	146.360000
354.310760	146.420000
354.404175	146.480000
354.497681	145.900000
354.591095	145.740000
354.684570	144.960000
354.777985	144.620000
354.871490	144.080000
354.964935	144.800000
355.058380	144.900000
355.151855	144.840000
355.245300	145.500000
355.338745	146.020000
355.432220	145.760000
355.525665	145.420000
355.619110	145.820000
355.712585	145.440000
355.806030	145.280000
355.899475	144.820000
355.992950	145.140000
356.086426	145.700000
356.179871	145.820000
356.273346	145.820000
356.366791	146.340000
356.460266	146.580000
356.553711	146.000000
356.647186	146.080000
356.740631	145.540000
356.834106	145.260000
356.927551	144.900000
357.021027	144.700000
357.114471	144.700000
357.207947	145.080000
357.301422	145.220000
357.394867	145.580000
357.488342	145.980000
357.581818	145.840000
357.675262	146.240000
357.768738	145.900000
357.862213	144.980000
357.955658	144.720000
358.049133	144.760000
358.142609	144.940000
358.236053	145.040000
358.329529	145.360000
358.423035	145.640000
358.516449	145.340000
358.609955	145.440000
358.703400	146.060000
358.796906	146.560000
358.890350	145.720000
358.983826	146.180000
359.077271	145.560000
359.170776	145.260000
359.264221	144.980000
359.357727	145.800000
359.451172	145.880000
359.544647	145.760000
359.638123	145.620000
359.731598	145.920000
359.825073	146.120000
359.918549	145.920000
360.012024	146.240000
360.105499	145.900000
360.198975	145.880000
360.292450	145.560000
360.385925	145.360000
360.479401	144.980000
360.572876	145.500000
360.666351	145.640000
360.759857	145.460000
360.853302	145.240000
360.946808	145.040000
361.040253	144.820000
361.133759	144.380000
361.227203	144.620000
361.320709	144.660000
361.414154	145.240000
361.507660	145.640000
361.601105	146.080000
361.694641	146.780000
361.788086	146.820000
361.881592	146.880000
361.975067	146.620000
362.068542	146.900000
362.162018	146.400000
362.255524	146.160000
362.348999	145.840000
362.442474	145.960000
362.535950	145.380000
362.629456	145.000000
362.722931	145.120000
362.816406	145.620000
362.909882	145.840000
363.003387	145.600000
363.096863	146.120000
363.190338	146.260000
363.283875	145.800000
363.377319	145.760000
363.470825	146.220000
363.564301	145.620000
363.657806	146.140000
363.751282	146.000000
363.844788	146.540000
363.938232	146.020000
364.031769	146.660000
364.125214	146.520000
364.218750	147.260000
364.312225	145.880000
364.405731	146.000000
364.499207	145.360000
364.592712	144.900000
364.686188	144.560000
364.779694	145.120000
364.873169	145.080000
364.966675	145.360000
365.060150	145.420000
365.153656	145.540000
365.247131	145.780000
365.340637	146.100000
365.434143	146.140000
365.527618	146.000000
365.621155	145.380000
365.714600	145.120000
365.808136	145.040000
365.901611	144.160000
365.995117	144.240000
366.088593	144.560000
366.182129	144.400000
366.275604	144.580000
366.369110	145.220000
366.462585	145.200000
366.556122	145.840000
366.649567	146.060000
366.743103	146.100000
366.836609	145.840000
366.930115	146.580000
367.023590	146.340000
367.117096	146.060000
367.210602	145.980000
367.304108	146.820000
367.397614	146.920000
367.491119	147.000000
367.584595	147.360000
367.678101	147.780000
367.771606	147.240000
367.865112	146.600000
367.958649	145.880000
368.052124	145.800000
368.145660	145.180000
368.239136	145.760000
368.332672	145.940000
368.426147	146.240000
368.519684	145.920000
368.613159	146.320000
368.706696	145.780000
368.800171	145.680000
368.893707	145.740000
368.987183	145.840000
369.080719	145.620000
369.174225	145.560000
369.267731	145.960000
369.361237	145.800000
369.454742	145.820000
369.548248	146.100000
369.641754	145.620000
369.735260	144.960000
369.828766	144.340000
369.922272	145.260000
370.015808	144.680000
370.109314	144.940000
370.202820	145.080000
370.296356	146.360000
370.389832	145.540000
370.483368	145.520000
370.576874	145.580000
370.670410	145.940000
370.763885	144.600000
370.857422	144.720000
370.950928	144.780000
371.044464	145.440000
371.137939	145.300000
371.231476	146.200000
371.324982	146.480000
371.418518	146.660000
371.512024	146.320000
371.605560	146.140000
371.699066	146.220000
371.792572	145.460000
371.886108	145.860000
371.979614	145.480000
372.073120	145.880000
372.166656	145.560000
372.260162	146.320000
372.353668	145.920000
372.447205	146.000000
372.540710	146.120000
372.634277	146.080000
372.727753	145.760000
372.821320	145.760000
372.914795	145.800000
373.008362	145.160000
373.101837	145.360000
373.195404	145.300000
373.288879	145.360000
373.382446	146.080000
373.475922	146.320000
373.569489	146.980000
373.662964	147.280000
373.756531	147.260000
373.850037	146.980000
373.943573	146.860000
374.037109	145.660000
374.130615	145.800000
374.224152	145.960000
374.317657	145.440000
374.411194	146.280000
374.504730	146.580000
374.598236	146.180000
374.691772	145.740000
374.785309	145.900000
374.878815	144.800000
374.972351	145.120000
375.065887	145.160000
375.159454	146.140000
375.252930	145.840000
375.346497	146.180000
375.440002	146.700000
375.533569	146.640000
375.627045	145.640000
375.720612	145.960000
375.814117	146.040000
375.907684	145.340000
376.001160	144.840000
376.094727	145.040000
376.188232	145.660000
376.281799	145.920000
376.375336	145.660000
376.468872	146.560000
376.562408	146.540000
376.655914	146.160000
376.749451	145.820000
376.842987	146.180000
376.936523	145.760000
377.030060	145.940000
377.123596	145.840000
377.217133	145.280000
377.310669	145.080000
377.404205	145.360000
377.497772	145.580000
377.591278	145.460000
377.684845	146.580000
377.778351	146.800000
377.871918	146.520000
377.965424	145.540000
378.058990	145.380000
378.152496	144.960000
378.246063	145.140000
378.339569	145.400000
378.433136	146.060000
378.526642	146.220000
378.620209	146.020000
378.713745	145.740000
378.807312	145.920000
378.900848	145.580000
378.994385	145.920000
379.087921	145.500000
379.181458	145.880000
379.274994	145.240000
379.368530	145.340000
379.462097	145.100000
379.555634	145.940000
379.649170	145.280000
379.742706	145.480000
379.836273	145.600000
379.929810	145.540000
380.023376	145.000000
380.116882	145.060000
380.210449	145.000000
380.303986	144.540000
380.397552	144.140000
380.491058	144.100000
380.584656	143.940000
380.678162	144.260000
380.771729	144.620000
380.865265	145.740000
380.958832	146.100000
381.052368	146.420000
381.145935	146.540000
381.239471	146.860000
381.333008	146.160000
381.426575	145.940000
381.520111	146.240000
381.613647	146.580000
381.707214	146.180000
381.800751	145.760000
381.894318	145.920000
381.987854	145.080000
382.081421	144.660000
382.174988	144.800000
382.268524	145.020000
382.362091	144.820000
382.455627	146.000000
382.549194	145.760000
382.642731	145.400000
382.736298	145.400000
382.829834	145.140000
382.923401	145.440000
383.016937	145.720000
383.110504	146.380000
383.204041	146.540000
383.297607	147.180000
383.391174	145.800000
383.484741	146.160000
383.578278	145.360000
383.671844	144.780000
383.765411	144.140000
383.858948	145.040000
383.952515	144.580000
384.046051	145.340000
384.139618	145.760000
384.233185	146.080000
384.326721	145.980000
384.420288	146.580000
384.513855	146.240000
384.607422	146.680000
384.700989	147.040000
384.794525	146.420000
384.888123	146.020000
384.981659	146.180000
385.075226	145.540000
385.168762	144.800000
385.262360	145.180000
385.355896	144.160000
385.449463	143.960000
385.542999	143.980000
385.636597	144.860000
385.730164	144.900000
385.823730	145.060000
385.917267	144.800000
386.010834	145.100000
386.104401	144.660000
386.197968	145.180000
386.291534	145.760000
386.385101	146.040000
386.478668	146.340000
386.572235	146.300000
386.665802	145.460000
386.759338	145.320000
386.852905	145.260000
386.946472	145.020000
387.040070	145.140000
387.133606	145.380000
387.227203	145.200000
387.320740	145.560000
387.414337	145.260000
387.507874	145.260000
387.601471	145.260000
387.695007	145.240000
387.788605	144.900000
387.882141	145.360000
387.975739	145.420000
388.069275	145.080000
388.162872	145.220000
388.256439	145.140000
388.350037	144.780000
388.443604	144.820000
388.537170	145.260000
388.630737	145.620000
388.724304	145.820000
388.817871	145.640000
388.911438	145.500000
389.005005	145.420000
389.098602	145.820000
389.192169	145.560000
389.285736	146.120000
389.379333	146.140000
389.472870	145.660000
389.566467	145.200000
389.660034	145.280000
389.753632	144.260000
389.847168	144.740000
389.940765	145.260000
390.034332	145.280000
390.127930	144.960000
390.221466	145.340000
390.315063	144.720000
390.408630	143.800000
390.502228	143.080000
390.595795	143.460000
390.689362	143.760000
390.782959	143.920000
390.876526	144.820000
390.970093	145.340000
391.063690	145.920000
391.157257	145.920000
391.250824	146.120000
391.344421	145.960000
391.437988	146.140000
391.531555	145.900000
391.625153	146.020000
391.718750	146.040000
391.812317	145.980000
391.905914	145.660000
391.999481	145.800000
392.093079	145.600000
392.186615	145.960000
392.280243	145.900000
392.373779	145.860000
392.467407	146.160000
392.560944	146.500000
392.654572	145.860000
392.748108	146.080000
392.841736	146.240000
392.935303	145.680000
393.028900	145.240000
393.122467	145.320000
393.216064	144.740000
393.309631	144.520000
393.403229	144.040000
393.496796	144.140000
393.590393	143.500000
393.683990	143.980000
393.777557	144.440000
393.871155	145.000000
393.964722	145.700000
394.058350	146.160000
394.151917	146.300000
394.245514	145.900000
394.339081	145.900000
394.432678	145.760000
394.526245	145.880000
394.619873	145.260000
394.713409	145.660000
394.807037	145.480000
394.900604	145.420000
394.994202	145.340000
395.087769	145.800000
395.181396	145.420000
395.274994	146.240000
395.368561	145.500000
395.462158	145.720000
395.555756	145.440000
395.649353	145.760000
395.742920	145.120000
395.836517	146.000000
395.930115	145.480000
396.023712	146.100000
396.117279	146.040000
396.210876	145.760000
396.304474	145.480000
396.398071	145.840000
396.491669	145.880000
396.585266	145.740000
396.678833	145.580000
396.772461	145.600000
396.866028	145.760000
396.959656	145.960000
397.053223	146.340000
397.146851	146.580000
397.240417	146.860000
397.334015	147.780000
397.427582	148.200000
397.521210	149.540000
397.614807	151.140000
397.708405	153.220000
397.802002	155.500000
397.895599	159.020000
397.989197	163.200000
398.082794	168.780000
398.176392	175.700000
398.269989	183.520000
398.363586	192.920000
398.457184	203.900000
398.550781	216.420000
398.644379	228.100000
398.737976	241.040000
398.831573	253.940000
398.925201	267.060000
399.018768	280.080000
399.112396	295.380000
399.205963	312.600000
399.299591	331.480000
399.393158	350.980000
399.486786	373.140000
399.580353	395.180000
399.673981	415.680000
399.767578	435.780000
399.861206	455.180000
399.954773	470.600000
400.048401	481.120000
400.141998	486.400000
400.235596	487.100000
400.329193	483.120000
400.422791	476.380000
400.516418	468.600000
400.610016	461.600000
400.703613	453.160000
400.797211	441.800000
400.890808	429.220000
400.984436	414.480000
401.078033	395.920000
401.171631	375.360000
401.265259	354.460000
401.358826	332.480000
401.452484	309.700000
401.546051	288.240000
401.639679	266.700000
401.733246	247.060000
401.826904	227.540000
401.920471	210.600000
402.014099	195.920000
402.107697	184.480000
402.201324	174.580000
402.294891	167.540000
402.388550	162.200000
402.482147	158.060000
402.575745	154.220000
402.669373	151.280000
402.762970	149.220000
402.856567	148.160000
402.950195	147.560000
403.043793	147.040000
403.137390	147.760000
403.231018	147.060000
403.324615	147.440000
403.418243	146.580000
403.511841	146.840000
403.605469	146.060000
403.699066	146.600000
403.792694	146.040000
403.886292	146.480000
403.979919	146.340000
404.073517	146.200000
404.167145	146.500000
404.260712	146.540000
404.354370	146.080000
404.447937	146.120000
404.541595	146.380000
404.635162	146.360000
404.728821	146.500000
404.822418	146.520000
404.916046	146.200000
405.009644	146.440000
405.103271	146.360000
405.196899	146.160000
405.290497	146.300000
405.384125	146.940000
405.477722	146.420000
405.571350	145.800000
405.664948	146.140000
405.758575	145.740000
405.852203	144.920000
405.945801	144.820000
406.039429	145.120000
406.133057	144.300000
406.226654	144.540000
406.320312	144.540000
406.413879	144.720000
406.507538	145.200000
406.601135	145.180000
406.694763	145.540000
406.788361	145.400000
406.882019	144.980000
406.975586	144.980000
407.069244	145.840000
407.162872	145.680000
407.256470	145.860000
407.350098	146.100000
407.443726	145.500000
407.537323	144.920000
407.630951	145.240000
407.724579	145.000000
407.818207	145.480000
407.911804	145.520000
408.005432	145.640000
408.099060	145.760000
408.192688	146.360000
408.286285	145.900000
408.379913	145.780000
408.473572	145.800000
408.567169	145.100000
408.660828	144.960000
408.754395	144.700000
408.848053	144.480000
408.941650	144.580000
409.035309	144.480000
409.128906	144.340000
409.222565	144.800000
409.316132	145.340000
409.409790	145.220000
409.503387	145.520000
409.597046	145.740000
409.690674	145.560000
409.784302	145.560000
409.877930	145.100000
409.971558	145.160000
410.065186	144.940000
410.158783	144.860000
410.252411	144.560000
410.346039	145.040000
410.439667	145.220000
410.533295	145.720000
410.626923	146.020000
410.720551	145.700000
410.814209	146.040000
410.907806	145.980000
411.001465	145.140000
411.095062	145.160000
411.188721	145.620000
411.282318	145.140000
411.375977	144.680000
411.469574	144.900000
411.563232	144.900000
411.656830	144.840000
411.750488	144.700000
411.844086	144.520000
411.937744	145.060000
412.031372	144.720000
412.125000	144.900000
412.218628	144.920000
412.312256	145.760000
412.405884	145.900000
412.499512	146.000000
412.593170	146.140000
412.686798	146.380000
412.780426	145.780000
412.874054	145.700000
412.967682	145.740000
413.061310	146.060000
413.154968	146.020000
413.248566	146.200000
413.342224	145.840000
413.435852	145.700000
413.529510	145.220000
413.623108	144.680000
413.716766	144.520000
413.810364	145.060000
413.904022	145.040000
413.997650	144.520000
414.091309	145.620000
414.184906	145.600000
414.278564	144.900000
414.372192	145.200000
414.465851	145.900000
414.559479	145.200000
414.653107	146.420000
414.746735	146.440000
414.840393	146.180000
414.934021	146.300000
415.027649	146.200000
415.121277	145.540000
415.214935	145.980000
415.308563	146.160000
415.402191	145.300000
415.495850	145.500000
415.589478	145.100000
415.683136	144.860000
415.776733	144.780000
415.870422	145.420000
415.964020	144.600000
416.057678	144.720000
416.151306	144.520000
416.244965	144.580000
416.338562	144.440000
416.432251	145.700000
416.525848	146.220000
416.619507	146.620000
416.713165	146.720000
416.806793	146.580000
416.900421	146.420000
416.994080	145.700000
417.087708	145.460000
417.181366	145.100000
417.274994	145.320000
417.368622	145.380000
417.462280	146.040000
417.555908	146.220000
417.649567	146.380000
417.743195	145.980000
417.836853	145.940000
417.930481	145.700000
418.024170	145.720000
418.117767	146.060000
418.211426	146.800000
418.305054	147.040000
418.398712	146.580000
418.492340	146.400000
418.585999	146.620000
418.679626	146.460000
418.773285	146.000000
418.866913	146.700000
418.960571	146.920000
419.054230	146.740000
419.147858	146.920000
419.241516	147.020000
419.335144	146.440000
419.428802	146.540000
419.522461	146.080000
419.616089	145.520000
419.709747	145.980000
419.803375	146.580000
419.897034	146.060000
419.990662	146.260000
420.084320	146.680000
420.177979	146.540000
420.271606	146.340000
420.365295	147.120000
420.458893	147.280000
420.552582	147.260000
420.646210	146.980000
420.739868	146.660000
420.833496	146.180000
420.927155	145.660000
421.020782	145.340000
421.114471	144.880000
421.208069	144.960000
421.301758	145.300000
421.395386	145.760000
421.489044	145.800000
421.582703	146.160000
421.676361	146.720000
421.769989	146.120000
421.863647	146.240000
421.957306	146.360000
422.050934	146.280000
422.144592	145.800000
422.238251	145.640000
422.331909	145.460000
422.425537	145.240000
422.519196	145.460000
422.612854	144.800000
422.706543	144.720000
422.800140	144.960000
422.893829	144.700000
422.987457	144.240000
423.081146	144.640000
423.174744	145.480000
423.268433	144.760000
423.362061	144.800000
423.455750	144.840000
423.549347	145.140000
423.643036	144.400000
423.736664	145.200000
423.830353	145.440000
423.924011	146.000000
424.017639	145.280000
424.111298	145.200000
424.204956	144.640000
424.298615	144.820000
424.392273	144.280000
424.485931	144.980000
424.579559	145.200000
424.673218	145.240000
424.766876	145.020000
424.860535	144.980000
424.954193	144.640000
425.047882	145.220000
425.141510	145.480000
425.235199	145.560000
425.328796	145.400000
425.422485	145.080000
425.516113	144.180000
425.609802	144.060000
425.703430	143.940000
425.797119	143.940000
425.890747	144.380000
425.984436	144.840000
426.078064	144.820000
426.171753	145.040000
426.265411	145.200000
426.359070	145.160000
426.452728	145.200000
426.546356	145.020000
426.640015	144.800000
426.733673	144.700000
426.827332	144.540000
426.920990	145.000000
427.014648	144.740000
427.108307	144.840000
427.201965	145.400000
427.295624	145.600000
427.389282	144.720000
427.482941	145.420000
427.576630	145.520000
427.670258	144.940000
427.763947	144.840000
427.857574	145.160000
427.951263	144.840000
428.044922	144.600000
428.138611	144.760000
428.232239	145.300000
428.325928	145.640000
428.419556	146.480000
428.513245	146.260000
428.606903	146.500000
428.700562	145.480000
428.794220	144.640000
428.887878	143.740000
428.981537	144.360000
429.075195	144.200000
429.168854	144.960000
429.262512	145.500000
429.356201	145.660000
429.449860	145.360000
429.543518	145.420000
429.637177	145.380000
429.730835	145.060000
429.824493	144.880000
429.918182	145.120000
430.011810	144.640000
430.105530	144.080000
430.199158	144.520000
430.292847	144.400000
430.386475	144.220000
430.480164	144.160000
430.573792	144.140000
430.667511	143.920000
430.761139	144.080000
430.854828	144.440000
430.948456	144.900000
431.042145	145.680000
431.135834	145.540000
431.229492	145.780000
431.323151	145.820000
431.416809	145.920000
431.510468	145.580000
431.604156	145.660000
431.697815	145.540000
431.791473	144.940000
431.885132	144.600000
431.978821	144.940000
432.072479	145.180000
432.166138	145.540000
432.259827	145.460000
432.353485	145.720000
432.447174	145.620000
432.540802	145.280000
432.634491	145.220000
432.728149	145.540000
432.821838	146.060000
432.915466	145.640000
433.009186	145.880000
433.102814	145.420000
433.196503	145.240000
433.290131	144.920000
433.383850	145.260000
433.477509	145.340000
433.571167	146.360000
433.664856	146.720000
433.758514	147.240000
433.852173	147.140000
433.945862	147.000000
434.039520	146.600000
434.133179	146.280000
434.226868	145.500000
434.320526	145.180000
434.414185	145.780000
434.507874	145.140000
434.601562	145.300000
434.695221	145.220000
434.788910	145.620000
434.882538	145.300000
434.976257	145.080000
435.069885	145.020000
435.163574	145.040000
435.257233	144.500000
435.350922	144.400000
435.444580	144.480000
435.538269	144.280000
435.631897	144.860000
435.725616	146.080000
435.819275	146.540000
435.912964	147.260000
436.006622	148.020000
436.100311	147.480000
436.193970	146.200000
436.287628	145.680000
436.381317	145.140000
436.474976	144.300000
436.568665	144.100000
436.662323	144.420000
436.756012	144.200000
436.849670	144.080000
436.943390	144.260000
437.037018	144.480000
437.130737	144.460000
437.224365	144.500000
437.318085	144.660000
437.411713	144.960000
437.505432	145.780000
437.599060	146.300000
437.692780	147.080000
437.786407	146.980000
437.880127	146.800000
437.973755	146.040000
438.067474	145.440000
438.161133	144.780000
438.254822	145.240000
438.348480	144.980000
438.442169	145.380000
438.535828	145.980000
438.629517	146.000000
438.723175	145.680000
438.816864	146.360000
438.910553	145.840000
439.004211	145.160000
439.097900	145.160000
439.191559	145.180000
439.285248	144.320000
439.378906	145.000000
439.472626	145.240000
439.566284	145.140000
439.659973	145.480000
439.753632	145.760000
439.847321	145.780000
439.940979	146.060000
440.034698	146.160000
440.128326	145.560000
440.222046	145.540000
440.315674	144.780000
440.409393	144.600000
440.503082	144.300000
440.596741	144.880000
440.690430	145.080000
440.784088	144.980000
440.877777	144.760000
440.971466	144.920000
441.065125	144.460000
441.158813	144.280000
441.252502	144.340000
441.346161	144.520000
441.439850	144.960000
441.533539	144.880000
441.627197	145.080000
441.720886	145.180000
441.814606	145.420000
441.908234	145.420000
442.001953	145.420000
442.095612	145.160000
442.189301	145.640000
442.282959	145.820000
442.376678	145.160000
442.470306	145.980000
442.564026	145.880000
442.657684	145.620000
442.751404	145.400000
442.845032	146.580000
442.938751	145.620000
443.032440	146.060000
443.126099	145.700000
443.219788	145.920000
443.313477	145.380000
443.407166	146.080000
443.500824	145.840000
443.594513	146.340000
443.688202	146.180000
443.781891	145.320000
443.875549	144.820000
443.969238	145.020000
444.062927	144.920000
444.156647	144.800000
444.250275	145.800000
444.343994	146.160000
444.437653	146.160000
444.531372	145.880000
444.625031	145.520000
444.718719	144.840000
444.812378	144.800000
444.906097	144.620000
444.999756	144.560000
445.093445	144.860000
445.187103	145.000000
445.280823	145.260000
445.374512	144.760000
445.468201	144.900000
445.561859	144.780000
445.655548	145.100000
445.749237	144.300000
445.842926	144.740000
445.936615	145.340000
446.030304	145.080000
446.123962	145.320000
446.217651	145.700000
446.311340	145.820000
446.405029	145.080000
446.498749	144.980000
446.592407	144.520000
446.686096	144.280000
446.779755	144.380000
446.873474	144.640000
446.967133	145.080000
447.060852	144.780000
447.154510	144.800000
447.248230	144.900000
447.341858	144.900000
447.435577	144.180000
447.529236	144.040000
447.622955	144.280000
447.716644	143.900000
447.810333	144.020000
447.904022	145.240000
447.997711	145.460000
448.091400	145.940000
448.185059	146.160000
448.278748	146.300000
448.372437	145.780000
448.466125	146.140000
448.559814	145.680000
448.653503	146.360000
448.747192	146.420000
448.840912	146.620000
448.934570	146.720000
449.028290	146.940000
449.121948	146.240000
449.215637	145.620000
449.309296	145.560000
449.403015	145.600000
449.496674	145.580000
449.590393	145.940000
449.684052	145.780000
449.777771	146.360000
449.871429	145.760000
449.965149	145.600000
450.058838	145.600000
450.152527	146.520000
450.246216	146.040000
450.339905	146.280000
450.433594	146.200000
450.527283	146.500000
450.620972	145.880000
450.714661	145.560000
450.808350	145.700000
450.902039	145.800000
450.995728	145.280000
451.089417	145.260000
451.183105	145.560000
451.276794	145.900000
451.370514	145.480000
451.464172	144.920000
451.557892	144.820000
451.651550	144.840000
451.745270	144.420000
451.838928	144.060000
451.932648	144.500000
452.026306	145.220000
452.120026	144.720000
452.213684	144.760000
452.307404	145.560000
452.401062	145.460000
452.494781	145.500000
452.588470	145.560000
452.682159	145.220000
452.775848	145.120000
452.869537	144.900000
452.963226	144.080000
453.056915	144.380000
453.150604	144.660000
453.244293	144.880000
453.337982	145.640000
453.431671	146.460000
453.525360	146.660000
453.619049	146.860000
453.712769	146.680000
453.806427	146.040000
453.900146	145.160000
453.993805	145.020000
454.087555	145.380000
454.181213	145.460000
454.274933	145.460000
454.368591	145.660000
454.462311	145.380000
454.555969	144.980000
454.649689	145.400000
454.743347	145.260000
454.837067	146.000000
454.930756	146.680000
455.024445	146.620000
455.118134	146.220000
455.211853	146.620000
455.305542	145.960000
455.399231	145.720000
455.492920	145.540000
455.586609	145.720000
455.680298	145.600000
455.773987	145.420000
455.867676	145.040000
455.961365	145.580000
456.055084	145.120000
456.148773	144.860000
456.242493	145.100000
456.336151	145.300000
456.429871	145.180000
456.523529	145.620000
456.617249	145.340000
456.710907	146.080000
456.804626	145.820000
456.898315	145.360000
456.992035	145.280000
457.085693	145.620000
457.179413	144.580000
457.273102	145.380000
457.366791	145.540000
457.460480	145.680000
457.554199	146.180000
457.647888	146.500000
457.741577	146.060000
457.835266	146.080000
457.928955	146.000000
458.022644	146.020000
458.116364	146.060000
458.210052	145.980000
458.303741	145.920000
458.397461	145.180000
458.491119	144.760000
458.584839	144.740000
458.678528	144.340000
458.772247	144.300000
458.865906	145.000000
458.959625	145.640000
459.053284	145.700000
459.147003	145.720000
459.240692	146.120000
459.334412	146.040000
459.428070	145.720000
459.521790	145.700000
459.615479	145.980000
459.709198	146.200000
459.802887	145.660000
459.896576	145.200000
459.990265	145.140000
460.083954	145.380000
460.177673	144.740000
460.271362	145.080000
460.365051	145.460000
460.458740	145.480000
460.552429	144.840000
460.646149	145.040000
460.739838	144.540000
460.833527	144.180000
460.927246	143.700000
461.020905	143.820000
461.114655	143.800000
461.208313	144.280000
461.302032	144.300000
461.395691	144.900000
461.489441	145.160000
461.583099	144.900000
461.676819	144.680000
461.770477	145.060000
461.864197	144.880000
461.957916	144.560000
462.051605	144.320000
462.145294	145.340000
462.238983	145.260000
462.332703	145.460000
462.426392	146.260000
462.520081	146.660000
462.613770	145.840000
462.707489	145.740000
462.801178	145.620000
462.894867	145.120000
462.988556	145.080000
463.082275	145.240000
463.175964	145.020000
463.269684	145.340000
463.363342	145.340000
463.457092	144.920000
463.550751	145.120000
463.644470	145.560000
463.738129	145.260000
463.831879	145.260000
463.925537	146.060000
464.019257	145.900000
464.112946	145.640000
464.206665	145.460000
464.300323	145.180000
464.394043	144.960000
464.487762	145.060000
464.581451	145.280000
464.675140	145.640000
464.768829	146.080000
464.862549	145.760000
464.956238	145.940000
465.049927	145.860000
465.143646	145.540000
465.237335	145.280000
465.331024	146.000000
465.424713	145.960000
465.518433	145.920000
465.612152	145.800000
465.705811	145.860000
465.799561	145.440000
465.893219	145.160000
465.986938	144.980000
466.080597	144.800000
466.174347	145.000000
466.268005	145.260000
466.361725	145.260000
466.455414	145.140000
466.549133	145.320000
466.642792	145.480000
466.736542	144.700000
466.830231	144.840000
466.923920	145.080000
467.017609	145.260000
467.111328	144.600000
467.205017	144.920000
467.298706	144.560000
467.392426	144.720000
467.486115	144.860000
467.579803	144.900000
467.673523	145.240000
467.767212	145.420000
467.860901	145.080000
467.954651	144.880000
468.048309	145.140000
468.142029	144.800000
468.235718	144.920000
468.329437	144.700000
468.423096	144.800000
468.516846	144.780000
468.610504	144.760000
468.704224	144.420000
468.797913	144.520000
468.891632	144.520000
468.985291	144.460000
469.079010	144.540000
469.172729	144.380000
469.266418	144.820000
469.360107	144.900000
469.453827	144.720000
469.547516	144.780000
469.641205	145.280000
469.734924	145.460000
469.828613	145.820000
469.922302	146.260000
470.016022	146.060000
470.109711	145.940000
470.203430	145.360000
470.297150	144.460000
470.390808	144.460000
470.484558	144.480000
470.578217	144.940000
470.671936	145.500000
470.765625	146.260000
470.859344	145.680000
470.953003	146.140000
471.046753	145.420000
471.140411	144.800000
471.234131	144.820000
471.327820	145.620000
471.421539	145.540000
471.515228	145.180000
471.608948	145.380000
471.702637	144.900000
471.796326	144.420000
471.890045	144.300000
471.983734	145.200000
472.077423	145.100000
472.171143	145.200000
472.264832	145.020000
472.358521	144.840000
472.452240	144.420000
472.545929	145.380000
472.639648	145.340000
472.733337	145.880000
472.827057	146.320000
472.920746	146.560000
473.014465	146.440000
473.108124	146.780000
473.201874	146.660000
473.295532	146.180000
473.389252	146.420000
473.482941	146.340000
473.576660	145.860000
473.670319	145.900000
473.764069	146.020000
473.857727	145.980000
473.951477	145.980000
474.045166	146.700000
474.138855	146.480000
474.232574	146.480000
474.326263	146.540000
474.419952	146.440000
474.513672	146.220000
474.607361	146.220000
474.701050	146.500000
474.794769	146.480000
474.888458	146.860000
474.982178	146.820000
475.075867	146.780000
475.169586	146.600000
475.263275	146.120000
475.356995	145.420000
475.450653	145.120000
475.544403	144.880000
475.638062	145.500000
475.731812	145.460000
475.825470	145.360000
475.919189	145.640000
476.012878	145.940000
476.106598	144.980000
476.200256	145.360000
476.294006	145.320000
476.387695	144.980000
476.481384	145.040000
476.575104	145.100000
476.668793	144.480000
476.762512	144.420000
476.856201	144.920000
476.949890	144.380000
477.043610	143.980000
477.137299	144.260000
477.230988	144.320000
477.324707	143.960000
477.418396	144.660000
477.512146	145.160000
477.605804	145.100000
477.699524	145.380000
477.793213	144.920000
477.886932	144.680000
477.980591	144.460000
478.074341	144.300000
478.167999	143.820000
478.261749	144.500000
478.355408	144.200000
478.449127	144.660000
478.542816	145.560000
478.636536	146.260000
478.730225	146.340000
478.823944	147.000000
478.917633	146.820000
479.011322	146.740000
479.105042	146.580000
479.198730	146.240000
479.292450	145.660000
479.386139	146.020000
479.479828	146.040000
479.573547	146.400000
479.667267	146.480000
479.760925	146.600000
479.854675	146.760000
479.948334	146.440000
480.042084	145.460000
480.135742	145.780000
480.229462	145.340000
480.323151	145.140000
480.416870	144.600000
480.510529	145.020000
480.604279	144.360000
480.697937	144.980000
480.791656	144.460000
480.885345	144.520000
480.979065	144.480000
481.072754	145.100000
481.166473	145.360000
481.260132	145.620000
481.353882	145.660000
481.447540	145.500000
481.541260	145.320000
481.635010	144.460000
481.728668	144.080000
481.822388	144.300000
481.916077	144.600000
482.009796	144.480000
482.103485	145.420000
482.197205	145.700000
482.290863	145.720000
482.384613	145.260000
482.478271	144.900000
482.571991	144.540000
482.665680	144.420000
482.759399	144.900000
482.853058	145.380000
482.946808	145.320000
483.040466	145.220000
483.134216	145.200000
483.227875	144.480000
483.321594	144.800000
483.415283	145.040000
483.509003	144.860000
483.602661	144.840000
483.696411	145.220000
483.790070	144.980000
483.883789	145.180000
483.977478	145.600000
484.071198	145.740000
484.164917	145.280000
484.258606	144.820000
484.352325	145.040000
484.445984	145.000000
484.539734	144.880000
484.633392	144.700000
484.727142	145.220000
484.820801	144.640000
484.914520	144.600000
485.008209	144.760000
485.101929	145.520000
485.195587	144.860000
485.289337	145.160000
485.382996	145.240000
485.476715	145.400000
485.570404	145.580000
485.664124	145.900000
485.757782	146.560000
485.851532	146.060000
485.945190	146.040000
486.038910	145.880000
486.132599	146.340000
486.226318	145.420000
486.319977	145.640000
486.413727	145.940000
486.507446	145.380000
486.601105	144.620000
486.694855	144.740000
486.788513	144.380000
486.882233	144.260000
486.975922	144.440000
487.069641	144.460000
487.163300	144.380000
487.257050	145.680000
487.350708	144.980000
487.444427	144.980000
487.538116	144.960000
487.631836	144.580000
487.725494	143.980000
487.819214	144.240000
487.912903	144.120000
488.006622	144.820000
488.100281	145.640000
488.194031	145.560000
488.287689	145.920000
488.381409	146.320000
488.475098	145.900000
488.568817	146.000000
488.662476	145.680000
488.756226	144.960000
488.849945	144.340000
488.943604	144.400000
489.037354	144.200000
489.131012	144.460000
489.224731	144.400000
489.318390	144.240000
489.412140	144.180000
489.505798	143.940000
489.599518	143.160000
489.693207	143.960000
489.786926	144.280000
489.880585	143.980000
489.974335	144.460000
490.067993	146.060000
490.161713	146.200000
490.255371	147.140000
490.349121	147.400000
490.442780	147.020000
490.536499	146.060000
490.630188	145.720000
490.723907	144.860000
490.817566	145.160000
490.911285	145.200000
491.004974	145.120000
491.098694	144.880000
491.192413	145.880000
491.286102	145.600000
491.379822	145.580000
491.473480	145.880000
491.567200	145.920000
491.660889	145.060000
491.754608	145.100000
491.848267	145.020000
491.941986	144.920000
492.035675	145.100000
492.129395	145.140000
492.223053	145.040000
492.316772	145.380000
492.410461	144.960000
492.504181	144.980000
492.597839	144.640000
492.691559	144.880000
492.785248	144.380000
492.878967	144.780000
492.972626	144.440000
493.066345	144.920000
493.160034	144.440000
493.253754	144.660000
493.347412	144.480000
493.441132	144.880000
493.534882	145.180000
493.628540	145.660000
493.722260	145.880000
493.815918	146.120000
493.909668	146.600000
494.003326	146.740000
494.097046	146.480000
494.190704	146.240000
494.284454	146.420000
494.378113	146.180000
494.471832	145.740000
494.565491	145.760000
494.659210	146.040000
494.752899	145.680000
494.846619	145.220000
494.940277	145.340000
495.033997	145.340000
495.127686	144.720000
495.221405	144.540000
495.315063	144.940000
495.408783	144.940000
495.502441	144.940000
495.596191	145.380000
495.689850	145.240000
495.783569	145.280000
495.877228	145.320000
495.970947	144.900000
496.064697	144.940000
496.158356	145.680000
496.252075	145.420000
496.345734	145.000000
496.439453	146.140000
496.533142	146.100000
496.626862	146.400000
496.720520	146.500000
496.814240	146.660000
496.907898	146.000000
497.001617	146.100000
497.095306	145.040000
497.189026	144.820000
497.282684	145.100000
497.376404	145.720000
497.470062	145.400000
497.563782	145.900000
497.657471	145.980000
497.751190	145.540000
497.844849	144.980000
497.938568	145.260000
498.032227	145.080000
498.125946	144.960000
498.219635	144.820000
498.313354	144.800000
498.407074	144.360000
498.500732	144.440000
498.594452	144.540000
498.688110	144.460000
498.781830	144.100000
498.875519	144.180000
498.969238	144.340000
499.062897	144.200000
499.156616	145.180000
499.250275	145.680000
499.343994	145.220000
499.437653	145.260000
499.531372	145.660000
499.625061	145.940000
499.718781	145.880000
499.812439	146.860000
499.906158	146.940000
499.999817	146.600000
500.093536	145.760000
500.187195	146.200000
500.280914	146.080000
500.374573	146.080000
500.468323	145.820000
500.561981	146.100000
500.655701	145.300000
500.749420	145.120000
500.843079	145.160000
500.936798	145.800000
501.030457	146.040000
501.124176	146.400000
501.217834	146.440000
501.311554	146.140000
501.405212	145.480000
501.498962	144.820000
501.592621	144.680000
501.686340	144.980000
501.779999	145.220000
501.873718	145.620000
501.967377	146.000000
502.061096	146.340000
502.154755	145.820000
502.248474	145.720000
502.342133	145.980000
502.435852	145.620000
502.529510	146.000000
502.623230	146.580000
502.716888	146.140000
502.810608	145.820000
502.904266	146.520000
502.997986	146.140000
503.091705	145.620000
503.185364	145.840000
503.279083	146.240000
503.372772	145.840000
503.466492	145.100000
503.560150	145.200000
503.653870	145.480000
503.747528	145.160000
503.841248	144.920000
503.934906	145.580000
504.028625	145.240000
504.122284	145.280000
504.216003	145.820000
504.309662	145.640000
504.403381	145.780000
504.497040	146.020000
504.590759	145.580000
504.684418	145.260000
504.778137	146.000000
504.871796	146.040000
504.965515	145.920000
505.059174	146.040000
505.152893	145.520000
505.246521	144.940000
505.340240	144.360000
505.433899	144.640000
505.527618	144.720000
505.621338	145.200000
505.714996	145.160000
505.808716	145.020000
505.902374	145.140000
505.996094	145.200000
506.089752	144.660000
506.183472	144.800000
506.277130	145.320000
506.370850	145.180000
506.464508	145.140000
506.558228	145.480000
506.651886	145.040000
506.745605	144.980000
506.839264	145.080000
506.932983	145.160000
507.026611	144.840000
507.120331	145.420000
507.213989	144.940000
507.307709	145.000000
507.401367	145.060000
507.495087	146.220000
507.588745	145.740000
507.682465	146.880000
507.776123	146.860000
507.869843	146.800000
507.963531	146.280000
508.057190	147.020000
508.150909	145.820000
508.244568	146.000000
508.338287	145.660000
508.431946	145.360000
508.525665	144.820000
508.619324	145.080000
508.713013	145.040000
508.806671	145.480000
508.900391	146.140000
508.994049	146.320000
509.087769	145.980000
509.181427	145.820000
509.275146	145.460000
509.368774	144.480000
509.462494	144.080000
509.556152	144.340000
509.649872	144.740000
509.743530	144.760000
509.837250	145.020000
509.930878	145.020000
510.024597	145.140000
510.118256	144.400000
510.211975	144.420000
510.305695	144.240000
510.399353	144.820000
510.493042	145.260000
510.586700	145.520000
510.680420	146.020000
510.774078	145.940000
510.867798	146.040000
510.961426	145.200000
511.055145	145.360000
511.148804	145.000000
511.242523	145.680000
511.336151	145.480000
511.429871	145.980000
511.523529	145.840000
511.617249	145.720000
511.710876	145.340000
511.804596	145.240000
511.898254	145.160000
511.991974	145.160000
512.085632	144.940000
512.179321	145.020000
512.272949	145.220000
512.366699	145.540000
512.460327	145.400000
512.554077	146.260000
512.647766	146.160000
512.741394	146.080000
512.835144	146.540000
512.928772	146.220000
513.022461	145.820000
513.116150	145.560000
513.209839	145.960000
513.303467	145.100000
513.397217	145.040000
513.490845	144.760000
513.584595	144.860000
513.678223	143.960000
513.771912	143.480000
513.865601	143.900000
513.959290	143.900000
514.052917	143.940000
514.146667	144.760000
514.240295	145.500000
514.333984	145.680000
514.427673	145.380000
514.521362	145.700000
514.614990	144.840000
514.708740	144.660000
514.802368	144.580000
514.896057	145.060000
514.989746	145.620000
515.083435	145.660000
515.177124	146.080000
515.270752	146.020000
515.364502	145.840000
515.458130	145.440000
515.551819	145.340000
515.645508	145.080000
515.739197	145.060000
515.832825	145.240000
515.926575	144.840000
516.020203	145.180000
516.113892	145.560000
516.207520	145.520000
516.301270	145.340000
516.394897	145.620000
516.488586	146.160000
516.582275	145.620000
516.675964	144.980000
516.769592	145.160000
516.863281	145.620000
516.956970	145.860000
517.050659	145.700000
517.144287	146.100000
517.238037	146.100000
517.331665	145.480000
517.425354	145.060000
517.519043	145.280000
517.612732	145.780000
517.706421	145.500000
517.800049	145.300000
517.893738	144.960000
517.987427	144.980000
518.081116	144.500000
518.174744	144.200000
518.268433	144.520000
518.362122	145.000000
518.455811	144.880000
518.549438	145.620000
518.643127	146.640000
518.736816	146.580000
518.830505	145.880000
518.924133	146.180000
519.017822	146.020000
519.111511	145.540000
519.205200	145.860000
519.298828	146.100000
519.392517	145.820000
519.486206	145.980000
519.579895	145.980000
519.673523	145.380000
519.767212	145.600000
519.860901	146.020000
519.954590	145.340000
520.048279	145.140000
520.141907	145.320000
520.235596	146.240000
520.329224	146.260000
520.422974	146.520000
520.516602	146.660000
520.610291	146.280000
520.703918	145.400000
520.797607	144.780000
520.891296	144.820000
520.984985	145.000000
521.078613	145.800000
521.172302	145.420000
521.265930	146.360000
521.359680	146.820000
521.453308	146.400000
521.546997	146.120000
521.640625	146.300000
521.734314	145.640000
521.827942	145.280000
521.921692	146.040000
522.015320	146.140000
522.109009	146.260000
522.202698	146.240000
522.296326	146.040000
522.390015	145.800000
522.483704	145.660000
522.577393	145.600000
522.671021	145.560000
522.764709	145.340000
522.858337	145.780000
522.952026	145.740000
523.045654	145.960000
523.139404	146.580000
523.233032	146.860000
523.326721	145.980000
523.420349	146.220000
523.514038	145.920000
523.607666	145.800000
523.701355	145.460000
523.795044	145.720000
523.888733	145.520000
523.982361	145.720000
524.076050	145.220000
524.169678	146.000000
524.263367	145.720000
524.356995	145.440000
524.450684	145.200000
524.544373	145.460000
524.638062	144.920000
524.731750	145.420000
524.825378	145.620000
524.919067	145.340000
525.012695	145.080000
525.106384	144.980000
525.200012	144.820000
525.293701	144.780000
525.387329	145.180000
525.481018	145.560000
525.574646	146.080000
525.668396	145.940000
525.762024	146.200000
525.855713	146.360000
525.949341	145.940000
526.043030	145.680000
526.136658	145.440000
526.230347	145.200000
526.323975	144.760000
526.417664	144.520000
526.511292	144.360000
526.604980	144.840000
526.698608	144.900000
526.792297	145.520000
526.885925	146.200000
526.979614	146.420000
527.073303	146.500000
527.166931	146.480000
527.260620	146.100000
527.354309	146.140000
527.447998	146.220000
527.541626	145.660000
527.635315	145.660000
527.728943	146.200000
527.822632	146.060000
527.916260	145.980000
528.009949	146.380000
528.103577	146.440000
528.197266	145.680000
528.290894	145.580000
528.384583	145.340000
528.478210	145.080000
528.571899	145.220000
528.665527	145.840000
528.759216	145.940000
528.852844	146.560000
528.946533	146.780000
529.040161	146.640000
529.133850	146.200000
529.227478	146.300000
529.321167	146.540000
529.414856	146.900000
529.508484	147.320000
529.602173	147.120000
529.695801	146.740000
529.789490	146.100000
529.883057	145.820000
529.976746	145.760000
530.070374	146.140000
530.164062	146.680000
530.257690	147.100000
530.351379	147.160000
530.445007	146.760000
530.538696	146.100000
530.632324	145.960000
530.726013	145.500000
530.819641	145.180000
530.913330	145.360000
531.006958	145.560000
531.100647	145.560000
531.194275	145.520000
531.287964	145.480000
531.381592	145.260000
531.475220	145.560000
531.568848	145.220000
531.662537	145.420000
531.756226	146.060000
531.849854	146.140000
531.943542	146.100000
532.037170	145.980000
532.130859	146.360000
532.224487	145.760000
532.318176	145.360000
532.411804	145.880000
532.505432	146.220000
532.599060	145.520000
532.692749	145.440000
532.786377	145.940000
532.880066	145.000000
532.973694	144.360000
533.067383	144.680000
533.161011	144.660000
533.254639	144.400000
533.348267	144.560000
533.441956	145.060000
533.535583	144.860000
533.629272	144.920000
533.722900	144.320000
533.816589	144.400000
533.910156	144.720000
534.003845	144.000000
534.097534	144.400000
534.191162	145.600000
534.284851	145.840000
534.378479	145.500000
534.472107	146.020000
534.565735	145.880000
534.659424	145.840000
534.753052	146.120000
534.846741	145.840000
534.940369	146.620000
535.033997	146.400000
535.127625	146.020000
535.221313	146.180000
535.314941	146.180000
535.408630	145.380000
535.502197	145.880000
535.595886	145.500000
535.689514	145.080000
535.783203	145.700000
535.876831	146.100000
535.970459	145.900000
536.064087	145.880000
536.157776	145.680000
536.251404	145.440000
536.345093	145.160000
536.438721	145.080000
536.532349	145.300000
536.626038	145.480000
536.719666	145.740000
536.813293	145.260000
536.906921	145.360000
537.000610	145.880000
537.094238	145.620000
537.187866	145.420000
537.281494	145.780000
537.375183	145.660000
537.468811	145.020000
537.562439	145.160000
537.656067	144.900000
537.749756	145.100000
537.843384	145.520000
537.937012	145.920000
538.030640	145.860000
538.124329	146.140000
538.217896	146.520000
538.311584	146.520000
538.405212	146.140000
538.498901	146.640000
538.592468	147.080000
538.686157	146.240000
538.779785	144.980000
538.873413	145.200000
538.967102	144.560000
539.060730	143.720000
539.154358	144.340000
539.247986	145.260000
539.341675	145.320000
539.435242	145.340000
539.528931	145.720000
539.622559	145.080000
539.716187	145.400000
539.809814	145.300000
539.903503	145.520000
539.997070	145.320000
540.090759	145.680000
540.184387	145.320000
540.278015	145.940000
540.371643	145.980000
540.465332	145.880000
540.558899	145.740000
540.652588	145.780000
540.746216	144.840000
540.839844	145.300000
540.933472	145.420000
541.027100	145.600000
541.120728	145.580000
541.214417	146.280000
541.308044	146.140000
541.401672	146.020000
541.495300	145.880000
541.588928	145.940000
541.682617	145.360000
541.776184	144.660000
541.869873	144.880000
541.963440	145.020000
542.057129	144.660000
542.150757	144.880000
542.244385	144.880000
542.338013	144.780000
542.431641	144.480000
542.525269	144.800000
542.618958	145.460000
542.712524	145.840000
542.806213	145.540000
542.899780	145.720000
542.993469	145.140000
543.087036	144.540000
543.180725	144.060000
543.274292	144.440000
543.367981	144.920000
543.461548	145.700000
543.555237	145.600000
543.648926	146.280000
543.742493	146.700000
543.836182	146.500000
543.929749	146.380000
544.023437	146.460000
544.117004	146.560000
544.210693	146.420000
544.304260	146.340000
544.397949	146.020000
544.491516	146.380000
544.585205	146.120000
544.678772	145.440000
544.772461	145.340000
544.866028	145.120000
544.959717	144.880000
545.053284	144.500000
545.146973	145.280000
545.240540	145.680000
545.334229	146.660000
545.427795	146.980000
545.521423	147.440000
545.615051	147.380000
545.708679	147.320000
545.802307	146.680000
545.895935	147.000000
545.989624	147.440000
546.083191	147.060000
546.176880	147.180000
546.270447	147.180000
546.364136	146.940000
546.457703	146.580000
546.551331	146.680000
546.644958	146.640000
546.738586	147.000000
546.832214	146.760000
546.925842	146.600000
547.019409	146.880000
547.113098	146.360000
547.206665	145.920000
547.300354	145.800000
547.393921	146.140000
547.487549	145.940000
547.581177	146.140000
547.674805	146.100000
547.768433	145.260000
547.862061	145.080000
547.955627	144.360000
548.049316	144.400000
548.142883	144.600000
548.236572	145.640000
548.330139	145.620000
548.423767	145.880000
548.517456	145.880000
548.611023	146.080000
548.704651	145.200000
548.798279	145.100000
548.891907	145.640000
548.985474	145.600000
549.079163	145.380000
549.172729	145.580000
549.266357	145.000000
549.359985	144.880000
549.453613	144.340000
549.547180	144.140000
549.640869	144.480000
549.734436	144.580000
549.828064	144.540000
549.921631	144.740000
550.015320	144.540000
550.108887	144.960000
550.202515	145.040000
550.296143	144.600000
550.389771	145.100000
550.483337	145.240000
550.576965	144.580000
550.670593	145.200000
550.764221	145.500000
550.857849	145.040000
550.951477	144.740000
551.045105	144.620000
551.138672	144.200000
551.232300	143.920000
551.325928	144.480000
551.419556	145.280000
551.513123	145.540000
551.606750	145.480000
551.700378	145.620000
551.794006	145.100000
551.887573	144.600000
551.981201	144.700000
552.074768	144.620000
552.168457	144.440000
552.262024	145.300000
552.355652	145.260000
552.449219	145.940000
552.542847	146.180000
552.636475	145.920000
552.730103	144.980000
552.823669	145.100000
552.917297	144.140000
553.010864	144.160000
553.104553	144.760000
553.198181	144.860000
553.291748	145.140000
553.385376	145.300000
553.478943	144.920000
553.572571	144.860000
553.666199	144.980000
553.759827	144.820000
553.853394	144.780000
553.947021	144.900000
554.040588	145.220000
554.134216	145.340000
554.227783	145.620000
554.321411	146.240000
554.415039	145.980000
554.508667	145.400000
554.602234	145.520000
554.695862	145.000000
554.789429	144.720000
554.883057	144.980000
554.976624	145.140000
555.070251	144.900000
555.163818	144.780000
555.257507	144.760000
555.351074	144.820000
555.444702	145.960000
555.538330	145.680000
555.631897	146.180000
555.725525	146.000000
555.819092	145.980000
555.912720	144.640000
556.006287	145.380000
556.099915	144.960000
556.193481	145.060000
556.287109	145.420000
556.380676	145.460000
556.474304	145.260000
556.567871	145.720000
556.661499	145.340000
556.755066	144.940000
556.848694	145.200000
556.942261	145.080000
557.035889	145.040000
557.129517	145.160000
557.223145	145.760000
557.316711	145.660000
557.410339	145.760000
557.503906	145.320000
557.597473	145.580000
557.691040	145.360000
557.784668	145.520000
557.878296	145.340000
557.971863	145.780000
558.065491	145.840000
558.159058	145.480000
558.252686	145.800000
558.346252	146.400000
558.439880	146.000000
558.533447	145.500000
558.627075	145.140000
558.720642	144.660000
558.814270	144.640000
558.907837	144.680000
559.001465	144.700000
559.095032	145.560000
559.188660	145.980000
559.282227	144.860000
559.375854	145.440000
559.469360	145.560000
559.562988	145.620000
559.656555	145.380000
559.750183	145.840000
559.843750	145.440000
559.937378	145.400000
560.030945	145.360000
560.124573	0.000000
560.218140	0.000000
560.311707	0.000000
560.405334	0.000000
560.498901	0.000000
560.592529	0.000000
560.686096	0.000000
560.779724	0.000000
560.873291	0.000000
560.966858	0.000000
561.060425	0.000000
561.154053	0.000000
561.247620	0.000000
561.341248	0.000000
561.434814	0.000000
561.528381	0.000000
561.621948	0.000000
561.715576	0.000000
561.809143	0.000000
561.902771	0.000000
561.996277	0.000000
562.089905	0.000000
562.183472	0.000000
562.277100	0.000000
