Model Number: SPM-002-B   
Serial Number: 70087108
Firmware Version: 004.15.4
Exposure Time: 100000.000000us
Data Taken on: 11-12-2020 19:32:04.449
Wavelength	Amplitude
221.570786	0.000000
221.663406	0.000000
221.756027	0.000000
221.848648	0.000000
221.941269	0.000000
222.033905	0.000000
222.126526	0.000000
222.219162	0.000000
222.311798	0.000000
222.404419	0.000000
222.497055	0.000000
222.589676	0.000000
222.682312	0.000000
222.774933	0.000000
222.867569	0.000000
222.960205	0.000000
223.052841	0.000000
223.145462	0.000000
223.238098	0.000000
223.330734	0.000000
223.423386	0.000000
223.516022	0.000000
223.608658	0.000000
223.701309	0.000000
223.793945	0.000000
223.886581	0.000000
223.979218	0.000000
224.071869	0.000000
224.164505	0.000000
224.257156	0.000000
224.349792	0.000000
224.442444	0.000000
224.535095	0.000000
224.627747	0.000000
224.720398	0.000000
224.813034	0.000000
224.905685	0.000000
224.998337	144.800000
225.090988	144.460000
225.183640	144.680000
225.276291	144.760000
225.368942	145.220000
225.461594	145.680000
225.554245	145.860000
225.646912	145.760000
225.739578	146.140000
225.832230	145.900000
225.924896	145.040000
226.017548	145.420000
226.110199	145.860000
226.202866	145.100000
226.295532	145.040000
226.388184	145.040000
226.480850	144.260000
226.573517	143.800000
226.666168	144.160000
226.758835	144.360000
226.851501	145.420000
226.944183	145.580000
227.036850	145.380000
227.129517	145.260000
227.222183	145.360000
227.314850	144.820000
227.407516	145.300000
227.500198	146.140000
227.592865	145.840000
227.685532	145.280000
227.778214	145.020000
227.870880	145.300000
227.963562	145.600000
228.056229	146.000000
228.148926	146.480000
228.241592	147.680000
228.334274	147.260000
228.426956	146.700000
228.519638	146.880000
228.612305	146.300000
228.704987	145.780000
228.797668	145.660000
228.890350	145.320000
228.983032	144.880000
229.075714	145.860000
229.168396	145.660000
229.261108	145.500000
229.353790	145.900000
229.446472	146.160000
229.539169	145.640000
229.631851	145.020000
229.724533	144.980000
229.817230	145.000000
229.909912	145.800000
230.002609	145.920000
230.095306	146.300000
230.187988	146.440000
230.280685	146.160000
230.373383	144.920000
230.466095	144.660000
230.558792	144.720000
230.651474	145.040000
230.744171	145.100000
230.836868	145.260000
230.929581	145.540000
231.022278	145.600000
231.114975	145.380000
231.207672	145.160000
231.300369	145.660000
231.393082	145.840000
231.485779	145.840000
231.578506	145.860000
231.671204	146.100000
231.763916	146.000000
231.856613	145.560000
231.949326	145.580000
232.042023	145.420000
232.134735	145.140000
232.227448	144.400000
232.320160	144.680000
232.412872	144.500000
232.505585	145.320000
232.598297	145.840000
232.691010	146.140000
232.783722	145.900000
232.876450	146.740000
232.969162	146.140000
233.061874	145.560000
233.154587	145.520000
233.247314	145.860000
233.340027	144.820000
233.432739	144.900000
233.525467	144.880000
233.618179	144.940000
233.710907	144.360000
233.803635	145.200000
233.896347	144.700000
233.989090	145.520000
234.081818	145.880000
234.174545	146.100000
234.267258	145.400000
234.359985	145.980000
234.452713	145.380000
234.545441	145.000000
234.638168	145.120000
234.730896	145.460000
234.823639	145.340000
234.916367	146.000000
235.009094	146.160000
235.101822	146.340000
235.194580	146.640000
235.287308	146.500000
235.380051	145.940000
235.472778	146.260000
235.565521	146.440000
235.658249	145.960000
235.750992	145.960000
235.843719	145.800000
235.936462	145.840000
236.029205	145.360000
236.121948	145.160000
236.214691	145.800000
236.307449	146.820000
236.400192	146.460000
236.492935	146.360000
236.585678	146.660000
236.678421	146.420000
236.771164	145.960000
236.863907	146.320000
236.956665	146.760000
237.049408	148.240000
237.142151	147.720000
237.234909	148.040000
237.327652	147.980000
237.420410	147.680000
237.513153	146.320000
237.605927	146.300000
237.698669	145.680000
237.791428	145.020000
237.884186	145.360000
237.976944	144.960000
238.069702	145.440000
238.162445	145.160000
238.255203	145.580000
238.347961	145.460000
238.440720	145.780000
238.533478	145.420000
238.626266	145.220000
238.719025	145.700000
238.811783	145.680000
238.904541	145.480000
238.997314	145.620000
239.090073	145.380000
239.182831	145.040000
239.275604	145.620000
239.368362	145.420000
239.461136	145.400000
239.553909	145.660000
239.646667	145.600000
239.739441	145.140000
239.832214	145.740000
239.925003	145.800000
240.017761	146.640000
240.110535	146.920000
240.203308	146.420000
240.296082	145.940000
240.388855	145.800000
240.481628	145.480000
240.574417	145.480000
240.667191	145.940000
240.759964	145.600000
240.852737	145.680000
240.945526	145.300000
241.038315	145.240000
241.131088	145.140000
241.223877	145.620000
241.316650	145.460000
241.409439	146.040000
241.502228	145.420000
241.595001	145.940000
241.687790	145.660000
241.780579	145.420000
241.873367	145.300000
241.966141	145.700000
242.058929	145.160000
242.151718	145.720000
242.244507	146.280000
242.337311	145.660000
242.430099	146.180000
242.522903	146.360000
242.615692	145.960000
242.708481	146.040000
242.801270	146.640000
242.894073	146.240000
242.986862	146.280000
243.079651	146.780000
243.172455	146.440000
243.265244	146.420000
243.358063	145.940000
243.450867	145.900000
243.543655	145.560000
243.636459	145.560000
243.729263	145.600000
243.822067	146.040000
243.914856	146.420000
244.007660	146.920000
244.100464	146.920000
244.193268	146.500000
244.286072	146.320000
244.378876	145.760000
244.471680	145.100000
244.564499	145.380000
244.657318	146.060000
244.750122	146.360000
244.842926	145.980000
244.935745	146.500000
245.028549	146.040000
245.121368	145.320000
245.214172	145.040000
245.306992	145.360000
245.399796	145.080000
245.492615	145.360000
245.585434	145.700000
245.678253	145.800000
245.771072	145.880000
245.863892	146.360000
245.956711	146.520000
246.049530	146.300000
246.142349	146.140000
246.235168	146.280000
246.327988	146.380000
246.420807	146.080000
246.513626	146.040000
246.606445	145.760000
246.699280	145.500000
246.792099	145.160000
246.884918	144.900000
246.977753	144.740000
247.070587	145.080000
247.163422	145.020000
247.256241	144.600000
247.349075	144.980000
247.441895	145.220000
247.534729	145.080000
247.627563	145.160000
247.720383	145.860000
247.813217	145.620000
247.906052	145.520000
247.998886	145.560000
248.091736	145.500000
248.184570	145.160000
248.277405	145.220000
248.370239	145.800000
248.463074	146.620000
248.555908	146.880000
248.648743	146.560000
248.741592	146.700000
248.834427	146.280000
248.927261	145.120000
249.020111	145.400000
249.112946	146.000000
249.205795	145.400000
249.298630	145.660000
249.391495	145.920000
249.484344	145.400000
249.577179	145.540000
249.670029	146.000000
249.762878	146.280000
249.855728	146.560000
249.948563	146.380000
250.041412	145.340000
250.134262	145.700000
250.227112	145.380000
250.319962	145.260000
250.412827	145.740000
250.505692	145.620000
250.598541	145.380000
250.691391	145.100000
250.784241	145.260000
250.877106	145.400000
250.969955	145.660000
251.062805	145.920000
251.155670	146.360000
251.248520	146.020000
251.341385	146.000000
251.434235	145.880000
251.527100	145.740000
251.619965	145.340000
251.712814	145.880000
251.805695	145.600000
251.898560	145.660000
251.991425	145.700000
252.084290	146.200000
252.177155	145.640000
252.270020	145.300000
252.362885	145.780000
252.455750	145.860000
252.548615	145.000000
252.641479	144.980000
252.734360	144.960000
252.827240	144.620000
252.920105	144.680000
253.012970	145.000000
253.105850	145.460000
253.198715	145.560000
253.291595	145.760000
253.384460	145.300000
253.477341	145.380000
253.570221	145.020000
253.663086	144.940000
253.755966	145.400000
253.848846	145.540000
253.941727	145.680000
254.034592	145.740000
254.127472	145.300000
254.220367	145.040000
254.313248	145.320000
254.406128	144.620000
254.499008	144.700000
254.591904	145.680000
254.684784	145.920000
254.777664	145.820000
254.870544	145.860000
254.963440	145.780000
255.056335	145.500000
255.149216	144.980000
255.242111	145.280000
255.334991	145.800000
255.427887	146.060000
255.520767	146.340000
255.613663	146.560000
255.706558	145.800000
255.799438	145.520000
255.892334	145.180000
255.985229	145.040000
256.078125	144.700000
256.171021	145.100000
256.263916	145.820000
256.356812	146.180000
256.449707	146.120000
256.542603	146.400000
256.635498	146.860000
256.728394	146.140000
256.821289	145.800000
256.914215	146.160000
257.007080	146.280000
257.100006	145.940000
257.192932	146.600000
257.285828	146.820000
257.378723	146.400000
257.471619	146.240000
257.564545	145.580000
257.657440	145.520000
257.750336	146.040000
257.843262	145.720000
257.936157	146.680000
258.029053	147.140000
258.121979	146.800000
258.214874	146.120000
258.307800	145.880000
258.400696	144.660000
258.493622	144.900000
258.586517	144.600000
258.679443	145.100000
258.772339	145.040000
258.865265	144.880000
258.958160	144.540000
259.051086	145.280000
259.144012	144.860000
259.236938	145.940000
259.329834	146.300000
259.422791	146.000000
259.515717	145.220000
259.608612	145.180000
259.701538	144.680000
259.794464	144.660000
259.887390	144.880000
259.980316	144.960000
260.073212	144.580000
260.166138	143.880000
260.259064	144.160000
260.351990	144.520000
260.444916	144.540000
260.537842	144.900000
260.630768	145.820000
260.723694	145.820000
260.816620	145.720000
260.909546	145.540000
261.002472	145.240000
261.095398	144.800000
261.188354	144.440000
261.281281	143.940000
261.374207	144.400000
261.467133	145.120000
261.560089	145.280000
261.653015	145.100000
261.745972	145.940000
261.838867	146.240000
261.931824	146.540000
262.024780	146.100000
262.117706	146.580000
262.210663	146.420000
262.303589	146.020000
262.396515	145.720000
262.489471	146.500000
262.582397	146.020000
262.675354	145.620000
262.768280	145.500000
262.861237	145.220000
262.954163	145.300000
263.047119	145.780000
263.140045	145.720000
263.233002	145.760000
263.325958	145.720000
263.418884	145.120000
263.511841	144.900000
263.604797	145.000000
263.697723	145.100000
263.790680	145.320000
263.883636	145.660000
263.976593	145.200000
264.069550	145.220000
264.162476	144.980000
264.255463	144.620000
264.348419	144.460000
264.441376	145.040000
264.534332	144.740000
264.627289	144.760000
264.720245	145.280000
264.813202	144.960000
264.906158	145.220000
264.999115	145.760000
265.092072	145.700000
265.185028	146.240000
265.277985	146.540000
265.370941	145.720000
265.463898	145.540000
265.556854	145.680000
265.649811	144.340000
265.742798	144.440000
265.835754	144.740000
265.928711	144.980000
266.021667	144.880000
266.114655	145.440000
266.207611	145.560000
266.300568	145.140000
266.393585	144.640000
266.486511	145.160000
266.579498	144.440000
266.672485	144.040000
266.765442	144.160000
266.858429	144.780000
266.951385	144.060000
267.044342	144.260000
267.137329	144.420000
267.230316	144.760000
267.323273	144.340000
267.416260	145.220000
267.509216	145.280000
267.602203	145.060000
267.695160	145.660000
267.788147	145.700000
267.881134	144.840000
267.974091	145.260000
268.067078	145.300000
268.160065	145.040000
268.253052	144.940000
268.346008	145.200000
268.438995	144.840000
268.531982	145.080000
268.624969	144.720000
268.717987	144.880000
268.810944	145.020000
268.903961	145.120000
268.996948	144.860000
269.089905	145.240000
269.182892	145.280000
269.275879	145.200000
269.368866	145.000000
269.461853	145.240000
269.554871	145.020000
269.647858	145.140000
269.740845	145.560000
269.833832	145.860000
269.926819	145.660000
270.019806	145.680000
270.112793	145.000000
270.205811	145.080000
270.298798	144.800000
270.391785	145.220000
270.484772	145.080000
270.577789	145.460000
270.670776	144.780000
270.763763	144.900000
270.856750	144.780000
270.949768	144.640000
271.042786	144.860000
271.135773	145.160000
271.228790	145.340000
271.321808	145.020000
271.414795	144.700000
271.507782	144.260000
271.600800	143.700000
271.693817	143.940000
271.786804	144.240000
271.879822	144.920000
271.972809	145.180000
272.065826	145.980000
272.158844	145.540000
272.251831	145.880000
272.344849	145.720000
272.437866	145.640000
272.530853	145.340000
272.623871	145.520000
272.716888	144.880000
272.809906	145.180000
272.902893	145.180000
272.995911	144.860000
273.088928	144.660000
273.181946	144.620000
273.274963	144.060000
273.367981	143.700000
273.460999	143.900000
273.554047	144.340000
273.647003	145.140000
273.740051	145.140000
273.833069	145.600000
273.926086	146.040000
274.019135	145.760000
274.112152	145.100000
274.205170	145.420000
274.298187	145.260000
274.391205	144.460000
274.484222	144.340000
274.577240	144.400000
274.670258	144.120000
274.763306	144.040000
274.856323	144.520000
274.949341	144.900000
275.042358	145.480000
275.135406	145.460000
275.228424	145.760000
275.321442	145.840000
275.414490	145.260000
275.507507	145.420000
275.600525	146.080000
275.693573	145.640000
275.786591	145.240000
275.879669	145.660000
275.972656	144.800000
276.065735	144.760000
276.158752	145.340000
276.251801	146.120000
276.344818	146.440000
276.437866	146.720000
276.530884	146.060000
276.623932	145.520000
276.716980	145.380000
276.809998	145.080000
276.903046	145.160000
276.996094	146.180000
277.089111	146.740000
277.182159	146.980000
277.275208	146.740000
277.368256	146.520000
277.461304	145.780000
277.554321	145.260000
277.647369	144.980000
277.740417	145.220000
277.833466	145.220000
277.926514	145.120000
278.019562	145.740000
278.112610	145.200000
278.205688	145.160000
278.298706	145.340000
278.391785	145.300000
278.484833	144.540000
278.577881	144.800000
278.670929	144.900000
278.763977	144.940000
278.857025	145.420000
278.950073	145.720000
279.043121	145.600000
279.136169	145.600000
279.229248	145.220000
279.322296	144.880000
279.415344	144.780000
279.508392	144.560000
279.601440	144.480000
279.694519	144.460000
279.787567	144.460000
279.880615	144.300000
279.973694	144.360000
280.066742	144.220000
280.159790	144.540000
280.252869	144.440000
280.345917	144.840000
280.438995	144.860000
280.532074	145.000000
280.625122	145.160000
280.718201	146.020000
280.811279	145.980000
280.904327	146.140000
280.997406	145.920000
281.090454	145.940000
281.183533	145.060000
281.276581	144.940000
281.369659	144.620000
281.462738	145.000000
281.555786	145.000000
281.648865	145.120000
281.741943	144.960000
281.835022	145.740000
281.928070	145.420000
282.021149	145.320000
282.114227	145.320000
282.207306	145.540000
282.300385	145.400000
282.393433	145.300000
282.486511	145.140000
282.579590	145.760000
282.672668	146.000000
282.765747	145.680000
282.858856	145.980000
282.951904	146.100000
283.045013	146.020000
283.138062	146.020000
283.231171	146.240000
283.324249	146.440000
283.417328	146.560000
283.510406	145.920000
283.603485	145.920000
283.696564	145.800000
283.789642	145.780000
283.882751	145.520000
283.975830	146.120000
284.068909	145.600000
284.161987	146.260000
284.255066	145.540000
284.348175	145.540000
284.441254	145.160000
284.534332	145.620000
284.627441	144.720000
284.720520	144.740000
284.813599	144.860000
284.906708	144.720000
284.999786	144.140000
285.092896	144.020000
285.185974	144.840000
285.279053	144.460000
285.372192	144.800000
285.465240	145.480000
285.558380	145.860000
285.651459	145.360000
285.744568	146.500000
285.837677	145.960000
285.930756	145.860000
286.023865	145.680000
286.116943	145.720000
286.210052	145.240000
286.303162	145.720000
286.396240	145.780000
286.489349	145.800000
286.582458	146.140000
286.675568	145.880000
286.768646	145.620000
286.861755	145.680000
286.954865	146.220000
287.047974	145.820000
287.141083	145.700000
287.234161	145.660000
287.327271	145.360000
287.420380	145.560000
287.513519	145.540000
287.606598	145.680000
287.699738	145.880000
287.792816	146.040000
287.885956	145.660000
287.979034	145.760000
288.072174	145.820000
288.165283	145.560000
288.258392	145.540000
288.351501	145.080000
288.444611	145.360000
288.537720	145.400000
288.630859	145.360000
288.723969	145.280000
288.817078	145.680000
288.910187	145.220000
289.003296	144.860000
289.096436	144.520000
289.189545	144.620000
289.282654	144.360000
289.375763	145.040000
289.468903	145.580000
289.562012	146.160000
289.655121	146.060000
289.748260	146.140000
289.841400	145.940000
289.934509	145.700000
290.027649	145.980000
290.120728	145.940000
290.213898	146.100000
290.306976	145.880000
290.400146	146.040000
290.493256	145.360000
290.586395	145.480000
290.679535	145.480000
290.772644	145.360000
290.865784	144.740000
290.958893	145.000000
291.052032	144.800000
291.145172	144.640000
291.238281	144.400000
291.331421	144.480000
291.424561	144.660000
291.517670	144.580000
291.610809	144.740000
291.703949	145.080000
291.797089	145.460000
291.890228	145.020000
291.983337	145.240000
292.076477	145.040000
292.169617	145.060000
292.262756	144.840000
292.355927	145.060000
292.449036	144.660000
292.542206	144.840000
292.635315	144.840000
292.728485	144.980000
292.821625	144.740000
292.914764	145.880000
293.007904	145.840000
293.101044	145.860000
293.194183	146.040000
293.287323	146.300000
293.380463	145.640000
293.473602	145.380000
293.566742	145.820000
293.659882	145.860000
293.753021	146.000000
293.846191	145.680000
293.939331	145.700000
294.032471	145.460000
294.125610	145.160000
294.218781	145.300000
294.311920	145.780000
294.405060	145.940000
294.498230	145.540000
294.591370	145.780000
294.684540	145.140000
294.777679	144.800000
294.870850	145.000000
294.963959	145.060000
295.057159	144.800000
295.150299	145.180000
295.243469	145.020000
295.336609	144.560000
295.429779	144.400000
295.522919	144.640000
295.616089	144.680000
295.709229	145.480000
295.802399	145.660000
295.895569	145.620000
295.988708	145.140000
296.081879	145.240000
296.175018	144.600000
296.268188	144.620000
296.361359	144.980000
296.454529	145.240000
296.547668	145.020000
296.640839	145.280000
296.734009	144.940000
296.827179	144.940000
296.920319	145.440000
297.013519	145.520000
297.106659	145.560000
297.199860	145.720000
297.292999	145.860000
297.386200	145.320000
297.479309	144.920000
297.572510	145.000000
297.665680	144.600000
297.758850	144.220000
297.852020	144.240000
297.945190	144.580000
298.038361	144.040000
298.131531	145.300000
298.224701	145.220000
298.317871	145.080000
298.411072	144.640000
298.504242	144.400000
298.597412	143.920000
298.690582	144.380000
298.783752	144.300000
298.876923	145.040000
298.970093	145.240000
299.063293	145.680000
299.156464	145.800000
299.249634	146.180000
299.342834	146.060000
299.436005	146.500000
299.529205	145.860000
299.622345	145.640000
299.715576	145.040000
299.808716	144.740000
299.901917	144.460000
299.995117	144.880000
300.088287	145.360000
300.181488	145.420000
300.274658	145.500000
300.367828	145.800000
300.461029	145.560000
300.554199	145.460000
300.647400	145.940000
300.740601	146.420000
300.833771	145.940000
300.926971	146.280000
301.020142	145.800000
301.113342	145.480000
301.206512	145.300000
301.299713	146.080000
301.392914	145.860000
301.486084	146.600000
301.579285	146.740000
301.672516	146.960000
301.765686	146.200000
301.858887	145.800000
301.952057	145.220000
302.045288	145.120000
302.138458	144.700000
302.231659	144.740000
302.324860	145.040000
302.418060	144.940000
302.511261	144.960000
302.604462	145.220000
302.697662	145.300000
302.790863	144.860000
302.884064	144.580000
302.977264	144.740000
303.070465	144.700000
303.163666	145.520000
303.256866	146.160000
303.350067	146.360000
303.443268	146.100000
303.536469	146.080000
303.629669	145.340000
303.722870	145.320000
303.816071	145.020000
303.909271	145.540000
304.002472	145.200000
304.095673	145.140000
304.188934	144.220000
304.282104	145.320000
304.375336	145.020000
304.468506	145.140000
304.561768	145.120000
304.654968	146.160000
304.748169	145.360000
304.841370	145.200000
304.934601	145.380000
305.027802	145.180000
305.121002	144.600000
305.214233	144.540000
305.307434	144.440000
305.400665	145.080000
305.493866	144.720000
305.587097	145.200000
305.680298	145.240000
305.773499	146.020000
305.866730	145.480000
305.959930	146.380000
306.053162	146.260000
306.146393	146.020000
306.239594	145.120000
306.332825	145.280000
306.426025	145.340000
306.519287	144.880000
306.612488	145.240000
306.705719	145.420000
306.798920	145.500000
306.892181	144.960000
306.985352	144.600000
307.078613	143.820000
307.171844	144.180000
307.265045	143.360000
307.358276	143.200000
307.451508	143.940000
307.544739	144.640000
307.637970	144.240000
307.731201	144.320000
307.824402	144.980000
307.917633	145.260000
308.010864	145.820000
308.104095	146.240000
308.197327	146.480000
308.290558	146.220000
308.383789	145.860000
308.477020	145.240000
308.570251	144.820000
308.663483	144.340000
308.756714	144.440000
308.849976	144.420000
308.943176	144.800000
309.036438	144.600000
309.129639	144.700000
309.222900	144.540000
309.316101	144.460000
309.409393	143.960000
309.502625	144.160000
309.595856	144.500000
309.689087	144.640000
309.782318	144.820000
309.875580	145.180000
309.968811	145.380000
310.062042	145.260000
310.155273	145.400000
310.248535	145.520000
310.341766	145.300000
310.434998	145.280000
310.528259	145.140000
310.621490	145.400000
310.714722	144.740000
310.807983	145.040000
310.901215	144.620000
310.994476	144.960000
311.087708	144.720000
311.181000	145.120000
311.274200	144.720000
311.367462	145.060000
311.460693	144.440000
311.553986	144.820000
311.647186	145.100000
311.740479	145.680000
311.833710	145.420000
311.926971	146.140000
312.020203	145.140000
312.113464	144.700000
312.206726	143.800000
312.299957	144.080000
312.393219	144.340000
312.486481	144.720000
312.579712	144.800000
312.672974	145.520000
312.766235	145.240000
312.859497	144.880000
312.952759	144.860000
313.045990	145.520000
313.139252	144.520000
313.232513	145.040000
313.325775	145.300000
313.419037	145.260000
313.512299	144.780000
313.605530	145.660000
313.698822	145.760000
313.792053	145.660000
313.885345	145.420000
313.978577	145.340000
314.071869	145.060000
314.165131	144.860000
314.258392	145.100000
314.351654	145.420000
314.444916	144.920000
314.538177	145.640000
314.631439	146.200000
314.724701	145.820000
314.817993	145.760000
314.911255	146.380000
315.004517	145.480000
315.097778	144.820000
315.191040	145.420000
315.284302	145.760000
315.377594	145.380000
315.470856	145.680000
315.564117	145.360000
315.657379	144.400000
315.750671	143.760000
315.843933	144.260000
315.937195	144.040000
316.030518	144.060000
316.123749	144.300000
316.217041	145.300000
316.310303	144.960000
316.403595	144.960000
316.496857	145.220000
316.590149	145.720000
316.683411	144.900000
316.776703	144.720000
316.869965	145.080000
316.963257	145.260000
317.056519	144.120000
317.149811	143.880000
317.243073	144.100000
317.336365	143.780000
317.429626	143.760000
317.522919	144.640000
317.616180	144.860000
317.709473	144.700000
317.802765	144.840000
317.896027	144.840000
317.989319	145.220000
318.082611	145.180000
318.175873	145.040000
318.269165	145.040000
318.362488	144.960000
318.455750	144.320000
318.549042	144.900000
318.642303	145.580000
318.735626	145.400000
318.828888	145.540000
318.922211	145.260000
319.015472	145.660000
319.108765	145.100000
319.202057	144.840000
319.295349	144.620000
319.388641	145.020000
319.481934	144.340000
319.575226	144.160000
319.668518	144.780000
319.761810	145.340000
319.855103	145.300000
319.948395	145.200000
320.041687	145.680000
320.134979	145.540000
320.228271	144.900000
320.321564	144.860000
320.414856	144.920000
320.508148	144.480000
320.601440	144.240000
320.694763	144.460000
320.788025	145.100000
320.881348	145.260000
320.974640	145.440000
321.067963	145.220000
321.161224	145.160000
321.254547	144.240000
321.347839	144.760000
321.441162	144.580000
321.534454	144.980000
321.627747	144.940000
321.721069	145.660000
321.814362	145.500000
321.907654	145.580000
322.000946	145.480000
322.094269	145.920000
322.187561	145.560000
322.280884	145.500000
322.374176	145.560000
322.467468	145.940000
322.560791	145.720000
322.654083	146.240000
322.747406	146.160000
322.840698	146.400000
322.934021	146.560000
323.027344	146.620000
323.120636	145.960000
323.213959	145.800000
323.307251	145.620000
323.400574	145.160000
323.493866	144.660000
323.587219	145.080000
323.680511	145.380000
323.773834	145.420000
323.867157	145.460000
323.960449	145.800000
324.053772	145.300000
324.147095	145.180000
324.240387	145.420000
324.333710	145.640000
324.427032	145.380000
324.520355	145.280000
324.613647	144.960000
324.706970	145.000000
324.800293	144.740000
324.893616	145.180000
324.986938	145.820000
325.080231	145.800000
325.173553	145.680000
325.266876	146.240000
325.360199	145.980000
325.453522	145.200000
325.546875	144.940000
325.640167	144.960000
325.733521	144.680000
325.826813	144.880000
325.920166	145.060000
326.013489	145.080000
326.106812	144.500000
326.200134	144.140000
326.293457	143.680000
326.386780	144.020000
326.480103	143.700000
326.573425	143.780000
326.666748	143.880000
326.760071	144.320000
326.853424	144.240000
326.946747	144.940000
327.040070	145.980000
327.133392	145.700000
327.226715	145.100000
327.320068	144.980000
327.413391	145.180000
327.506714	144.420000
327.600037	144.440000
327.693390	144.500000
327.786713	144.640000
327.880066	144.260000
327.973358	144.500000
328.066742	145.360000
328.160034	145.780000
328.253418	145.780000
328.346710	145.640000
328.440063	145.540000
328.533417	144.880000
328.626740	145.320000
328.720093	145.100000
328.813416	145.140000
328.906769	145.120000
329.000092	145.240000
329.093445	144.740000
329.186768	144.680000
329.280121	145.120000
329.373444	145.220000
329.466797	145.300000
329.560120	145.560000
329.653473	145.760000
329.746796	145.300000
329.840149	145.160000
329.933502	144.980000
330.026825	144.980000
330.120178	144.700000
330.213562	144.880000
330.306854	144.620000
330.400238	144.760000
330.493561	144.520000
330.586945	145.100000
330.680237	144.980000
330.773621	145.180000
330.866974	145.000000
330.960327	145.340000
331.053680	145.000000
331.147003	145.260000
331.240356	145.540000
331.333710	145.820000
331.427063	145.260000
331.520416	145.100000
331.613770	144.880000
331.707123	145.060000
331.800476	145.100000
331.893829	145.880000
331.987152	146.100000
332.080505	145.920000
332.173859	145.640000
332.267212	145.140000
332.360565	144.680000
332.453918	144.600000
332.547333	144.840000
332.640656	144.920000
332.734039	145.180000
332.827362	144.880000
332.920746	145.240000
333.014069	145.500000
333.107452	145.480000
333.200806	145.560000
333.294159	146.000000
333.387543	145.520000
333.480896	144.820000
333.574249	144.700000
333.667603	144.600000
333.760956	144.740000
333.854340	144.940000
333.947693	145.280000
334.041046	145.460000
334.134430	145.580000
334.227783	144.940000
334.321136	145.020000
334.414520	144.740000
334.507874	144.760000
334.601227	144.640000
334.694611	144.620000
334.787964	144.480000
334.881348	144.760000
334.974701	144.380000
335.068085	144.100000
335.161438	144.440000
335.254822	144.140000
335.348175	144.320000
335.441559	144.320000
335.534943	145.020000
335.628296	144.860000
335.721680	145.060000
335.815033	145.080000
335.908417	145.760000
336.001770	145.520000
336.095154	145.420000
336.188538	145.080000
336.281891	144.720000
336.375275	143.640000
336.468658	143.580000
336.562012	143.820000
336.655396	144.340000
336.748779	144.800000
336.842133	145.440000
336.935516	145.580000
337.028900	145.300000
337.122284	145.220000
337.215637	145.200000
337.309021	144.840000
337.402435	144.420000
337.495789	144.440000
337.589203	144.300000
337.682526	143.840000
337.775940	144.160000
337.869324	144.540000
337.962708	144.420000
338.056091	145.080000
338.149475	145.280000
338.242859	145.340000
338.336243	145.080000
338.429626	145.600000
338.523010	145.300000
338.616394	145.100000
338.709778	145.040000
338.803162	145.080000
338.896545	144.640000
338.989929	144.280000
339.083313	144.440000
339.176697	144.160000
339.270081	144.240000
339.363464	144.880000
339.456848	145.000000
339.550232	144.680000
339.643616	144.940000
339.737030	144.840000
339.830383	144.720000
339.923828	145.060000
340.017181	145.360000
340.110596	145.580000
340.203949	145.660000
340.297363	145.140000
340.390778	145.160000
340.484161	144.980000
340.577545	144.600000
340.670959	144.840000
340.764343	145.000000
340.857727	144.580000
340.951111	144.380000
341.044525	144.600000
341.137909	143.900000
341.231293	143.820000
341.324707	143.640000
341.418091	144.600000
341.511505	144.720000
341.604889	145.080000
341.698303	145.440000
341.791687	145.740000
341.885071	144.980000
341.978485	144.500000
342.071899	144.840000
342.165283	144.600000
342.258698	144.760000
342.352081	145.180000
342.445496	145.440000
342.538879	145.220000
342.632324	145.140000
342.725708	145.160000
342.819122	144.440000
342.912506	144.660000
343.005920	144.660000
343.099335	145.360000
343.192719	145.380000
343.286133	145.780000
343.379547	145.760000
343.472931	145.820000
343.566345	145.080000
343.659760	144.840000
343.753143	144.680000
343.846558	144.140000
343.939972	144.020000
344.033386	144.680000
344.126770	144.680000
344.220184	145.000000
344.313599	145.620000
344.407043	145.840000
344.500427	144.960000
344.593872	145.580000
344.687225	145.280000
344.780670	144.860000
344.874054	144.560000
344.967499	145.220000
345.060913	144.840000
345.154327	144.780000
345.247742	144.800000
345.341156	144.780000
345.434570	144.360000
345.527985	144.440000
345.621399	144.780000
345.714813	144.640000
345.808228	144.980000
345.901642	144.820000
345.995056	144.100000
346.088470	144.260000
346.181885	144.580000
346.275299	144.320000
346.368713	144.360000
346.462128	144.520000
346.555573	144.480000
346.648987	144.480000
346.742401	144.320000
346.835815	145.080000
346.929260	145.040000
347.022644	145.020000
347.116119	144.880000
347.209503	145.380000
347.302948	145.980000
347.396362	146.820000
347.489807	146.760000
347.583221	147.360000
347.676636	147.100000
347.770050	145.780000
347.863495	144.960000
347.956909	144.680000
348.050323	143.860000
348.143768	143.660000
348.237183	143.740000
348.330597	144.280000
348.424042	144.760000
348.517456	145.540000
348.610901	145.660000
348.704315	145.580000
348.797760	145.120000
348.891174	144.380000
348.984619	143.660000
349.078033	144.280000
349.171448	144.800000
349.264923	144.600000
349.358337	144.780000
349.451782	145.040000
349.545197	144.080000
349.638641	143.640000
349.732086	143.500000
349.825500	144.160000
349.918945	144.180000
350.012390	144.720000
350.105804	145.180000
350.199249	145.480000
350.292664	145.440000
350.386108	145.220000
350.479553	145.740000
350.572968	145.620000
350.666412	145.720000
350.759857	145.480000
350.853302	146.100000
350.946716	145.300000
351.040161	145.160000
351.133606	145.040000
351.227081	145.080000
351.320465	145.620000
351.413940	145.580000
351.507355	145.700000
351.600830	146.020000
351.694244	145.740000
351.787720	145.160000
351.881104	145.380000
351.974579	145.140000
352.067993	145.780000
352.161469	145.740000
352.254883	145.020000
352.348358	145.060000
352.441803	145.480000
352.535248	144.920000
352.628693	145.520000
352.722137	145.640000
352.815582	146.040000
352.909027	145.980000
353.002472	145.780000
353.095917	145.300000
353.189362	145.880000
353.282806	145.480000
353.376251	145.260000
353.469696	144.760000
353.563141	145.460000
353.656586	144.980000
353.750061	144.660000
353.843475	144.500000
353.936981	145.500000
354.030396	144.700000
354.123871	144.860000
354.217285	145.700000
354.310760	145.980000
354.404175	145.920000
354.497681	145.700000
354.591095	145.640000
354.684570	144.800000
354.777985	144.520000
354.871490	144.100000
354.964935	144.880000
355.058380	144.960000
355.151855	144.680000
355.245300	145.060000
355.338745	145.420000
355.432220	145.340000
355.525665	144.940000
355.619110	145.720000
355.712585	145.440000
355.806030	145.160000
355.899475	144.540000
355.992950	145.140000
356.086426	145.540000
356.179871	145.880000
356.273346	145.860000
356.366791	146.160000
356.460266	146.040000
356.553711	145.020000
356.647186	144.840000
356.740631	144.840000
356.834106	144.680000
356.927551	144.860000
357.021027	145.140000
357.114471	145.280000
357.207947	145.280000
357.301422	145.460000
357.394867	145.320000
357.488342	145.840000
357.581818	145.700000
357.675262	145.840000
357.768738	145.600000
357.862213	145.120000
357.955658	144.760000
358.049133	144.940000
358.142609	145.320000
358.236053	145.540000
358.329529	145.900000
358.423035	146.040000
358.516449	145.540000
358.609955	145.640000
358.703400	146.300000
358.796906	146.460000
358.890350	146.040000
358.983826	146.180000
359.077271	145.300000
359.170776	144.820000
359.264221	144.440000
359.357727	144.720000
359.451172	145.280000
359.544647	145.620000
359.638123	145.320000
359.731598	145.840000
359.825073	146.060000
359.918549	145.600000
360.012024	145.740000
360.105499	145.360000
360.198975	145.260000
360.292450	145.200000
360.385925	145.220000
360.479401	144.900000
360.572876	145.460000
360.666351	145.440000
360.759857	145.100000
360.853302	145.040000
360.946808	144.660000
361.040253	144.500000
361.133759	144.180000
361.227203	144.800000
361.320709	144.740000
361.414154	145.500000
361.507660	145.740000
361.601105	146.200000
361.694641	146.560000
361.788086	146.560000
361.881592	146.740000
361.975067	146.180000
362.068542	146.360000
362.162018	146.140000
362.255524	146.000000
362.348999	145.580000
362.442474	146.280000
362.535950	145.720000
362.629456	144.940000
362.722931	144.800000
362.816406	145.320000
362.909882	145.440000
363.003387	145.080000
363.096863	146.040000
363.190338	146.260000
363.283875	145.660000
363.377319	145.780000
363.470825	146.600000
363.564301	145.540000
363.657806	145.940000
363.751282	145.720000
363.844788	146.180000
363.938232	145.700000
364.031769	146.540000
364.125214	146.520000
364.218750	147.240000
364.312225	146.040000
364.405731	146.080000
364.499207	145.520000
364.592712	144.960000
364.686188	144.660000
364.779694	145.400000
364.873169	145.180000
364.966675	144.940000
365.060150	145.340000
365.153656	145.760000
365.247131	145.200000
365.340637	145.940000
365.434143	146.840000
365.527618	146.700000
365.621155	145.660000
365.714600	145.700000
365.808136	145.580000
365.901611	144.540000
365.995117	144.180000
366.088593	144.440000
366.182129	144.200000
366.275604	144.080000
366.369110	144.180000
366.462585	144.320000
366.556122	145.260000
366.649567	145.300000
366.743103	145.260000
366.836609	145.360000
366.930115	145.820000
367.023590	145.780000
367.117096	145.700000
367.210602	145.520000
367.304108	146.100000
367.397614	146.460000
367.491119	146.040000
367.584595	146.600000
367.678101	146.640000
367.771606	146.160000
367.865112	145.520000
367.958649	144.920000
368.052124	144.460000
368.145660	144.560000
368.239136	145.060000
368.332672	145.300000
368.426147	145.660000
368.519684	145.620000
368.613159	146.040000
368.706696	145.520000
368.800171	145.240000
368.893707	144.960000
368.987183	145.340000
369.080719	145.000000
369.174225	144.960000
369.267731	145.500000
369.361237	146.000000
369.454742	145.760000
369.548248	145.960000
369.641754	145.940000
369.735260	145.460000
369.828766	144.500000
369.922272	145.040000
370.015808	144.620000
370.109314	144.560000
370.202820	144.520000
370.296356	146.060000
370.389832	145.600000
370.483368	145.560000
370.576874	145.540000
370.670410	145.920000
370.763885	144.740000
370.857422	144.620000
370.950928	144.640000
371.044464	145.360000
371.137939	145.320000
371.231476	145.960000
371.324982	146.480000
371.418518	146.780000
371.512024	146.560000
371.605560	146.280000
371.699066	146.200000
371.792572	145.720000
371.886108	145.800000
371.979614	145.360000
372.073120	145.860000
372.166656	145.740000
372.260162	146.060000
372.353668	145.820000
372.447205	145.740000
372.540710	145.360000
372.634277	145.500000
372.727753	145.580000
372.821320	145.500000
372.914795	145.620000
373.008362	145.520000
373.101837	145.380000
373.195404	145.100000
373.288879	145.020000
373.382446	145.760000
373.475922	145.580000
373.569489	146.080000
373.662964	146.660000
373.756531	146.860000
373.850037	146.820000
373.943573	146.820000
374.037109	145.840000
374.130615	145.700000
374.224152	145.620000
374.317657	145.260000
374.411194	146.320000
374.504730	146.400000
374.598236	146.020000
374.691772	145.640000
374.785309	145.460000
374.878815	144.320000
374.972351	145.100000
375.065887	145.220000
375.159454	146.220000
375.252930	146.040000
375.346497	146.740000
375.440002	146.820000
375.533569	146.540000
375.627045	145.880000
375.720612	146.160000
375.814117	145.680000
375.907684	145.120000
376.001160	144.940000
376.094727	144.280000
376.188232	144.900000
376.281799	145.360000
376.375336	145.500000
376.468872	146.300000
376.562408	147.180000
376.655914	146.520000
376.749451	146.260000
376.842987	146.220000
376.936523	145.580000
377.030060	145.240000
377.123596	145.500000
377.217133	145.400000
377.310669	145.640000
377.404205	146.280000
377.497772	146.460000
377.591278	146.040000
377.684845	146.300000
377.778351	146.360000
377.871918	145.760000
377.965424	145.400000
378.058990	145.380000
378.152496	145.060000
378.246063	145.200000
378.339569	145.540000
378.433136	145.700000
378.526642	145.960000
378.620209	146.060000
378.713745	145.380000
378.807312	145.620000
378.900848	145.520000
378.994385	145.520000
379.087921	144.820000
379.181458	145.160000
379.274994	144.300000
379.368530	144.480000
379.462097	144.520000
379.555634	145.320000
379.649170	144.820000
379.742706	145.100000
379.836273	145.420000
379.929810	145.180000
380.023376	144.680000
380.116882	144.820000
380.210449	145.120000
380.303986	144.480000
380.397552	144.320000
380.491058	144.980000
380.584656	144.960000
380.678162	145.140000
380.771729	145.440000
380.865265	146.080000
380.958832	145.780000
381.052368	145.920000
381.145935	145.920000
381.239471	146.120000
381.333008	145.920000
381.426575	145.780000
381.520111	146.060000
381.613647	146.040000
381.707214	145.560000
381.800751	145.180000
381.894318	145.660000
381.987854	145.140000
382.081421	145.080000
382.174988	145.640000
382.268524	145.260000
382.362091	144.960000
382.455627	145.580000
382.549194	145.140000
382.642731	144.340000
382.736298	144.640000
382.829834	144.500000
382.923401	144.920000
383.016937	145.180000
383.110504	145.620000
383.204041	145.780000
383.297607	146.120000
383.391174	145.000000
383.484741	145.740000
383.578278	145.340000
383.671844	145.100000
383.765411	144.400000
383.858948	145.160000
383.952515	144.480000
384.046051	145.140000
384.139618	145.720000
384.233185	146.100000
384.326721	145.940000
384.420288	146.400000
384.513855	146.160000
384.607422	145.940000
384.700989	146.200000
384.794525	145.520000
384.888123	145.240000
384.981659	145.340000
385.075226	145.200000
385.168762	144.880000
385.262360	145.480000
385.355896	144.880000
385.449463	144.660000
385.542999	144.540000
385.636597	145.320000
385.730164	145.440000
385.823730	145.160000
385.917267	144.920000
386.010834	144.940000
386.104401	144.780000
386.197968	144.820000
386.291534	145.520000
386.385101	145.820000
386.478668	146.260000
386.572235	145.760000
386.665802	145.180000
386.759338	145.080000
386.852905	144.880000
386.946472	144.580000
387.040070	144.960000
387.133606	145.320000
387.227203	145.060000
387.320740	145.460000
387.414337	145.020000
387.507874	144.560000
387.601471	144.560000
387.695007	144.180000
387.788605	143.760000
387.882141	144.020000
387.975739	143.940000
388.069275	143.640000
388.162872	144.160000
388.256439	144.240000
388.350037	144.200000
388.443604	144.400000
388.537170	144.560000
388.630737	145.420000
388.724304	145.700000
388.817871	145.640000
388.911438	145.800000
389.005005	146.240000
389.098602	146.200000
389.192169	145.700000
389.285736	146.480000
389.379333	146.180000
389.472870	145.600000
389.566467	145.120000
389.660034	145.520000
389.753632	144.920000
389.847168	145.180000
389.940765	145.760000
390.034332	146.100000
390.127930	145.580000
390.221466	145.500000
390.315063	145.300000
390.408630	144.320000
390.502228	143.160000
390.595795	143.780000
390.689362	143.920000
390.782959	144.120000
390.876526	145.000000
390.970093	145.380000
391.063690	145.640000
391.157257	145.640000
391.250824	146.020000
391.344421	145.460000
391.437988	146.040000
391.531555	145.920000
391.625153	146.040000
391.718750	145.920000
391.812317	146.180000
391.905914	145.260000
391.999481	145.220000
392.093079	145.080000
392.186615	145.200000
392.280243	145.320000
392.373779	145.780000
392.467407	146.160000
392.560944	146.180000
392.654572	145.580000
392.748108	145.200000
392.841736	145.520000
392.935303	144.880000
393.028900	144.760000
393.122467	145.080000
393.216064	144.940000
393.309631	144.320000
393.403229	144.400000
393.496796	144.280000
393.590393	143.600000
393.683990	144.200000
393.777557	144.700000
393.871155	144.560000
393.964722	144.840000
394.058350	145.360000
394.151917	145.300000
394.245514	145.120000
394.339081	145.960000
394.432678	146.060000
394.526245	146.120000
394.619873	145.560000
394.713409	145.640000
394.807037	145.100000
394.900604	145.360000
394.994202	145.220000
395.087769	145.680000
395.181396	145.380000
395.274994	146.120000
395.368561	145.120000
395.462158	145.180000
395.555756	144.720000
395.649353	145.300000
395.742920	144.580000
395.836517	145.700000
395.930115	145.160000
396.023712	145.500000
396.117279	145.600000
396.210876	145.260000
396.304474	145.020000
396.398071	145.760000
396.491669	146.100000
396.585266	145.700000
396.678833	145.780000
396.772461	145.940000
396.866028	145.680000
396.959656	145.840000
397.053223	146.180000
397.146851	146.200000
397.240417	146.640000
397.334015	147.920000
397.427582	148.280000
397.521210	149.340000
397.614807	151.340000
397.708405	153.100000
397.802002	155.300000
397.895599	159.040000
397.989197	162.920000
398.082794	168.220000
398.176392	175.540000
398.269989	183.680000
398.363586	193.900000
398.457184	206.640000
398.550781	220.680000
398.644379	234.680000
398.737976	251.220000
398.831573	268.680000
398.925201	286.400000
399.018768	305.720000
399.112396	327.860000
399.205963	352.020000
399.299591	379.040000
399.393158	407.700000
399.486786	438.580000
399.580353	469.400000
399.673981	498.160000
399.767578	525.300000
399.861206	549.880000
399.954773	569.080000
400.048401	579.760000
400.141998	583.140000
400.235596	578.660000
400.329193	567.220000
400.422791	550.580000
400.516418	531.760000
400.610016	512.500000
400.703613	492.020000
400.797211	468.620000
400.890808	444.300000
400.984436	419.920000
401.078033	394.040000
401.171631	367.240000
401.265259	342.260000
401.358826	317.640000
401.452484	293.880000
401.546051	271.720000
401.639679	250.300000
401.733246	231.600000
401.826904	214.520000
401.920471	199.480000
402.014099	186.920000
402.107697	177.680000
402.201324	169.920000
402.294891	164.100000
402.388550	160.060000
402.482147	156.700000
402.575745	153.180000
402.669373	150.480000
402.762970	148.660000
402.856567	147.320000
402.950195	146.580000
403.043793	146.240000
403.137390	146.980000
403.231018	146.720000
403.324615	147.460000
403.418243	146.920000
403.511841	147.480000
403.605469	146.740000
403.699066	146.880000
403.792694	146.660000
403.886292	147.100000
403.979919	146.740000
404.073517	146.700000
404.167145	146.780000
404.260712	146.700000
404.354370	146.340000
404.447937	146.640000
404.541595	146.840000
404.635162	147.060000
404.728821	147.300000
404.822418	147.000000
404.916046	146.780000
405.009644	146.860000
405.103271	146.740000
405.196899	146.020000
405.290497	146.380000
405.384125	146.400000
405.477722	146.020000
405.571350	145.580000
405.664948	145.820000
405.758575	145.440000
405.852203	144.820000
405.945801	144.860000
406.039429	144.840000
406.133057	144.680000
406.226654	144.600000
406.320312	144.720000
406.413879	144.860000
406.507538	145.280000
406.601135	144.720000
406.694763	145.380000
406.788361	145.160000
406.882019	145.060000
406.975586	145.300000
407.069244	145.800000
407.162872	145.520000
407.256470	145.480000
407.350098	145.380000
407.443726	144.880000
407.537323	144.600000
407.630951	144.940000
407.724579	145.120000
407.818207	145.560000
407.911804	145.460000
408.005432	145.440000
408.099060	145.560000
408.192688	145.700000
408.286285	145.300000
408.379913	145.060000
408.473572	145.200000
408.567169	144.540000
408.660828	144.620000
408.754395	144.480000
408.848053	144.620000
408.941650	144.740000
409.035309	144.140000
409.128906	144.040000
409.222565	144.240000
409.316132	144.160000
409.409790	144.000000
409.503387	144.620000
409.597046	144.820000
409.690674	144.980000
409.784302	145.440000
409.877930	145.040000
409.971558	145.160000
410.065186	145.060000
410.158783	144.700000
410.252411	144.180000
410.346039	145.040000
410.439667	145.060000
410.533295	145.100000
410.626923	145.520000
410.720551	145.760000
410.814209	145.920000
410.907806	145.940000
411.001465	145.440000
411.095062	145.740000
411.188721	145.680000
411.282318	144.880000
411.375977	144.600000
411.469574	144.920000
411.563232	144.300000
411.656830	144.260000
411.750488	144.340000
411.844086	144.280000
411.937744	144.700000
412.031372	144.680000
412.125000	144.920000
412.218628	145.200000
412.312256	146.040000
412.405884	146.100000
412.499512	146.080000
412.593170	146.080000
412.686798	146.220000
412.780426	145.520000
412.874054	145.500000
412.967682	145.680000
413.061310	146.400000
413.154968	146.300000
413.248566	146.340000
413.342224	146.100000
413.435852	145.840000
413.529510	144.840000
413.623108	144.340000
413.716766	144.080000
413.810364	144.360000
413.904022	144.440000
413.997650	144.300000
414.091309	145.260000
414.184906	145.500000
414.278564	144.940000
414.372192	145.140000
414.465851	145.600000
414.559479	144.940000
414.653107	145.740000
414.746735	145.960000
414.840393	145.860000
414.934021	145.960000
415.027649	145.780000
415.121277	145.320000
415.214935	145.460000
415.308563	145.540000
415.402191	144.800000
415.495850	144.920000
415.589478	144.460000
415.683136	144.160000
415.776733	144.380000
415.870422	145.160000
415.964020	145.020000
416.057678	145.400000
416.151306	145.680000
416.244965	145.480000
416.338562	145.340000
416.432251	145.920000
416.525848	146.660000
416.619507	147.020000
416.713165	147.420000
416.806793	147.160000
416.900421	146.920000
416.994080	146.020000
417.087708	145.560000
417.181366	144.840000
417.274994	145.020000
417.368622	145.280000
417.462280	145.920000
417.555908	145.940000
417.649567	146.040000
417.743195	145.840000
417.836853	145.660000
417.930481	145.420000
418.024170	145.380000
418.117767	145.980000
418.211426	146.400000
418.305054	146.440000
418.398712	146.100000
418.492340	146.200000
418.585999	146.280000
418.679626	146.480000
418.773285	146.500000
418.866913	146.800000
418.960571	147.020000
419.054230	146.820000
419.147858	146.540000
419.241516	146.540000
419.335144	145.900000
419.428802	145.820000
419.522461	145.760000
419.616089	145.560000
419.709747	145.660000
419.803375	146.100000
419.897034	145.980000
419.990662	145.740000
420.084320	146.100000
420.177979	146.520000
420.271606	146.500000
420.365295	146.960000
420.458893	147.080000
420.552582	147.080000
420.646210	146.680000
420.739868	146.820000
420.833496	145.980000
420.927155	145.980000
421.020782	145.740000
421.114471	145.140000
421.208069	144.940000
421.301758	145.340000
421.395386	145.440000
421.489044	145.100000
421.582703	145.460000
421.676361	145.800000
421.769989	145.600000
421.863647	145.800000
421.957306	146.180000
422.050934	146.300000
422.144592	146.200000
422.238251	146.120000
422.331909	145.580000
422.425537	145.440000
422.519196	145.460000
422.612854	145.060000
422.706543	144.940000
422.800140	145.180000
422.893829	144.940000
422.987457	144.640000
423.081146	144.840000
423.174744	145.360000
423.268433	144.940000
423.362061	144.920000
423.455750	144.800000
423.549347	144.940000
423.643036	144.380000
423.736664	145.140000
423.830353	145.060000
423.924011	145.580000
424.017639	144.940000
424.111298	145.140000
424.204956	144.980000
424.298615	145.380000
424.392273	144.900000
424.485931	145.120000
424.579559	145.320000
424.673218	145.080000
424.766876	144.820000
424.860535	144.520000
424.954193	144.600000
425.047882	145.080000
425.141510	145.060000
425.235199	144.700000
425.328796	145.000000
425.422485	145.000000
425.516113	144.300000
425.609802	144.120000
425.703430	144.960000
425.797119	144.640000
425.890747	144.640000
425.984436	145.060000
426.078064	145.380000
426.171753	145.280000
426.265411	145.680000
426.359070	145.940000
426.452728	145.300000
426.546356	145.260000
426.640015	144.840000
426.733673	144.800000
426.827332	144.340000
426.920990	145.280000
427.014648	144.820000
427.108307	145.280000
427.201965	145.860000
427.295624	145.880000
427.389282	145.140000
427.482941	145.640000
427.576630	145.340000
427.670258	144.380000
427.763947	144.420000
427.857574	144.520000
427.951263	144.340000
428.044922	144.240000
428.138611	144.380000
428.232239	144.960000
428.325928	145.460000
428.419556	145.880000
428.513245	146.020000
428.606903	146.640000
428.700562	146.040000
428.794220	145.200000
428.887878	144.640000
428.981537	144.840000
429.075195	144.620000
429.168854	145.180000
429.262512	145.380000
429.356201	145.540000
429.449860	145.020000
429.543518	145.020000
429.637177	145.080000
429.730835	144.940000
429.824493	144.980000
429.918182	145.540000
430.011810	144.980000
430.105530	144.320000
430.199158	144.740000
430.292847	144.500000
430.386475	144.040000
430.480164	144.120000
430.573792	144.020000
430.667511	143.920000
430.761139	144.100000
430.854828	144.780000
430.948456	145.040000
431.042145	145.880000
431.135834	145.640000
431.229492	145.520000
431.323151	145.420000
431.416809	145.120000
431.510468	144.520000
431.604156	144.600000
431.697815	144.920000
431.791473	144.300000
431.885132	144.380000
431.978821	145.000000
432.072479	145.040000
432.166138	145.360000
432.259827	145.480000
432.353485	145.940000
432.447174	145.660000
432.540802	145.680000
432.634491	145.680000
432.728149	146.260000
432.821838	146.380000
432.915466	146.260000
433.009186	146.400000
433.102814	145.680000
433.196503	145.060000
433.290131	145.040000
433.383850	145.100000
433.477509	144.980000
433.571167	146.000000
433.664856	146.680000
433.758514	146.840000
433.852173	146.760000
433.945862	146.820000
434.039520	146.380000
434.133179	145.360000
434.226868	144.940000
434.320526	144.280000
434.414185	144.780000
434.507874	144.340000
434.601562	144.960000
434.695221	144.840000
434.788910	145.480000
434.882538	145.400000
434.976257	145.400000
435.069885	145.160000
435.163574	145.460000
435.257233	145.360000
435.350922	145.020000
435.444580	144.880000
435.538269	145.120000
435.631897	145.380000
435.725616	145.680000
435.819275	146.200000
435.912964	146.820000
436.006622	147.080000
436.100311	146.860000
436.193970	146.260000
436.287628	145.740000
436.381317	145.480000
436.474976	145.180000
436.568665	144.840000
436.662323	145.200000
436.756012	145.320000
436.849670	144.920000
436.943390	144.960000
437.037018	144.980000
437.130737	145.180000
437.224365	144.780000
437.318085	145.120000
437.411713	145.240000
437.505432	145.900000
437.599060	146.420000
437.692780	147.180000
437.786407	147.260000
437.880127	147.100000
437.973755	146.520000
438.067474	145.680000
438.161133	145.240000
438.254822	145.460000
438.348480	145.080000
438.442169	145.780000
438.535828	146.420000
438.629517	146.240000
438.723175	145.500000
438.816864	146.200000
438.910553	145.540000
439.004211	144.900000
439.097900	144.940000
439.191559	145.580000
439.285248	144.820000
439.378906	144.860000
439.472626	144.880000
439.566284	144.720000
439.659973	144.480000
439.753632	144.480000
439.847321	144.900000
439.940979	145.160000
440.034698	145.360000
440.128326	144.860000
440.222046	144.620000
440.315674	144.060000
440.409393	144.020000
440.503082	143.760000
440.596741	144.040000
440.690430	144.640000
440.784088	144.700000
440.877777	144.120000
440.971466	144.420000
441.065125	144.280000
441.158813	144.160000
441.252502	144.020000
441.346161	144.420000
441.439850	144.620000
441.533539	144.780000
441.627197	144.720000
441.720886	144.720000
441.814606	145.240000
441.908234	145.100000
442.001953	145.260000
442.095612	145.500000
442.189301	145.820000
442.282959	145.500000
442.376678	145.160000
442.470306	145.760000
442.564026	145.480000
442.657684	145.460000
442.751404	145.460000
442.845032	146.320000
442.938751	145.480000
443.032440	145.840000
443.126099	145.740000
443.219788	146.100000
443.313477	145.620000
443.407166	146.180000
443.500824	145.960000
443.594513	146.120000
443.688202	145.800000
443.781891	145.620000
443.875549	144.880000
443.969238	144.760000
444.062927	144.540000
444.156647	144.360000
444.250275	144.980000
444.343994	145.480000
444.437653	145.680000
444.531372	145.760000
444.625031	145.960000
444.718719	145.080000
444.812378	144.740000
444.906097	144.640000
444.999756	144.160000
445.093445	144.200000
445.187103	144.460000
445.280823	144.960000
445.374512	144.720000
445.468201	145.180000
445.561859	144.780000
445.655548	144.860000
445.749237	144.100000
445.842926	144.100000
445.936615	144.540000
446.030304	144.520000
446.123962	144.560000
446.217651	144.960000
446.311340	145.360000
446.405029	144.740000
446.498749	144.620000
446.592407	144.460000
446.686096	144.500000
446.779755	144.280000
446.873474	144.380000
446.967133	145.000000
447.060852	144.920000
447.154510	144.840000
447.248230	144.940000
447.341858	145.100000
447.435577	144.400000
447.529236	144.140000
447.622955	144.000000
447.716644	144.160000
447.810333	144.100000
447.904022	144.860000
447.997711	145.100000
448.091400	145.480000
448.185059	145.560000
448.278748	145.680000
448.372437	145.100000
448.466125	145.480000
448.559814	145.140000
448.653503	145.200000
448.747192	145.420000
448.840912	145.960000
448.934570	145.820000
449.028290	146.520000
449.121948	146.140000
449.215637	145.680000
449.309296	145.060000
449.403015	145.180000
449.496674	144.660000
449.590393	144.660000
449.684052	144.400000
449.777771	145.420000
449.871429	144.640000
449.965149	144.580000
450.058838	144.840000
450.152527	145.700000
450.246216	144.980000
450.339905	145.380000
450.433594	145.580000
450.527283	146.160000
450.620972	145.420000
450.714661	145.560000
450.808350	145.740000
450.902039	145.840000
450.995728	145.440000
451.089417	145.400000
451.183105	145.240000
451.276794	145.520000
451.370514	144.900000
451.464172	144.080000
451.557892	144.080000
451.651550	144.160000
451.745270	143.340000
451.838928	143.180000
451.932648	143.820000
452.026306	144.300000
452.120026	144.080000
452.213684	144.860000
452.307404	145.200000
452.401062	145.240000
452.494781	145.320000
452.588470	145.340000
452.682159	144.980000
452.775848	145.140000
452.869537	144.440000
452.963226	144.100000
453.056915	143.940000
453.150604	143.980000
453.244293	144.240000
453.337982	144.960000
453.431671	145.040000
453.525360	145.640000
453.619049	145.660000
453.712769	145.080000
453.806427	144.780000
453.900146	144.560000
453.993805	144.380000
454.087555	144.760000
454.181213	145.180000
454.274933	145.100000
454.368591	145.320000
454.462311	145.080000
454.555969	144.460000
454.649689	145.180000
454.743347	145.120000
454.837067	145.720000
454.930756	146.500000
455.024445	146.760000
455.118134	146.080000
455.211853	146.380000
455.305542	145.540000
455.399231	144.840000
455.492920	145.060000
455.586609	144.840000
455.680298	144.660000
455.773987	144.540000
455.867676	144.720000
455.961365	144.620000
456.055084	144.600000
456.148773	144.500000
456.242493	144.760000
456.336151	144.560000
456.429871	144.780000
456.523529	145.400000
456.617249	145.380000
456.710907	145.860000
456.804626	145.660000
456.898315	145.320000
456.992035	145.060000
457.085693	144.800000
457.179413	144.220000
457.273102	145.280000
457.366791	145.200000
457.460480	145.360000
457.554199	146.320000
457.647888	146.320000
457.741577	145.620000
457.835266	145.680000
457.928955	145.500000
458.022644	145.380000
458.116364	145.580000
458.210052	145.420000
458.303741	145.760000
458.397461	145.140000
458.491119	144.520000
458.584839	144.620000
458.678528	144.400000
458.772247	144.120000
458.865906	144.700000
458.959625	145.640000
459.053284	145.560000
459.147003	145.720000
459.240692	146.300000
459.334412	146.000000
459.428070	145.460000
459.521790	145.220000
459.615479	145.280000
459.709198	145.600000
459.802887	145.520000
459.896576	145.100000
459.990265	145.740000
460.083954	146.000000
460.177673	144.960000
460.271362	145.220000
460.365051	145.280000
460.458740	144.620000
460.552429	144.380000
460.646149	144.440000
460.739838	144.100000
460.833527	144.500000
460.927246	144.460000
461.020905	144.320000
461.114655	144.340000
461.208313	144.540000
461.302032	143.940000
461.395691	144.200000
461.489441	144.140000
461.583099	143.860000
461.676819	143.940000
461.770477	144.280000
461.864197	144.060000
461.957916	143.960000
462.051605	143.800000
462.145294	144.480000
462.238983	144.460000
462.332703	144.980000
462.426392	145.700000
462.520081	146.160000
462.613770	145.540000
462.707489	146.000000
462.801178	145.780000
462.894867	145.400000
462.988556	145.260000
463.082275	145.560000
463.175964	144.840000
463.269684	145.040000
463.363342	144.760000
463.457092	144.360000
463.550751	144.420000
463.644470	144.980000
463.738129	144.660000
463.831879	144.820000
463.925537	145.720000
464.019257	145.640000
464.112946	145.120000
464.206665	145.340000
464.300323	145.240000
464.394043	144.720000
464.487762	144.380000
464.581451	144.800000
464.675140	144.500000
464.768829	145.100000
464.862549	145.100000
464.956238	145.420000
465.049927	145.500000
465.143646	145.680000
465.237335	145.160000
465.331024	145.880000
465.424713	145.680000
465.518433	145.480000
465.612152	145.260000
465.705811	145.480000
465.799561	145.100000
465.893219	145.240000
465.986938	145.400000
466.080597	145.620000
466.174347	145.960000
466.268005	145.920000
466.361725	145.640000
466.455414	145.640000
466.549133	145.500000
466.642792	145.180000
466.736542	144.880000
466.830231	145.080000
466.923920	145.000000
467.017609	145.220000
467.111328	144.900000
467.205017	145.020000
467.298706	144.760000
467.392426	144.900000
467.486115	144.960000
467.579803	145.140000
467.673523	145.620000
467.767212	145.800000
467.860901	145.800000
467.954651	145.680000
468.048309	145.740000
468.142029	145.260000
468.235718	145.200000
468.329437	144.520000
468.423096	144.700000
468.516846	144.520000
468.610504	144.400000
468.704224	144.160000
468.797913	144.200000
468.891632	144.300000
468.985291	144.360000
469.079010	144.600000
469.172729	144.300000
469.266418	145.060000
469.360107	144.700000
469.453827	144.660000
469.547516	144.840000
469.641205	145.600000
469.734924	145.700000
469.828613	146.140000
469.922302	146.560000
470.016022	146.200000
470.109711	145.860000
470.203430	145.180000
470.297150	144.240000
470.390808	144.460000
470.484558	144.500000
470.578217	145.080000
470.671936	145.860000
470.765625	146.740000
470.859344	146.180000
470.953003	146.600000
471.046753	146.140000
471.140411	145.240000
471.234131	145.200000
471.327820	145.580000
471.421539	145.260000
471.515228	145.200000
471.608948	145.520000
471.702637	145.120000
471.796326	144.700000
471.890045	144.960000
471.983734	145.180000
472.077423	145.180000
472.171143	145.080000
472.264832	145.040000
472.358521	144.480000
472.452240	143.980000
472.545929	144.420000
472.639648	144.840000
472.733337	145.260000
472.827057	145.480000
472.920746	145.840000
473.014465	145.880000
473.108124	145.940000
473.201874	145.600000
473.295532	145.580000
473.389252	146.000000
473.482941	146.000000
473.576660	145.440000
473.670319	145.440000
473.764069	145.780000
473.857727	145.640000
473.951477	145.580000
474.045166	146.440000
474.138855	146.380000
474.232574	146.220000
474.326263	146.180000
474.419952	146.240000
474.513672	145.800000
474.607361	146.000000
474.701050	146.140000
474.794769	146.040000
474.888458	145.940000
474.982178	145.940000
475.075867	145.740000
475.169586	145.520000
475.263275	145.400000
475.356995	145.420000
475.450653	145.220000
475.544403	145.000000
475.638062	145.800000
475.731812	145.480000
475.825470	145.360000
475.919189	145.440000
476.012878	145.800000
476.106598	144.840000
476.200256	145.220000
476.294006	144.960000
476.387695	144.920000
476.481384	144.880000
476.575104	145.160000
476.668793	144.900000
476.762512	144.460000
476.856201	145.100000
476.949890	144.780000
477.043610	144.080000
477.137299	144.280000
477.230988	144.800000
477.324707	144.000000
477.418396	144.300000
477.512146	144.720000
477.605804	144.380000
477.699524	144.420000
477.793213	144.540000
477.886932	144.480000
477.980591	144.240000
478.074341	144.560000
478.167999	144.080000
478.261749	144.360000
478.355408	144.260000
478.449127	145.020000
478.542816	145.860000
478.636536	146.760000
478.730225	146.700000
478.823944	146.960000
478.917633	146.420000
479.011322	146.200000
479.105042	146.000000
479.198730	146.220000
479.292450	146.020000
479.386139	146.560000
479.479828	146.480000
479.573547	146.540000
479.667267	146.220000
479.760925	146.320000
479.854675	146.000000
479.948334	145.660000
480.042084	145.120000
480.135742	145.520000
480.229462	145.160000
480.323151	145.320000
480.416870	144.780000
480.510529	145.000000
480.604279	144.220000
480.697937	144.660000
480.791656	144.000000
480.885345	143.900000
480.979065	143.760000
481.072754	144.660000
481.166473	145.060000
481.260132	145.500000
481.353882	145.740000
481.447540	145.940000
481.541260	145.520000
481.635010	144.860000
481.728668	144.740000
481.822388	144.940000
481.916077	144.900000
482.009796	144.740000
482.103485	145.120000
482.197205	145.160000
482.290863	144.900000
482.384613	144.660000
482.478271	144.560000
482.571991	144.420000
482.665680	144.600000
482.759399	145.520000
482.853058	145.960000
482.946808	145.960000
483.040466	145.920000
483.134216	145.680000
483.227875	144.940000
483.321594	145.160000
483.415283	145.300000
483.509003	144.900000
483.602661	144.740000
483.696411	144.980000
483.790070	144.320000
483.883789	144.220000
483.977478	144.780000
484.071198	145.100000
484.164917	144.880000
484.258606	144.900000
484.352325	145.120000
484.445984	145.080000
484.539734	145.060000
484.633392	144.620000
484.727142	145.020000
484.820801	144.700000
484.914520	144.440000
485.008209	144.660000
485.101929	145.380000
485.195587	145.020000
485.289337	145.180000
485.382996	145.280000
485.476715	145.100000
485.570404	145.420000
485.664124	145.460000
485.757782	145.800000
485.851532	146.000000
485.945190	145.640000
486.038910	145.240000
486.132599	145.980000
486.226318	145.320000
486.319977	144.860000
486.413727	145.440000
486.507446	145.000000
486.601105	144.300000
486.694855	144.380000
486.788513	144.360000
486.882233	143.800000
486.975922	144.000000
487.069641	144.000000
487.163300	143.800000
487.257050	145.080000
487.350708	145.000000
487.444427	144.780000
487.538116	144.940000
487.631836	145.060000
487.725494	144.200000
487.819214	144.500000
487.912903	144.440000
488.006622	144.460000
488.100281	144.800000
488.194031	144.600000
488.287689	144.980000
488.381409	146.000000
488.475098	146.060000
488.568817	146.100000
488.662476	146.020000
488.756226	145.340000
488.849945	144.300000
488.943604	144.060000
489.037354	143.940000
489.131012	143.780000
489.224731	143.880000
489.318390	144.240000
489.412140	144.480000
489.505798	144.700000
489.599518	144.940000
489.693207	145.340000
489.786926	145.200000
489.880585	145.000000
489.974335	144.880000
490.067993	145.720000
490.161713	145.840000
490.255371	146.340000
490.349121	146.460000
490.442780	146.340000
490.536499	145.140000
490.630188	144.980000
490.723907	144.340000
490.817566	144.360000
490.911285	144.320000
491.004974	144.680000
491.098694	144.300000
491.192413	145.180000
491.286102	144.840000
491.379822	144.960000
491.473480	145.220000
491.567200	145.200000
491.660889	144.500000
491.754608	144.640000
491.848267	144.660000
491.941986	144.380000
492.035675	144.460000
492.129395	144.600000
492.223053	144.520000
492.316772	144.420000
492.410461	144.540000
492.504181	144.720000
492.597839	144.800000
492.691559	145.020000
492.785248	145.200000
492.878967	145.440000
492.972626	145.260000
493.066345	145.220000
493.160034	145.000000
493.253754	144.780000
493.347412	144.180000
493.441132	144.700000
493.534882	144.800000
493.628540	145.220000
493.722260	145.540000
493.815918	146.000000
493.909668	145.900000
494.003326	146.540000
494.097046	146.300000
494.190704	145.760000
494.284454	145.780000
494.378113	145.700000
494.471832	144.940000
494.565491	144.860000
494.659210	145.600000
494.752899	145.680000
494.846619	145.420000
494.940277	145.660000
495.033997	145.880000
495.127686	145.260000
495.221405	144.900000
495.315063	145.120000
495.408783	145.340000
495.502441	145.360000
495.596191	145.500000
495.689850	145.460000
495.783569	145.740000
495.877228	145.260000
495.970947	144.800000
496.064697	144.920000
496.158356	145.920000
496.252075	145.560000
496.345734	145.380000
496.439453	146.240000
496.533142	146.240000
496.626862	145.820000
496.720520	145.980000
496.814240	146.420000
496.907898	145.920000
497.001617	146.160000
497.095306	145.700000
497.189026	145.500000
497.282684	145.500000
497.376404	145.600000
497.470062	145.060000
497.563782	144.980000
497.657471	145.080000
497.751190	145.000000
497.844849	145.020000
497.938568	145.780000
498.032227	145.860000
498.125946	145.600000
498.219635	145.140000
498.313354	145.040000
498.407074	144.460000
498.500732	144.760000
498.594452	145.340000
498.688110	145.260000
498.781830	144.980000
498.875519	145.100000
498.969238	144.760000
499.062897	144.600000
499.156616	145.280000
499.250275	145.500000
499.343994	144.840000
499.437653	144.960000
499.531372	145.080000
499.625061	145.540000
499.718781	145.600000
499.812439	146.420000
499.906158	146.360000
499.999817	146.160000
500.093536	145.520000
500.187195	145.940000
500.280914	145.600000
500.374573	145.920000
500.468323	145.540000
500.561981	145.660000
500.655701	144.740000
500.749420	145.000000
500.843079	145.040000
500.936798	145.240000
501.030457	145.500000
501.124176	145.980000
501.217834	145.700000
501.311554	145.540000
501.405212	145.680000
501.498962	145.060000
501.592621	145.180000
501.686340	145.680000
501.779999	145.500000
501.873718	145.520000
501.967377	145.860000
502.061096	145.980000
502.154755	145.520000
502.248474	145.620000
502.342133	145.540000
502.435852	145.420000
502.529510	145.880000
502.623230	146.400000
502.716888	146.040000
502.810608	146.040000
502.904266	146.520000
502.997986	145.700000
503.091705	145.100000
503.185364	145.220000
503.279083	145.340000
503.372772	144.740000
503.466492	144.540000
503.560150	145.140000
503.653870	145.340000
503.747528	145.160000
503.841248	145.240000
503.934906	145.760000
504.028625	144.980000
504.122284	145.120000
504.216003	145.580000
504.309662	145.320000
504.403381	145.360000
504.497040	145.660000
504.590759	145.100000
504.684418	145.080000
504.778137	145.580000
504.871796	145.720000
504.965515	145.640000
505.059174	146.060000
505.152893	145.520000
505.246521	144.980000
505.340240	144.500000
505.433899	144.640000
505.527618	145.080000
505.621338	145.640000
505.714996	145.300000
505.808716	145.300000
505.902374	145.860000
505.996094	145.660000
506.089752	145.100000
506.183472	145.700000
506.277130	145.800000
506.370850	145.300000
506.464508	144.920000
506.558228	144.920000
506.651886	144.700000
506.745605	144.800000
506.839264	144.800000
506.932983	145.200000
507.026611	145.340000
507.120331	145.660000
507.213989	145.020000
507.307709	144.820000
507.401367	144.720000
507.495087	145.680000
507.588745	145.080000
507.682465	146.220000
507.776123	146.260000
507.869843	146.080000
507.963531	145.300000
508.057190	146.220000
508.150909	145.540000
508.244568	145.720000
508.338287	145.660000
508.431946	145.360000
508.525665	144.920000
508.619324	144.800000
508.713013	144.740000
508.806671	144.960000
508.900391	145.900000
508.994049	145.660000
509.087769	145.580000
509.181427	145.680000
509.275146	145.300000
509.368774	144.460000
509.462494	144.700000
509.556152	144.620000
509.649872	144.760000
509.743530	145.260000
509.837250	145.380000
509.930878	145.160000
510.024597	145.400000
510.118256	144.980000
510.211975	144.680000
510.305695	144.340000
510.399353	144.860000
510.493042	145.160000
510.586700	145.540000
510.680420	146.180000
510.774078	146.120000
510.867798	146.320000
510.961426	145.780000
511.055145	145.700000
511.148804	145.120000
511.242523	145.820000
511.336151	145.240000
511.429871	145.820000
511.523529	145.740000
511.617249	145.320000
511.710876	145.000000
511.804596	144.660000
511.898254	144.420000
511.991974	144.440000
512.085632	144.720000
512.179321	144.580000
512.272949	145.180000
512.366699	145.380000
512.460327	145.320000
512.554077	146.400000
512.647766	146.760000
512.741394	146.500000
512.835144	146.920000
512.928772	146.820000
513.022461	146.240000
513.116150	145.740000
513.209839	146.320000
513.303467	145.380000
513.397217	145.160000
513.490845	144.860000
513.584595	144.880000
513.678223	144.220000
513.771912	144.140000
513.865601	144.560000
513.959290	144.360000
514.052917	144.660000
514.146667	145.600000
514.240295	146.000000
514.333984	145.820000
514.427673	145.740000
514.521362	146.020000
514.614990	144.940000
514.708740	145.040000
514.802368	145.320000
514.896057	145.440000
514.989746	145.800000
515.083435	146.260000
515.177124	146.280000
515.270752	146.040000
515.364502	146.120000
515.458130	145.800000
515.551819	145.300000
515.645508	145.100000
515.739197	145.260000
515.832825	145.160000
515.926575	144.580000
516.020203	145.180000
516.113892	145.600000
516.207520	145.480000
516.301270	145.640000
516.394897	146.060000
516.488586	146.200000
516.582275	145.880000
516.675964	145.160000
516.769592	145.260000
516.863281	145.780000
516.956970	146.200000
517.050659	146.300000
517.144287	146.700000
517.238037	146.480000
517.331665	145.800000
517.425354	144.920000
517.519043	144.540000
517.612732	145.140000
517.706421	145.300000
517.800049	145.060000
517.893738	145.080000
517.987427	145.100000
518.081116	144.580000
518.174744	144.100000
518.268433	144.440000
518.362122	145.080000
518.455811	145.200000
518.549438	145.720000
518.643127	146.760000
518.736816	146.660000
518.830505	145.780000
518.924133	145.620000
519.017822	145.780000
519.111511	145.340000
519.205200	145.740000
519.298828	146.020000
519.392517	146.120000
519.486206	145.960000
519.579895	146.020000
519.673523	145.260000
519.767212	145.160000
519.860901	145.640000
519.954590	145.220000
520.048279	144.540000
520.141907	144.900000
520.235596	145.700000
520.329224	145.580000
520.422974	145.960000
520.516602	146.260000
520.610291	145.980000
520.703918	145.800000
520.797607	145.680000
520.891296	145.560000
520.984985	145.700000
521.078613	146.440000
521.172302	145.720000
521.265930	146.380000
521.359680	146.860000
521.453308	146.660000
521.546997	146.640000
521.640625	146.980000
521.734314	146.160000
521.827942	145.960000
521.921692	146.480000
522.015320	146.180000
522.109009	146.280000
522.202698	146.260000
522.296326	145.900000
522.390015	145.820000
522.483704	146.000000
522.577393	145.480000
522.671021	145.700000
522.764709	145.400000
522.858337	145.580000
522.952026	145.580000
523.045654	146.440000
523.139404	146.800000
523.233032	147.200000
523.326721	146.780000
523.420349	146.480000
523.514038	145.980000
523.607666	146.060000
523.701355	145.940000
523.795044	145.880000
523.888733	146.180000
523.982361	146.440000
524.076050	145.940000
524.169678	146.560000
524.263367	146.360000
524.356995	145.900000
524.450684	145.740000
524.544373	145.480000
524.638062	144.840000
524.731750	145.480000
524.825378	145.440000
524.919067	144.940000
525.012695	145.200000
525.106384	145.080000
525.200012	144.900000
525.293701	144.740000
525.387329	145.120000
525.481018	145.220000
525.574646	145.500000
525.668396	145.340000
525.762024	145.900000
525.855713	146.180000
525.949341	145.640000
526.043030	145.680000
526.136658	145.540000
526.230347	145.160000
526.323975	144.900000
526.417664	145.100000
526.511292	144.880000
526.604980	145.180000
526.698608	145.200000
526.792297	145.240000
526.885925	145.520000
526.979614	145.640000
527.073303	145.460000
527.166931	145.740000
527.260620	145.900000
527.354309	146.300000
527.447998	146.240000
527.541626	145.920000
527.635315	145.760000
527.728943	146.080000
527.822632	145.900000
527.916260	146.040000
528.009949	146.600000
528.103577	146.260000
528.197266	145.640000
528.290894	145.420000
528.384583	145.320000
528.478210	145.000000
528.571899	145.320000
528.665527	145.660000
528.759216	145.820000
528.852844	146.060000
528.946533	146.160000
529.040161	146.340000
529.133850	145.840000
529.227478	146.140000
529.321167	146.080000
529.414856	146.360000
529.508484	146.740000
529.602173	146.900000
529.695801	146.420000
529.789490	146.120000
529.883057	146.080000
529.976746	146.020000
530.070374	146.440000
530.164062	146.500000
530.257690	146.880000
530.351379	147.040000
530.445007	146.540000
530.538696	145.780000
530.632324	146.300000
530.726013	146.040000
530.819641	145.800000
530.913330	145.900000
531.006958	146.040000
531.100647	145.740000
531.194275	145.800000
531.287964	145.420000
531.381592	145.320000
531.475220	145.920000
531.568848	145.600000
531.662537	145.260000
531.756226	145.720000
531.849854	145.620000
531.943542	145.280000
532.037170	144.920000
532.130859	145.460000
532.224487	145.120000
532.318176	144.880000
532.411804	145.320000
532.505432	146.020000
532.599060	145.780000
532.692749	145.700000
532.786377	146.520000
532.880066	145.760000
532.973694	145.040000
533.067383	144.820000
533.161011	144.960000
533.254639	144.300000
533.348267	144.460000
533.441956	144.980000
533.535583	144.760000
533.629272	144.660000
533.722900	144.300000
533.816589	144.120000
533.910156	144.220000
534.003845	143.980000
534.097534	144.480000
534.191162	145.600000
534.284851	145.880000
534.378479	145.640000
534.472107	146.320000
534.565735	146.000000
534.659424	145.820000
534.753052	146.060000
534.846741	145.800000
534.940369	146.100000
535.033997	146.000000
535.127625	145.800000
535.221313	146.160000
535.314941	146.380000
535.408630	145.920000
535.502197	146.340000
535.595886	146.000000
535.689514	145.160000
535.783203	145.480000
535.876831	145.860000
535.970459	145.660000
536.064087	145.540000
536.157776	146.080000
536.251404	145.960000
536.345093	145.380000
536.438721	145.240000
536.532349	145.740000
536.626038	145.420000
536.719666	145.540000
536.813293	145.700000
536.906921	145.620000
537.000610	145.800000
537.094238	145.600000
537.187866	145.280000
537.281494	145.020000
537.375183	145.200000
537.468811	144.740000
537.562439	145.040000
537.656067	145.240000
537.749756	145.380000
537.843384	145.720000
537.937012	145.840000
538.030640	145.380000
538.124329	145.260000
538.217896	145.960000
538.311584	145.660000
538.405212	145.840000
538.498901	146.400000
538.592468	147.040000
538.686157	146.280000
538.779785	145.660000
538.873413	145.280000
538.967102	144.800000
539.060730	144.060000
539.154358	144.740000
539.247986	145.380000
539.341675	145.460000
539.435242	145.460000
539.528931	145.700000
539.622559	145.040000
539.716187	145.320000
539.809814	145.280000
539.903503	145.480000
539.997070	145.320000
540.090759	145.700000
540.184387	145.300000
540.278015	145.720000
540.371643	146.000000
540.465332	146.040000
540.558899	145.780000
540.652588	145.900000
540.746216	145.660000
540.839844	145.780000
540.933472	146.080000
541.027100	146.140000
541.120728	146.200000
541.214417	146.460000
541.308044	146.660000
541.401672	146.600000
541.495300	146.380000
541.588928	146.300000
541.682617	145.780000
541.776184	145.420000
541.869873	145.440000
541.963440	145.840000
542.057129	145.900000
542.150757	146.160000
542.244385	145.740000
542.338013	145.340000
542.431641	145.240000
542.525269	145.000000
542.618958	145.720000
542.712524	146.120000
542.806213	145.920000
542.899780	146.020000
542.993469	145.860000
543.087036	145.060000
543.180725	144.660000
543.274292	145.040000
543.367981	144.980000
543.461548	145.340000
543.555237	145.240000
543.648926	145.700000
543.742493	146.700000
543.836182	146.680000
543.929749	146.740000
544.023437	147.060000
544.117004	146.960000
544.210693	146.540000
544.304260	146.720000
544.397949	146.200000
544.491516	146.460000
544.585205	146.580000
544.678772	145.940000
544.772461	146.120000
544.866028	146.580000
544.959717	146.700000
545.053284	146.120000
545.146973	146.480000
545.240540	146.500000
545.334229	146.680000
545.427795	146.520000
545.521423	147.120000
545.615051	146.880000
545.708679	147.280000
545.802307	147.320000
545.895935	147.460000
545.989624	148.080000
546.083191	147.800000
546.176880	147.340000
546.270447	146.920000
546.364136	147.360000
546.457703	146.440000
546.551331	146.560000
546.644958	146.520000
546.738586	146.720000
546.832214	145.600000
546.925842	145.980000
547.019409	146.280000
547.113098	145.800000
547.206665	145.380000
547.300354	145.640000
547.393921	145.660000
547.487549	145.620000
547.581177	145.840000
547.674805	146.240000
547.768433	145.780000
547.862061	145.660000
547.955627	145.140000
548.049316	145.320000
548.142883	145.520000
548.236572	146.420000
548.330139	146.700000
548.423767	146.580000
548.517456	146.500000
548.611023	146.200000
548.704651	145.280000
548.798279	144.940000
548.891907	145.760000
548.985474	145.780000
549.079163	145.980000
549.172729	145.900000
549.266357	145.340000
549.359985	145.280000
549.453613	144.700000
549.547180	144.320000
549.640869	145.000000
549.734436	145.400000
549.828064	145.400000
549.921631	145.780000
550.015320	145.380000
550.108887	145.440000
550.202515	145.360000
550.296143	144.900000
550.389771	144.620000
550.483337	145.180000
550.576965	144.860000
550.670593	145.280000
550.764221	145.520000
550.857849	145.740000
550.951477	145.220000
551.045105	144.720000
551.138672	144.560000
551.232300	144.080000
551.325928	144.260000
551.419556	144.700000
551.513123	145.080000
551.606750	144.920000
551.700378	145.180000
551.794006	145.060000
551.887573	145.160000
551.981201	145.420000
552.074768	145.220000
552.168457	145.140000
552.262024	145.940000
552.355652	145.560000
552.449219	145.860000
552.542847	146.080000
552.636475	145.940000
552.730103	144.880000
552.823669	144.880000
552.917297	144.160000
553.010864	144.320000
553.104553	144.500000
553.198181	144.340000
553.291748	144.860000
553.385376	145.220000
553.478943	145.160000
553.572571	145.520000
553.666199	146.000000
553.759827	145.460000
553.853394	145.100000
553.947021	145.080000
554.040588	144.900000
554.134216	144.980000
554.227783	145.840000
554.321411	146.800000
554.415039	146.220000
554.508667	146.120000
554.602234	146.280000
554.695862	145.660000
554.789429	145.160000
554.883057	145.520000
554.976624	145.560000
555.070251	145.320000
555.163818	145.480000
555.257507	145.460000
555.351074	145.520000
555.444702	146.460000
555.538330	146.000000
555.631897	146.000000
555.725525	145.620000
555.819092	145.580000
555.912720	144.400000
556.006287	145.000000
556.099915	144.820000
556.193481	145.020000
556.287109	145.200000
556.380676	145.380000
556.474304	145.500000
556.567871	146.020000
556.661499	145.940000
556.755066	145.940000
556.848694	145.640000
556.942261	145.360000
557.035889	145.140000
557.129517	145.260000
557.223145	145.700000
557.316711	146.100000
557.410339	146.440000
557.503906	146.200000
557.597473	146.360000
557.691040	145.500000
557.784668	145.500000
557.878296	145.120000
557.971863	145.400000
558.065491	145.300000
558.159058	145.260000
558.252686	146.000000
558.346252	146.840000
558.439880	146.480000
558.533447	146.200000
558.627075	146.320000
558.720642	145.520000
558.814270	144.800000
558.907837	144.840000
559.001465	144.640000
559.095032	145.360000
559.188660	145.560000
559.282227	145.380000
559.375854	145.660000
559.469360	145.760000
559.562988	145.840000
559.656555	145.680000
559.750183	146.020000
559.843750	146.000000
559.937378	146.320000
560.030945	145.980000
560.124573	0.000000
560.218140	0.000000
560.311707	0.000000
560.405334	0.000000
560.498901	0.000000
560.592529	0.000000
560.686096	0.000000
560.779724	0.000000
560.873291	0.000000
560.966858	0.000000
561.060425	0.000000
561.154053	0.000000
561.247620	0.000000
561.341248	0.000000
561.434814	0.000000
561.528381	0.000000
561.621948	0.000000
561.715576	0.000000
561.809143	0.000000
561.902771	0.000000
561.996277	0.000000
562.089905	0.000000
562.183472	0.000000
562.277100	0.000000
