Model Number: SPM-002-B   
Serial Number: 70087108
Firmware Version: 004.15.4
Exposure Time: 100000.000000us
Data Taken on: 11-12-2020 19:32:16.887
Wavelength	Amplitude
221.570786	0.000000
221.663406	0.000000
221.756027	0.000000
221.848648	0.000000
221.941269	0.000000
222.033905	0.000000
222.126526	0.000000
222.219162	0.000000
222.311798	0.000000
222.404419	0.000000
222.497055	0.000000
222.589676	0.000000
222.682312	0.000000
222.774933	0.000000
222.867569	0.000000
222.960205	0.000000
223.052841	0.000000
223.145462	0.000000
223.238098	0.000000
223.330734	0.000000
223.423386	0.000000
223.516022	0.000000
223.608658	0.000000
223.701309	0.000000
223.793945	0.000000
223.886581	0.000000
223.979218	0.000000
224.071869	0.000000
224.164505	0.000000
224.257156	0.000000
224.349792	0.000000
224.442444	0.000000
224.535095	0.000000
224.627747	0.000000
224.720398	0.000000
224.813034	0.000000
224.905685	0.000000
224.998337	144.880000
225.090988	144.980000
225.183640	144.820000
225.276291	144.600000
225.368942	145.040000
225.461594	145.740000
225.554245	145.740000
225.646912	145.600000
225.739578	145.900000
225.832230	146.320000
225.924896	145.420000
226.017548	145.960000
226.110199	146.680000
226.202866	146.180000
226.295532	145.900000
226.388184	146.060000
226.480850	145.560000
226.573517	145.060000
226.666168	145.440000
226.758835	145.620000
226.851501	146.000000
226.944183	145.860000
227.036850	145.320000
227.129517	145.320000
227.222183	145.400000
227.314850	145.480000
227.407516	145.860000
227.500198	146.900000
227.592865	146.280000
227.685532	145.800000
227.778214	145.700000
227.870880	145.900000
227.963562	146.000000
228.056229	146.660000
228.148926	146.580000
228.241592	147.140000
228.334274	146.940000
228.426956	146.440000
228.519638	146.460000
228.612305	146.520000
228.704987	146.120000
228.797668	146.020000
228.890350	145.720000
228.983032	145.120000
229.075714	145.620000
229.168396	145.620000
229.261108	145.280000
229.353790	145.580000
229.446472	146.160000
229.539169	145.820000
229.631851	145.420000
229.724533	145.660000
229.817230	145.860000
229.909912	146.440000
230.002609	146.580000
230.095306	146.640000
230.187988	146.580000
230.280685	146.400000
230.373383	145.360000
230.466095	144.980000
230.558792	145.340000
230.651474	145.380000
230.744171	145.460000
230.836868	145.580000
230.929581	146.020000
231.022278	146.000000
231.114975	146.080000
231.207672	145.880000
231.300369	146.280000
231.393082	146.380000
231.485779	145.920000
231.578506	145.520000
231.671204	145.560000
231.763916	145.320000
231.856613	145.000000
231.949326	145.580000
232.042023	145.520000
232.134735	145.260000
232.227448	145.320000
232.320160	145.520000
232.412872	145.040000
232.505585	145.980000
232.598297	146.520000
232.691010	146.060000
232.783722	145.740000
232.876450	146.520000
232.969162	146.000000
233.061874	145.660000
233.154587	145.640000
233.247314	145.800000
233.340027	144.960000
233.432739	145.420000
233.525467	145.340000
233.618179	145.860000
233.710907	145.420000
233.803635	146.220000
233.896347	145.680000
233.989090	146.420000
234.081818	146.240000
234.174545	146.800000
234.267258	146.120000
234.359985	146.260000
234.452713	145.820000
234.545441	145.540000
234.638168	145.320000
234.730896	145.760000
234.823639	145.720000
234.916367	145.980000
235.009094	146.360000
235.101822	146.400000
235.194580	146.000000
235.287308	146.060000
235.380051	145.820000
235.472778	145.820000
235.565521	146.440000
235.658249	146.480000
235.750992	146.640000
235.843719	146.560000
235.936462	146.800000
236.029205	145.960000
236.121948	145.540000
236.214691	145.440000
236.307449	145.940000
236.400192	145.500000
236.492935	145.480000
236.585678	146.140000
236.678421	146.140000
236.771164	145.900000
236.863907	146.460000
236.956665	146.820000
237.049408	148.080000
237.142151	147.620000
237.234909	147.780000
237.327652	147.640000
237.420410	147.380000
237.513153	146.320000
237.605927	146.360000
237.698669	145.840000
237.791428	145.200000
237.884186	145.740000
237.976944	145.160000
238.069702	145.580000
238.162445	145.260000
238.255203	145.560000
238.347961	145.380000
238.440720	145.240000
238.533478	144.880000
238.626266	144.940000
238.719025	144.900000
238.811783	144.520000
238.904541	144.720000
238.997314	144.600000
239.090073	144.520000
239.182831	144.920000
239.275604	145.800000
239.368362	145.640000
239.461136	146.100000
239.553909	146.340000
239.646667	146.040000
239.739441	145.480000
239.832214	145.940000
239.925003	145.920000
240.017761	146.460000
240.110535	147.000000
240.203308	146.760000
240.296082	146.880000
240.388855	146.720000
240.481628	146.520000
240.574417	146.180000
240.667191	146.300000
240.759964	145.600000
240.852737	145.740000
240.945526	145.120000
241.038315	145.000000
241.131088	145.160000
241.223877	145.480000
241.316650	144.780000
241.409439	145.780000
241.502228	145.540000
241.595001	145.860000
241.687790	145.740000
241.780579	146.340000
241.873367	146.100000
241.966141	146.180000
242.058929	145.440000
242.151718	145.720000
242.244507	146.180000
242.337311	145.440000
242.430099	146.060000
242.522903	146.460000
242.615692	146.160000
242.708481	145.900000
242.801270	146.540000
242.894073	146.300000
242.986862	146.260000
243.079651	146.900000
243.172455	146.320000
243.265244	145.940000
243.358063	145.420000
243.450867	145.980000
243.543655	145.620000
243.636459	146.080000
243.729263	146.600000
243.822067	147.000000
243.914856	146.940000
244.007660	147.080000
244.100464	147.000000
244.193268	146.500000
244.286072	146.440000
244.378876	145.840000
244.471680	145.420000
244.564499	145.320000
244.657318	145.900000
244.750122	146.060000
244.842926	145.560000
244.935745	146.160000
245.028549	145.980000
245.121368	145.460000
245.214172	145.240000
245.306992	146.060000
245.399796	145.600000
245.492615	145.780000
245.585434	145.840000
245.678253	145.940000
245.771072	145.680000
245.863892	145.840000
245.956711	146.020000
246.049530	145.860000
246.142349	145.520000
246.235168	145.700000
246.327988	146.260000
246.420807	146.160000
246.513626	146.380000
246.606445	146.520000
246.699280	146.500000
246.792099	146.060000
246.884918	145.660000
246.977753	145.280000
247.070587	145.480000
247.163422	145.300000
247.256241	145.500000
247.349075	146.080000
247.441895	146.480000
247.534729	146.380000
247.627563	146.220000
247.720383	146.540000
247.813217	146.440000
247.906052	146.300000
247.998886	146.320000
248.091736	146.420000
248.184570	145.680000
248.277405	145.620000
248.370239	146.580000
248.463074	147.200000
248.555908	147.500000
248.648743	147.480000
248.741592	147.600000
248.834427	146.560000
248.927261	145.440000
249.020111	145.360000
249.112946	146.100000
249.205795	145.640000
249.298630	145.620000
249.391495	145.680000
249.484344	145.420000
249.577179	144.880000
249.670029	145.440000
249.762878	146.200000
249.855728	146.400000
249.948563	146.420000
250.041412	146.160000
250.134262	145.900000
250.227112	145.860000
250.319962	145.900000
250.412827	145.960000
250.505692	145.520000
250.598541	145.500000
250.691391	145.040000
250.784241	145.300000
250.877106	145.440000
250.969955	145.660000
251.062805	146.020000
251.155670	146.400000
251.248520	146.400000
251.341385	146.540000
251.434235	146.820000
251.527100	146.500000
251.619965	146.040000
251.712814	146.460000
251.805695	146.220000
251.898560	146.040000
251.991425	146.300000
252.084290	146.600000
252.177155	145.800000
252.270020	145.740000
252.362885	145.840000
252.455750	145.660000
252.548615	145.000000
252.641479	145.340000
252.734360	145.360000
252.827240	145.200000
252.920105	145.220000
253.012970	145.640000
253.105850	145.380000
253.198715	144.980000
253.291595	145.060000
253.384460	144.880000
253.477341	144.640000
253.570221	144.860000
253.663086	144.720000
253.755966	145.480000
253.848846	145.360000
253.941727	145.760000
254.034592	145.500000
254.127472	145.260000
254.220367	145.280000
254.313248	145.700000
254.406128	144.980000
254.499008	145.500000
254.591904	146.500000
254.684784	146.660000
254.777664	146.460000
254.870544	146.400000
254.963440	146.280000
255.056335	146.160000
255.149216	145.400000
255.242111	145.940000
255.334991	146.740000
255.427887	146.560000
255.520767	146.520000
255.613663	146.980000
255.706558	146.100000
255.799438	145.600000
255.892334	145.340000
255.985229	145.480000
256.078125	145.040000
256.171021	145.480000
256.263916	145.900000
256.356812	146.440000
256.449707	146.520000
256.542603	146.320000
256.635498	146.620000
256.728394	146.500000
256.821289	146.080000
256.914215	146.000000
257.007080	146.260000
257.100006	146.240000
257.192932	146.740000
257.285828	146.980000
257.378723	146.540000
257.471619	146.360000
257.564545	145.940000
257.657440	145.540000
257.750336	145.960000
257.843262	145.960000
257.936157	147.100000
258.029053	147.400000
258.121979	147.420000
258.214874	146.980000
258.307800	147.060000
258.400696	146.020000
258.493622	145.920000
258.586517	145.340000
258.679443	145.640000
258.772339	145.100000
258.865265	145.040000
258.958160	144.600000
259.051086	145.620000
259.144012	145.340000
259.236938	146.300000
259.329834	146.360000
259.422791	146.100000
259.515717	145.320000
259.608612	145.260000
259.701538	145.100000
259.794464	144.720000
259.887390	145.080000
259.980316	144.760000
260.073212	144.520000
260.166138	143.760000
260.259064	144.420000
260.351990	144.980000
260.444916	145.200000
260.537842	145.520000
260.630768	146.280000
260.723694	146.060000
260.816620	145.620000
260.909546	145.600000
261.002472	144.900000
261.095398	144.300000
261.188354	144.280000
261.281281	144.000000
261.374207	144.380000
261.467133	145.720000
261.560089	146.200000
261.653015	145.820000
261.745972	146.680000
261.838867	146.920000
261.931824	146.560000
262.024780	145.920000
262.117706	146.160000
262.210663	145.860000
262.303589	145.460000
262.396515	145.280000
262.489471	146.460000
262.582397	146.360000
262.675354	145.940000
262.768280	146.180000
262.861237	146.000000
262.954163	145.500000
263.047119	145.780000
263.140045	145.720000
263.233002	145.520000
263.325958	145.680000
263.418884	145.440000
263.511841	145.720000
263.604797	145.660000
263.697723	145.620000
263.790680	145.360000
263.883636	146.040000
263.976593	145.520000
264.069550	145.800000
264.162476	145.580000
264.255463	145.920000
264.348419	145.100000
264.441376	145.460000
264.534332	145.120000
264.627289	145.600000
264.720245	145.760000
264.813202	145.980000
264.906158	146.160000
264.999115	146.660000
265.092072	146.540000
265.185028	146.900000
265.277985	147.060000
265.370941	146.880000
265.463898	146.580000
265.556854	146.080000
265.649811	145.080000
265.742798	144.860000
265.835754	144.860000
265.928711	145.400000
266.021667	145.740000
266.114655	146.020000
266.207611	146.300000
266.300568	145.660000
266.393585	144.980000
266.486511	145.480000
266.579498	144.920000
266.672485	144.740000
266.765442	145.020000
266.858429	145.900000
266.951385	145.360000
267.044342	145.700000
267.137329	145.360000
267.230316	145.420000
267.323273	144.540000
267.416260	145.120000
267.509216	144.980000
267.602203	145.400000
267.695160	146.200000
267.788147	146.520000
267.881134	145.900000
267.974091	146.420000
268.067078	146.300000
268.160065	145.580000
268.253052	145.500000
268.346008	145.640000
268.438995	145.340000
268.531982	145.640000
268.624969	145.560000
268.717987	145.800000
268.810944	145.760000
268.903961	145.780000
268.996948	145.420000
269.089905	146.040000
269.182892	146.060000
269.275879	146.340000
269.368866	145.760000
269.461853	145.800000
269.554871	145.500000
269.647858	145.460000
269.740845	145.420000
269.833832	146.380000
269.926819	146.240000
270.019806	146.200000
270.112793	145.600000
270.205811	145.580000
270.298798	145.120000
270.391785	145.660000
270.484772	145.240000
270.577789	145.780000
270.670776	145.340000
270.763763	145.520000
270.856750	145.500000
270.949768	145.660000
271.042786	145.720000
271.135773	145.820000
271.228790	146.120000
271.321808	145.400000
271.414795	145.080000
271.507782	144.780000
271.600800	144.760000
271.693817	144.600000
271.786804	145.280000
271.879822	145.960000
271.972809	145.780000
272.065826	146.120000
272.158844	145.620000
272.251831	146.020000
272.344849	145.580000
272.437866	145.220000
272.530853	145.280000
272.623871	145.820000
272.716888	144.620000
272.809906	145.020000
272.902893	145.300000
272.995911	144.860000
273.088928	144.560000
273.181946	145.400000
273.274963	144.880000
273.367981	145.220000
273.460999	145.700000
273.554047	145.880000
273.647003	145.960000
273.740051	146.280000
273.833069	146.460000
273.926086	146.520000
274.019135	146.400000
274.112152	145.840000
274.205170	145.500000
274.298187	145.440000
274.391205	144.700000
274.484222	144.780000
274.577240	144.940000
274.670258	145.120000
274.763306	144.920000
274.856323	145.700000
274.949341	145.540000
275.042358	145.940000
275.135406	145.940000
275.228424	146.120000
275.321442	145.840000
275.414490	145.700000
275.507507	145.880000
275.600525	146.680000
275.693573	146.440000
275.786591	146.220000
275.879669	146.280000
275.972656	145.760000
276.065735	145.160000
276.158752	145.580000
276.251801	146.500000
276.344818	146.840000
276.437866	147.000000
276.530884	146.780000
276.623932	146.160000
276.716980	145.880000
276.809998	145.940000
276.903046	145.940000
276.996094	146.800000
277.089111	147.260000
277.182159	147.720000
277.275208	147.500000
277.368256	147.300000
277.461304	146.840000
277.554321	146.220000
277.647369	145.540000
277.740417	145.480000
277.833466	145.580000
277.926514	145.140000
278.019562	146.000000
278.112610	145.580000
278.205688	145.840000
278.298706	146.120000
278.391785	146.160000
278.484833	145.660000
278.577881	145.740000
278.670929	145.880000
278.763977	145.740000
278.857025	146.180000
278.950073	146.180000
279.043121	146.100000
279.136169	145.740000
279.229248	145.560000
279.322296	145.580000
279.415344	145.520000
279.508392	145.580000
279.601440	145.580000
279.694519	145.440000
279.787567	145.240000
279.880615	145.400000
279.973694	145.400000
280.066742	145.460000
280.159790	145.720000
280.252869	145.180000
280.345917	145.140000
280.438995	145.040000
280.532074	145.280000
280.625122	145.540000
280.718201	146.560000
280.811279	146.560000
280.904327	146.840000
280.997406	146.760000
281.090454	146.540000
281.183533	145.960000
281.276581	146.040000
281.369659	145.640000
281.462738	145.720000
281.555786	145.920000
281.648865	146.100000
281.741943	145.800000
281.835022	146.500000
281.928070	146.140000
282.021149	145.820000
282.114227	145.440000
282.207306	145.680000
282.300385	145.620000
282.393433	145.680000
282.486511	145.720000
282.579590	146.180000
282.672668	146.500000
282.765747	145.960000
282.858856	145.620000
282.951904	145.680000
283.045013	145.920000
283.138062	145.820000
283.231171	146.320000
283.324249	147.080000
283.417328	147.340000
283.510406	146.880000
283.603485	146.880000
283.696564	146.760000
283.789642	146.540000
283.882751	146.120000
283.975830	146.800000
284.068909	146.340000
284.161987	146.480000
284.255066	145.800000
284.348175	146.160000
284.441254	145.720000
284.534332	146.360000
284.627441	146.240000
284.720520	146.300000
284.813599	146.060000
284.906708	145.840000
284.999786	145.080000
285.092896	144.700000
285.185974	145.700000
285.279053	145.540000
285.372192	145.760000
285.465240	146.600000
285.558380	146.700000
285.651459	146.000000
285.744568	146.820000
285.837677	146.300000
285.930756	146.020000
286.023865	146.020000
286.116943	146.000000
286.210052	145.640000
286.303162	145.960000
286.396240	146.040000
286.489349	145.700000
286.582458	146.240000
286.675568	145.900000
286.768646	146.000000
286.861755	146.200000
286.954865	147.120000
287.047974	146.380000
287.141083	146.220000
287.234161	145.960000
287.327271	145.640000
287.420380	145.780000
287.513519	145.920000
287.606598	146.040000
287.699738	146.560000
287.792816	146.280000
287.885956	146.000000
287.979034	146.240000
288.072174	146.440000
288.165283	145.980000
288.258392	146.360000
288.351501	145.740000
288.444611	145.900000
288.537720	146.120000
288.630859	146.220000
288.723969	146.360000
288.817078	146.840000
288.910187	146.680000
289.003296	146.060000
289.096436	145.780000
289.189545	145.500000
289.282654	145.100000
289.375763	145.520000
289.468903	145.980000
289.562012	146.560000
289.655121	146.620000
289.748260	146.860000
289.841400	147.100000
289.934509	147.200000
290.027649	147.060000
290.120728	146.940000
290.213898	146.940000
290.306976	146.400000
290.400146	146.440000
290.493256	146.000000
290.586395	146.120000
290.679535	146.540000
290.772644	146.380000
290.865784	145.420000
290.958893	145.580000
291.052032	145.620000
291.145172	145.060000
291.238281	144.700000
291.331421	145.260000
291.424561	145.660000
291.517670	145.480000
291.610809	145.820000
291.703949	146.120000
291.797089	146.340000
291.890228	145.760000
291.983337	145.480000
292.076477	145.140000
292.169617	145.220000
292.262756	145.260000
292.355927	145.500000
292.449036	145.400000
292.542206	145.660000
292.635315	145.920000
292.728485	146.160000
292.821625	145.580000
292.914764	146.840000
293.007904	146.880000
293.101044	146.400000
293.194183	146.020000
293.287323	146.540000
293.380463	145.720000
293.473602	145.480000
293.566742	146.000000
293.659882	146.300000
293.753021	146.580000
293.846191	146.520000
293.939331	146.420000
294.032471	146.040000
294.125610	145.920000
294.218781	146.260000
294.311920	146.780000
294.405060	147.000000
294.498230	147.080000
294.591370	146.600000
294.684540	145.820000
294.777679	145.360000
294.870850	145.760000
294.963959	145.680000
295.057159	145.920000
295.150299	146.220000
295.243469	146.180000
295.336609	145.240000
295.429779	145.420000
295.522919	145.960000
295.616089	146.000000
295.709229	146.460000
295.802399	147.120000
295.895569	146.740000
295.988708	146.040000
296.081879	146.140000
296.175018	145.440000
296.268188	145.140000
296.361359	145.900000
296.454529	146.340000
296.547668	146.100000
296.640839	146.580000
296.734009	146.520000
296.827179	146.240000
296.920319	146.380000
297.013519	146.100000
297.106659	145.980000
297.199860	146.000000
297.292999	145.500000
297.386200	145.040000
297.479309	145.080000
297.572510	145.120000
297.665680	144.900000
297.758850	145.200000
297.852020	145.300000
297.945190	145.300000
298.038361	144.820000
298.131531	145.880000
298.224701	145.740000
298.317871	145.540000
298.411072	145.220000
298.504242	145.320000
298.597412	144.540000
298.690582	144.760000
298.783752	144.820000
298.876923	145.480000
298.970093	145.480000
299.063293	145.740000
299.156464	146.260000
299.249634	146.240000
299.342834	146.300000
299.436005	146.820000
299.529205	146.780000
299.622345	146.620000
299.715576	146.320000
299.808716	146.040000
299.901917	145.760000
299.995117	145.880000
300.088287	145.780000
300.181488	145.720000
300.274658	145.740000
300.367828	145.660000
300.461029	145.700000
300.554199	145.920000
300.647400	146.160000
300.740601	146.960000
300.833771	147.020000
300.926971	147.320000
301.020142	146.580000
301.113342	146.680000
301.206512	146.020000
301.299713	146.180000
301.392914	145.760000
301.486084	146.180000
301.579285	146.040000
301.672516	146.500000
301.765686	146.140000
301.858887	146.040000
301.952057	145.920000
302.045288	146.060000
302.138458	145.480000
302.231659	145.420000
302.324860	145.320000
302.418060	144.800000
302.511261	144.680000
302.604462	145.220000
302.697662	145.140000
302.790863	145.260000
302.884064	145.720000
302.977264	145.860000
303.070465	145.640000
303.163666	146.440000
303.256866	146.620000
303.350067	146.680000
303.443268	146.740000
303.536469	146.960000
303.629669	146.400000
303.722870	146.380000
303.816071	146.080000
303.909271	146.200000
304.002472	145.300000
304.095673	145.520000
304.188934	145.100000
304.282104	145.860000
304.375336	145.360000
304.468506	145.540000
304.561768	145.220000
304.654968	145.560000
304.748169	145.220000
304.841370	145.380000
304.934601	145.820000
305.027802	145.760000
305.121002	145.340000
305.214233	145.380000
305.307434	145.460000
305.400665	145.900000
305.493866	145.560000
305.587097	146.080000
305.680298	145.680000
305.773499	146.140000
305.866730	145.820000
305.959930	146.580000
306.053162	146.780000
306.146393	146.720000
306.239594	145.940000
306.332825	145.700000
306.426025	145.840000
306.519287	145.040000
306.612488	144.960000
306.705719	145.160000
306.798920	145.480000
306.892181	144.780000
306.985352	144.660000
307.078613	144.440000
307.171844	144.940000
307.265045	144.460000
307.358276	144.480000
307.451508	145.160000
307.544739	145.980000
307.637970	145.360000
307.731201	145.400000
307.824402	146.160000
307.917633	146.140000
308.010864	146.200000
308.104095	146.580000
308.197327	146.680000
308.290558	146.640000
308.383789	146.300000
308.477020	146.080000
308.570251	145.420000
308.663483	145.200000
308.756714	144.800000
308.849976	145.060000
308.943176	145.760000
309.036438	146.100000
309.129639	146.040000
309.222900	146.280000
309.316101	146.120000
309.409393	145.120000
309.502625	144.960000
309.595856	145.200000
309.689087	145.260000
309.782318	145.200000
309.875580	145.200000
309.968811	145.640000
310.062042	145.700000
310.155273	145.260000
310.248535	145.820000
310.341766	146.040000
310.434998	145.820000
310.528259	145.600000
310.621490	146.180000
310.714722	145.480000
310.807983	145.240000
310.901215	145.360000
310.994476	145.640000
311.087708	145.200000
311.181000	145.760000
311.274200	145.500000
311.367462	145.380000
311.460693	145.000000
311.553986	145.600000
311.647186	145.560000
311.740479	146.560000
311.833710	146.400000
311.926971	146.560000
312.020203	145.800000
312.113464	145.460000
312.206726	144.620000
312.299957	145.040000
312.393219	145.580000
312.486481	145.840000
312.579712	146.180000
312.672974	146.160000
312.766235	146.000000
312.859497	145.360000
312.952759	145.100000
313.045990	145.720000
313.139252	145.700000
313.232513	145.900000
313.325775	146.240000
313.419037	146.380000
313.512299	145.220000
313.605530	145.780000
313.698822	145.800000
313.792053	145.740000
313.885345	145.460000
313.978577	145.820000
314.071869	145.340000
314.165131	145.440000
314.258392	145.900000
314.351654	146.300000
314.444916	145.760000
314.538177	146.580000
314.631439	146.580000
314.724701	146.060000
314.817993	145.940000
314.911255	146.240000
315.004517	145.400000
315.097778	145.140000
315.191040	145.720000
315.284302	145.600000
315.377594	145.520000
315.470856	145.440000
315.564117	145.180000
315.657379	144.340000
315.750671	144.120000
315.843933	144.360000
315.937195	144.360000
316.030518	144.280000
316.123749	144.500000
316.217041	145.540000
316.310303	145.820000
316.403595	146.200000
316.496857	146.740000
316.590149	146.840000
316.683411	145.980000
316.776703	145.500000
316.869965	145.200000
316.963257	144.720000
317.056519	144.060000
317.149811	144.320000
317.243073	144.380000
317.336365	144.800000
317.429626	145.160000
317.522919	145.820000
317.616180	145.580000
317.709473	145.360000
317.802765	145.000000
317.896027	144.800000
317.989319	144.920000
318.082611	144.800000
318.175873	144.960000
318.269165	145.140000
318.362488	145.120000
318.455750	144.920000
318.549042	145.540000
318.642303	146.200000
318.735626	145.780000
318.828888	145.840000
318.922211	145.560000
319.015472	146.100000
319.108765	145.140000
319.202057	145.160000
319.295349	145.580000
319.388641	145.660000
319.481934	144.800000
319.575226	144.800000
319.668518	145.300000
319.761810	145.400000
319.855103	145.640000
319.948395	145.560000
320.041687	145.780000
320.134979	145.580000
320.228271	144.980000
320.321564	144.860000
320.414856	145.280000
320.508148	145.140000
320.601440	145.200000
320.694763	145.140000
320.788025	145.680000
320.881348	145.260000
320.974640	145.540000
321.067963	144.960000
321.161224	145.380000
321.254547	144.800000
321.347839	145.780000
321.441162	145.580000
321.534454	146.060000
321.627747	145.680000
321.721069	146.120000
321.814362	145.440000
321.907654	145.600000
322.000946	145.160000
322.094269	145.640000
322.187561	145.120000
322.280884	145.540000
322.374176	145.600000
322.467468	146.520000
322.560791	146.560000
322.654083	147.360000
322.747406	147.000000
322.840698	147.200000
322.934021	147.140000
323.027344	146.900000
323.120636	146.080000
323.213959	145.960000
323.307251	145.340000
323.400574	144.820000
323.493866	144.860000
323.587219	145.260000
323.680511	145.520000
323.773834	145.840000
323.867157	146.080000
323.960449	145.940000
324.053772	145.720000
324.147095	145.600000
324.240387	146.080000
324.333710	146.220000
324.427032	146.420000
324.520355	146.480000
324.613647	146.260000
324.706970	145.840000
324.800293	145.640000
324.893616	145.680000
324.986938	145.960000
325.080231	145.740000
325.173553	146.220000
325.266876	146.500000
325.360199	146.440000
325.453522	146.080000
325.546875	145.940000
325.640167	145.840000
325.733521	145.840000
325.826813	145.960000
325.920166	145.560000
326.013489	145.640000
326.106812	144.420000
326.200134	143.920000
326.293457	143.520000
326.386780	144.080000
326.480103	144.000000
326.573425	144.440000
326.666748	144.660000
326.760071	145.080000
326.853424	145.060000
326.946747	145.200000
327.040070	146.100000
327.133392	145.640000
327.226715	144.960000
327.320068	144.540000
327.413391	145.020000
327.506714	144.100000
327.600037	144.340000
327.693390	144.780000
327.786713	145.100000
327.880066	145.100000
327.973358	145.440000
328.066742	146.040000
328.160034	146.040000
328.253418	146.380000
328.346710	145.880000
328.440063	145.640000
328.533417	144.920000
328.626740	145.140000
328.720093	144.560000
328.813416	144.720000
328.906769	144.740000
329.000092	145.340000
329.093445	145.200000
329.186768	145.200000
329.280121	145.740000
329.373444	146.340000
329.466797	146.020000
329.560120	146.020000
329.653473	146.540000
329.746796	145.920000
329.840149	145.620000
329.933502	145.900000
330.026825	145.400000
330.120178	144.820000
330.213562	144.940000
330.306854	144.760000
330.400238	144.320000
330.493561	144.620000
330.586945	145.560000
330.680237	145.660000
330.773621	145.820000
330.866974	146.180000
330.960327	146.440000
331.053680	145.520000
331.147003	145.660000
331.240356	145.820000
331.333710	145.760000
331.427063	145.360000
331.520416	145.500000
331.613770	145.420000
331.707123	145.460000
331.800476	145.820000
331.893829	146.860000
331.987152	147.260000
332.080505	146.900000
332.173859	146.860000
332.267212	146.020000
332.360565	145.020000
332.453918	144.700000
332.547333	144.940000
332.640656	144.780000
332.734039	145.060000
332.827362	145.280000
332.920746	145.600000
333.014069	145.720000
333.107452	146.220000
333.200806	146.680000
333.294159	146.620000
333.387543	146.040000
333.480896	145.480000
333.574249	145.100000
333.667603	144.860000
333.760956	145.240000
333.854340	145.560000
333.947693	146.000000
334.041046	146.040000
334.134430	146.160000
334.227783	145.580000
334.321136	145.480000
334.414520	145.320000
334.507874	145.460000
334.601227	145.280000
334.694611	145.460000
334.787964	145.740000
334.881348	146.120000
334.974701	146.080000
335.068085	145.560000
335.161438	145.760000
335.254822	145.580000
335.348175	145.280000
335.441559	144.820000
335.534943	146.080000
335.628296	145.940000
335.721680	146.060000
335.815033	146.360000
335.908417	146.780000
336.001770	146.140000
336.095154	145.940000
336.188538	145.440000
336.281891	145.060000
336.375275	144.580000
336.468658	144.420000
336.562012	144.520000
336.655396	145.080000
336.748779	145.660000
336.842133	146.140000
336.935516	146.600000
337.028900	146.400000
337.122284	146.100000
337.215637	146.060000
337.309021	145.820000
337.402435	145.080000
337.495789	145.340000
337.589203	145.240000
337.682526	144.920000
337.775940	145.160000
337.869324	145.500000
337.962708	144.980000
338.056091	145.720000
338.149475	145.340000
338.242859	145.460000
338.336243	145.460000
338.429626	146.180000
338.523010	145.600000
338.616394	145.820000
338.709778	145.840000
338.803162	146.060000
338.896545	146.000000
338.989929	145.600000
339.083313	145.780000
339.176697	145.520000
339.270081	145.040000
339.363464	145.020000
339.456848	145.640000
339.550232	144.860000
339.643616	144.980000
339.737030	145.160000
339.830383	144.860000
339.923828	144.720000
340.017181	145.440000
340.110596	145.440000
340.203949	145.320000
340.297363	145.040000
340.390778	145.240000
340.484161	144.840000
340.577545	144.700000
340.670959	144.840000
340.764343	144.980000
340.857727	144.960000
340.951111	144.620000
341.044525	145.060000
341.137909	145.080000
341.231293	145.260000
341.324707	144.800000
341.418091	146.040000
341.511505	145.640000
341.604889	145.700000
341.698303	146.020000
341.791687	145.960000
341.885071	145.180000
341.978485	144.880000
342.071899	145.180000
342.165283	145.280000
342.258698	145.980000
342.352081	146.420000
342.445496	147.140000
342.538879	146.700000
342.632324	145.880000
342.725708	145.340000
342.819122	144.840000
342.912506	144.220000
343.005920	144.360000
343.099335	145.460000
343.192719	145.580000
343.286133	145.740000
343.379547	146.160000
343.472931	146.140000
343.566345	145.440000
343.659760	145.960000
343.753143	145.720000
343.846558	145.240000
343.939972	145.280000
344.033386	146.060000
344.126770	145.500000
344.220184	145.560000
344.313599	146.340000
344.407043	146.380000
344.500427	145.300000
344.593872	145.700000
344.687225	145.660000
344.780670	145.120000
344.874054	144.740000
344.967499	145.640000
345.060913	145.760000
345.154327	145.980000
345.247742	145.380000
345.341156	145.500000
345.434570	144.980000
345.527985	144.820000
345.621399	144.600000
345.714813	145.000000
345.808228	144.940000
345.901642	144.860000
345.995056	144.460000
346.088470	144.720000
346.181885	144.960000
346.275299	145.020000
346.368713	144.860000
346.462128	144.580000
346.555573	144.760000
346.648987	144.600000
346.742401	144.660000
346.835815	145.060000
346.929260	145.220000
347.022644	145.220000
347.116119	145.480000
347.209503	145.760000
347.302948	146.620000
347.396362	147.120000
347.489807	147.020000
347.583221	147.480000
347.676636	147.140000
347.770050	145.840000
347.863495	145.380000
347.956909	145.160000
348.050323	144.260000
348.143768	144.380000
348.237183	144.600000
348.330597	145.140000
348.424042	145.580000
348.517456	146.180000
348.610901	146.200000
348.704315	146.320000
348.797760	145.480000
348.891174	144.760000
348.984619	144.500000
349.078033	144.960000
349.171448	145.440000
349.264923	145.680000
349.358337	146.020000
349.451782	146.040000
349.545197	145.260000
349.638641	144.380000
349.732086	144.100000
349.825500	144.360000
349.918945	143.740000
350.012390	144.720000
350.105804	145.560000
350.199249	146.000000
350.292664	146.140000
350.386108	146.540000
350.479553	146.380000
350.572968	145.900000
350.666412	146.060000
350.759857	145.880000
350.853302	146.420000
350.946716	145.880000
351.040161	146.240000
351.133606	146.080000
351.227081	146.020000
351.320465	146.580000
351.413940	146.680000
351.507355	146.660000
351.600830	146.800000
351.694244	146.380000
351.787720	145.940000
351.881104	145.880000
351.974579	145.640000
352.067993	146.420000
352.161469	146.820000
352.254883	145.840000
352.348358	145.880000
352.441803	145.800000
352.535248	145.280000
352.628693	145.620000
352.722137	145.940000
352.815582	146.120000
352.909027	146.380000
353.002472	146.020000
353.095917	145.620000
353.189362	145.680000
353.282806	145.640000
353.376251	145.140000
353.469696	145.120000
353.563141	145.540000
353.656586	145.780000
353.750061	145.320000
353.843475	145.440000
353.936981	145.760000
354.030396	145.180000
354.123871	145.000000
354.217285	145.880000
354.310760	146.400000
354.404175	146.240000
354.497681	146.200000
354.591095	146.340000
354.684570	145.380000
354.777985	144.900000
354.871490	144.800000
354.964935	145.400000
355.058380	145.480000
355.151855	145.360000
355.245300	145.920000
355.338745	146.160000
355.432220	145.740000
355.525665	145.360000
355.619110	146.260000
355.712585	145.660000
355.806030	145.420000
355.899475	145.100000
355.992950	145.540000
356.086426	145.600000
356.179871	145.760000
356.273346	146.000000
356.366791	146.500000
356.460266	146.620000
356.553711	145.960000
356.647186	146.000000
356.740631	145.440000
356.834106	145.100000
356.927551	144.680000
357.021027	144.800000
357.114471	144.800000
357.207947	145.040000
357.301422	145.240000
357.394867	145.320000
357.488342	145.780000
357.581818	145.860000
357.675262	145.920000
357.768738	145.680000
357.862213	145.300000
357.955658	145.120000
358.049133	144.860000
358.142609	145.460000
358.236053	145.500000
358.329529	146.000000
358.423035	145.840000
358.516449	145.840000
358.609955	145.700000
358.703400	146.540000
358.796906	146.400000
358.890350	146.240000
358.983826	146.340000
359.077271	145.720000
359.170776	145.120000
359.264221	144.960000
359.357727	145.280000
359.451172	145.560000
359.544647	145.760000
359.638123	145.800000
359.731598	145.980000
359.825073	146.220000
359.918549	146.380000
360.012024	146.540000
360.105499	145.960000
360.198975	145.900000
360.292450	145.460000
360.385925	145.120000
360.479401	144.620000
360.572876	145.220000
360.666351	145.540000
360.759857	145.600000
360.853302	145.680000
360.946808	145.700000
361.040253	145.480000
361.133759	145.060000
361.227203	145.000000
361.320709	144.680000
361.414154	145.280000
361.507660	145.600000
361.601105	146.060000
361.694641	146.840000
361.788086	146.860000
361.881592	147.100000
361.975067	146.740000
362.068542	147.020000
362.162018	146.700000
362.255524	146.140000
362.348999	145.720000
362.442474	146.020000
362.535950	145.360000
362.629456	144.920000
362.722931	145.380000
362.816406	145.340000
362.909882	145.800000
363.003387	145.560000
363.096863	146.000000
363.190338	146.200000
363.283875	146.180000
363.377319	145.640000
363.470825	146.140000
363.564301	145.480000
363.657806	145.480000
363.751282	145.060000
363.844788	145.860000
363.938232	145.360000
364.031769	146.160000
364.125214	146.340000
364.218750	147.200000
364.312225	145.820000
364.405731	146.360000
364.499207	145.680000
364.592712	145.320000
364.686188	144.900000
364.779694	145.480000
364.873169	145.140000
364.966675	145.160000
365.060150	145.140000
365.153656	145.560000
365.247131	145.380000
365.340637	145.740000
365.434143	146.420000
365.527618	146.680000
365.621155	145.600000
365.714600	145.620000
365.808136	145.540000
365.901611	144.420000
365.995117	144.220000
366.088593	144.800000
366.182129	144.600000
366.275604	144.560000
366.369110	145.000000
366.462585	144.840000
366.556122	145.340000
366.649567	145.580000
366.743103	145.580000
366.836609	145.180000
366.930115	145.760000
367.023590	145.720000
367.117096	145.640000
367.210602	145.560000
367.304108	146.360000
367.397614	146.760000
367.491119	146.560000
367.584595	146.860000
367.678101	146.900000
367.771606	146.600000
367.865112	145.700000
367.958649	145.240000
368.052124	145.160000
368.145660	145.420000
368.239136	145.560000
368.332672	145.720000
368.426147	146.080000
368.519684	145.760000
368.613159	145.880000
368.706696	145.460000
368.800171	145.300000
368.893707	145.060000
368.987183	145.140000
369.080719	144.960000
369.174225	145.020000
369.267731	145.360000
369.361237	145.720000
369.454742	145.660000
369.548248	145.920000
369.641754	145.880000
369.735260	145.840000
369.828766	144.800000
369.922272	145.800000
370.015808	145.320000
370.109314	145.460000
370.202820	145.220000
370.296356	146.640000
370.389832	145.940000
370.483368	145.820000
370.576874	145.540000
370.670410	145.760000
370.763885	144.520000
370.857422	144.480000
370.950928	144.460000
371.044464	145.520000
371.137939	145.820000
371.231476	146.360000
371.324982	146.940000
371.418518	146.840000
371.512024	146.260000
371.605560	145.820000
371.699066	145.980000
371.792572	145.240000
371.886108	146.040000
371.979614	145.960000
372.073120	146.580000
372.166656	146.620000
372.260162	147.280000
372.353668	146.760000
372.447205	146.700000
372.540710	146.380000
372.634277	145.920000
372.727753	145.620000
372.821320	145.740000
372.914795	145.720000
373.008362	145.300000
373.101837	145.700000
373.195404	145.460000
373.288879	145.380000
373.382446	145.900000
373.475922	146.080000
373.569489	146.320000
373.662964	146.840000
373.756531	146.840000
373.850037	146.600000
373.943573	146.580000
374.037109	145.820000
374.130615	145.500000
374.224152	145.600000
374.317657	145.220000
374.411194	145.800000
374.504730	145.920000
374.598236	145.640000
374.691772	145.360000
374.785309	145.620000
374.878815	144.780000
374.972351	145.260000
375.065887	145.360000
375.159454	145.980000
375.252930	145.620000
375.346497	146.160000
375.440002	146.720000
375.533569	146.740000
375.627045	145.920000
375.720612	146.000000
375.814117	146.040000
375.907684	145.160000
376.001160	144.760000
376.094727	144.260000
376.188232	145.180000
376.281799	144.880000
376.375336	144.860000
376.468872	145.800000
376.562408	146.360000
376.655914	145.740000
376.749451	145.800000
376.842987	145.880000
376.936523	145.380000
377.030060	145.380000
377.123596	145.400000
377.217133	144.960000
377.310669	145.240000
377.404205	145.420000
377.497772	146.060000
377.591278	145.660000
377.684845	146.440000
377.778351	146.420000
377.871918	146.260000
377.965424	145.320000
378.058990	145.300000
378.152496	144.820000
378.246063	144.840000
378.339569	144.960000
378.433136	145.280000
378.526642	145.780000
378.620209	145.780000
378.713745	145.520000
378.807312	145.900000
378.900848	145.980000
378.994385	145.960000
379.087921	145.480000
379.181458	145.760000
379.274994	144.920000
379.368530	144.760000
379.462097	144.820000
379.555634	145.500000
379.649170	144.840000
379.742706	144.840000
379.836273	145.140000
379.929810	144.560000
380.023376	144.320000
380.116882	144.560000
380.210449	144.560000
380.303986	144.020000
380.397552	143.900000
380.491058	144.280000
380.584656	144.180000
380.678162	144.780000
380.771729	144.800000
380.865265	145.760000
380.958832	145.560000
381.052368	146.080000
381.145935	146.060000
381.239471	146.780000
381.333008	146.380000
381.426575	146.420000
381.520111	146.740000
381.613647	146.640000
381.707214	146.080000
381.800751	145.760000
381.894318	145.740000
381.987854	145.120000
382.081421	144.980000
382.174988	145.060000
382.268524	144.680000
382.362091	144.840000
382.455627	145.500000
382.549194	145.160000
382.642731	144.800000
382.736298	144.860000
382.829834	144.720000
382.923401	144.660000
383.016937	144.920000
383.110504	145.620000
383.204041	145.940000
383.297607	146.080000
383.391174	145.280000
383.484741	146.080000
383.578278	145.560000
383.671844	145.640000
383.765411	144.900000
383.858948	145.520000
383.952515	145.000000
384.046051	145.420000
384.139618	145.520000
384.233185	146.220000
384.326721	146.020000
384.420288	146.280000
384.513855	146.140000
384.607422	146.600000
384.700989	146.480000
384.794525	146.140000
384.888123	145.980000
384.981659	146.360000
385.075226	145.540000
385.168762	145.340000
385.262360	145.740000
385.355896	145.100000
385.449463	145.000000
385.542999	145.220000
385.636597	145.960000
385.730164	146.400000
385.823730	146.300000
385.917267	145.640000
386.010834	145.800000
386.104401	145.540000
386.197968	145.240000
386.291534	145.760000
386.385101	145.960000
386.478668	146.420000
386.572235	146.040000
386.665802	145.300000
386.759338	144.860000
386.852905	144.940000
386.946472	144.460000
387.040070	144.740000
387.133606	145.520000
387.227203	145.480000
387.320740	145.640000
387.414337	145.280000
387.507874	145.120000
387.601471	144.860000
387.695007	144.920000
387.788605	144.540000
387.882141	144.920000
387.975739	145.100000
388.069275	144.720000
388.162872	145.200000
388.256439	145.520000
388.350037	145.140000
388.443604	144.880000
388.537170	145.180000
388.630737	145.520000
388.724304	145.760000
388.817871	145.840000
388.911438	146.160000
389.005005	146.240000
389.098602	146.280000
389.192169	145.980000
389.285736	146.580000
389.379333	146.640000
389.472870	146.100000
389.566467	145.900000
389.660034	146.200000
389.753632	145.820000
389.847168	145.920000
389.940765	146.460000
390.034332	146.720000
390.127930	146.080000
390.221466	145.780000
390.315063	145.180000
390.408630	144.600000
390.502228	143.740000
390.595795	144.180000
390.689362	144.480000
390.782959	144.940000
390.876526	145.520000
390.970093	145.600000
391.063690	145.860000
391.157257	145.820000
391.250824	145.900000
391.344421	145.460000
391.437988	145.780000
391.531555	145.800000
391.625153	146.020000
391.718750	146.020000
391.812317	145.960000
391.905914	145.580000
391.999481	145.480000
392.093079	145.240000
392.186615	145.380000
392.280243	145.740000
392.373779	145.800000
392.467407	146.220000
392.560944	146.340000
392.654572	145.800000
392.748108	145.620000
392.841736	145.900000
392.935303	145.300000
393.028900	145.180000
393.122467	145.380000
393.216064	145.160000
393.309631	144.880000
393.403229	144.480000
393.496796	144.320000
393.590393	143.720000
393.683990	144.080000
393.777557	144.480000
393.871155	144.940000
393.964722	145.360000
394.058350	146.020000
394.151917	146.120000
394.245514	145.880000
394.339081	146.080000
394.432678	146.300000
394.526245	146.080000
394.619873	145.660000
394.713409	145.900000
394.807037	145.620000
394.900604	145.420000
394.994202	145.560000
395.087769	145.900000
395.181396	145.220000
395.274994	146.060000
395.368561	145.520000
395.462158	145.620000
395.555756	145.260000
395.649353	145.720000
395.742920	144.920000
395.836517	145.720000
395.930115	144.940000
396.023712	145.500000
396.117279	145.720000
396.210876	145.400000
396.304474	145.180000
396.398071	145.720000
396.491669	145.520000
396.585266	145.200000
396.678833	145.340000
396.772461	145.440000
396.866028	145.460000
396.959656	146.000000
397.053223	146.560000
397.146851	146.640000
397.240417	147.200000
397.334015	148.540000
397.427582	148.720000
397.521210	149.660000
397.614807	151.640000
397.708405	153.600000
397.802002	155.560000
397.895599	159.540000
397.989197	163.780000
398.082794	168.980000
398.176392	175.520000
398.269989	183.380000
398.363586	192.640000
398.457184	204.220000
398.550781	217.500000
398.644379	231.000000
398.737976	246.180000
398.831573	262.240000
398.925201	278.760000
399.018768	295.720000
399.112396	314.500000
399.205963	335.040000
399.299591	357.060000
399.393158	380.180000
399.486786	405.200000
399.580353	430.240000
399.673981	452.940000
399.767578	474.200000
399.861206	492.240000
399.954773	505.500000
400.048401	510.320000
400.141998	509.300000
400.235596	501.440000
400.329193	488.140000
400.422791	470.600000
400.516418	453.320000
400.610016	436.660000
400.703613	420.320000
400.797211	402.020000
400.890808	384.840000
400.984436	367.480000
401.078033	348.660000
401.171631	329.480000
401.265259	311.560000
401.358826	293.440000
401.452484	275.240000
401.546051	258.400000
401.639679	240.900000
401.733246	225.840000
401.826904	211.160000
401.920471	198.040000
402.014099	186.820000
402.107697	178.220000
402.201324	170.560000
402.294891	164.680000
402.388550	160.620000
402.482147	157.000000
402.575745	153.740000
402.669373	151.420000
402.762970	149.700000
402.856567	148.560000
402.950195	147.800000
403.043793	147.400000
403.137390	147.840000
403.231018	147.020000
403.324615	147.420000
403.418243	146.720000
403.511841	146.980000
403.605469	146.380000
403.699066	147.100000
403.792694	146.480000
403.886292	146.780000
403.979919	146.460000
404.073517	146.140000
404.167145	146.040000
404.260712	146.300000
404.354370	146.040000
404.447937	145.940000
404.541595	146.100000
404.635162	146.320000
404.728821	146.480000
404.822418	146.080000
404.916046	145.960000
405.009644	146.080000
405.103271	146.080000
405.196899	145.900000
405.290497	146.340000
405.384125	147.100000
405.477722	146.840000
405.571350	146.260000
405.664948	146.160000
405.758575	145.880000
405.852203	145.060000
405.945801	145.220000
406.039429	145.540000
406.133057	145.380000
406.226654	145.600000
406.320312	145.640000
406.413879	146.000000
406.507538	146.400000
406.601135	146.120000
406.694763	146.560000
406.788361	146.540000
406.882019	145.700000
406.975586	145.700000
407.069244	146.520000
407.162872	146.380000
407.256470	146.400000
407.350098	146.740000
407.443726	146.060000
407.537323	145.160000
407.630951	145.280000
407.724579	145.040000
407.818207	145.360000
407.911804	145.460000
408.005432	145.300000
408.099060	145.200000
408.192688	145.700000
408.286285	145.680000
408.379913	145.540000
408.473572	146.020000
408.567169	145.400000
408.660828	145.560000
408.754395	145.220000
408.848053	145.180000
408.941650	145.420000
409.035309	145.140000
409.128906	144.740000
409.222565	144.480000
409.316132	144.880000
409.409790	144.460000
409.503387	144.940000
409.597046	145.160000
409.690674	145.600000
409.784302	145.420000
409.877930	145.280000
409.971558	145.360000
410.065186	145.380000
410.158783	145.120000
410.252411	145.100000
410.346039	145.600000
410.439667	145.500000
410.533295	145.740000
410.626923	146.040000
410.720551	145.720000
410.814209	145.960000
410.907806	145.960000
411.001465	145.180000
411.095062	145.040000
411.188721	145.500000
411.282318	144.880000
411.375977	144.800000
411.469574	145.060000
411.563232	145.020000
411.656830	144.660000
411.750488	144.600000
411.844086	144.420000
411.937744	144.760000
412.031372	144.520000
412.125000	144.680000
412.218628	145.080000
412.312256	145.840000
412.405884	146.140000
412.499512	146.220000
412.593170	146.380000
412.686798	146.640000
412.780426	146.000000
412.874054	145.900000
412.967682	146.100000
413.061310	146.780000
413.154968	146.740000
413.248566	147.140000
413.342224	146.920000
413.435852	147.120000
413.529510	146.440000
413.623108	145.700000
413.716766	145.460000
413.810364	145.620000
413.904022	145.440000
413.997650	145.020000
414.091309	145.680000
414.184906	145.800000
414.278564	145.360000
414.372192	145.400000
414.465851	145.700000
414.559479	145.400000
414.653107	146.140000
414.746735	146.200000
414.840393	146.040000
414.934021	146.160000
415.027649	145.900000
415.121277	145.140000
415.214935	145.660000
415.308563	145.980000
415.402191	145.580000
415.495850	145.620000
415.589478	145.520000
415.683136	145.000000
415.776733	145.240000
415.870422	145.960000
415.964020	145.780000
416.057678	145.980000
416.151306	146.120000
416.244965	145.520000
416.338562	145.240000
416.432251	145.720000
416.525848	146.120000
416.619507	146.500000
416.713165	147.020000
416.806793	147.020000
416.900421	147.280000
416.994080	146.520000
417.087708	146.040000
417.181366	145.600000
417.274994	145.460000
417.368622	145.300000
417.462280	146.120000
417.555908	145.860000
417.649567	145.780000
417.743195	146.020000
417.836853	145.800000
417.930481	145.760000
418.024170	146.280000
418.117767	146.840000
418.211426	146.900000
418.305054	147.340000
418.398712	146.740000
418.492340	146.460000
418.585999	146.520000
418.679626	146.500000
418.773285	146.280000
418.866913	146.620000
418.960571	147.100000
419.054230	146.940000
419.147858	147.060000
419.241516	147.200000
419.335144	146.700000
419.428802	146.260000
419.522461	146.180000
419.616089	145.720000
419.709747	145.740000
419.803375	146.260000
419.897034	146.040000
419.990662	145.820000
420.084320	146.100000
420.177979	146.120000
420.271606	145.980000
420.365295	146.600000
420.458893	146.840000
420.552582	147.060000
420.646210	146.940000
420.739868	146.720000
420.833496	146.580000
420.927155	146.180000
421.020782	145.540000
421.114471	145.040000
421.208069	145.420000
421.301758	145.480000
421.395386	145.620000
421.489044	145.520000
421.582703	145.600000
421.676361	145.740000
421.769989	145.400000
421.863647	145.780000
421.957306	146.100000
422.050934	146.460000
422.144592	146.200000
422.238251	146.080000
422.331909	145.460000
422.425537	145.240000
422.519196	145.240000
422.612854	144.800000
422.706543	144.560000
422.800140	145.260000
422.893829	145.340000
422.987457	144.980000
423.081146	145.300000
423.174744	146.100000
423.268433	145.300000
423.362061	145.280000
423.455750	145.240000
423.549347	145.100000
423.643036	144.220000
423.736664	145.140000
423.830353	145.040000
423.924011	145.460000
424.017639	145.020000
424.111298	145.220000
424.204956	144.500000
424.298615	144.460000
424.392273	144.340000
424.485931	145.140000
424.579559	145.140000
424.673218	145.300000
424.766876	145.960000
424.860535	145.760000
424.954193	145.340000
425.047882	146.120000
425.141510	146.080000
425.235199	145.520000
425.328796	145.580000
425.422485	145.180000
425.516113	144.640000
425.609802	144.720000
425.703430	144.860000
425.797119	144.680000
425.890747	145.160000
425.984436	145.120000
426.078064	145.220000
426.171753	145.040000
426.265411	144.980000
426.359070	145.120000
426.452728	145.040000
426.546356	144.880000
426.640015	144.900000
426.733673	145.060000
426.827332	144.700000
426.920990	145.660000
427.014648	145.420000
427.108307	145.880000
427.201965	146.360000
427.295624	146.560000
427.389282	145.400000
427.482941	145.380000
427.576630	144.860000
427.670258	144.140000
427.763947	143.640000
427.857574	144.280000
427.951263	144.480000
428.044922	144.480000
428.138611	144.500000
428.232239	145.400000
428.325928	145.240000
428.419556	145.780000
428.513245	145.480000
428.606903	145.740000
428.700562	145.120000
428.794220	144.760000
428.887878	144.140000
428.981537	144.860000
429.075195	145.000000
429.168854	145.300000
429.262512	145.820000
429.356201	145.920000
429.449860	145.560000
429.543518	145.520000
429.637177	145.720000
429.730835	145.020000
429.824493	145.080000
429.918182	145.320000
430.011810	144.780000
430.105530	144.220000
430.199158	144.820000
430.292847	144.820000
430.386475	144.460000
430.480164	144.920000
430.573792	144.740000
430.667511	144.520000
430.761139	144.580000
430.854828	145.160000
430.948456	144.800000
431.042145	145.500000
431.135834	145.460000
431.229492	145.420000
431.323151	145.380000
431.416809	145.600000
431.510468	145.500000
431.604156	145.400000
431.697815	145.340000
431.791473	145.060000
431.885132	144.740000
431.978821	144.960000
432.072479	145.360000
432.166138	145.680000
432.259827	145.440000
432.353485	145.960000
432.447174	145.820000
432.540802	145.420000
432.634491	145.380000
432.728149	145.840000
432.821838	146.140000
432.915466	145.900000
433.009186	145.840000
433.102814	145.120000
433.196503	144.760000
433.290131	144.660000
433.383850	144.680000
433.477509	144.980000
433.571167	145.960000
433.664856	146.300000
433.758514	146.540000
433.852173	146.560000
433.945862	146.480000
434.039520	146.500000
434.133179	146.300000
434.226868	145.720000
434.320526	145.260000
434.414185	145.680000
434.507874	145.220000
434.601562	145.600000
434.695221	145.700000
434.788910	146.140000
434.882538	146.040000
434.976257	145.520000
435.069885	145.420000
435.163574	145.620000
435.257233	145.220000
435.350922	145.040000
435.444580	145.500000
435.538269	144.940000
435.631897	144.760000
435.725616	145.900000
435.819275	146.400000
435.912964	146.820000
436.006622	147.580000
436.100311	147.780000
436.193970	146.320000
436.287628	145.660000
436.381317	145.360000
436.474976	144.820000
436.568665	144.200000
436.662323	144.840000
436.756012	144.960000
436.849670	144.560000
436.943390	144.580000
437.037018	145.120000
437.130737	145.240000
437.224365	145.080000
437.318085	145.440000
437.411713	145.580000
437.505432	145.820000
437.599060	146.160000
437.692780	146.820000
437.786407	146.580000
437.880127	146.500000
437.973755	145.960000
438.067474	145.520000
438.161133	145.420000
438.254822	145.880000
438.348480	145.660000
438.442169	146.160000
438.535828	146.460000
438.629517	145.600000
438.723175	145.020000
438.816864	145.440000
438.910553	144.960000
439.004211	144.680000
439.097900	144.840000
439.191559	145.160000
439.285248	144.640000
439.378906	145.200000
439.472626	145.140000
439.566284	145.300000
439.659973	145.440000
439.753632	145.340000
439.847321	145.500000
439.940979	145.600000
440.034698	145.460000
440.128326	144.820000
440.222046	145.000000
440.315674	144.260000
440.409393	144.220000
440.503082	144.260000
440.596741	145.000000
440.690430	145.140000
440.784088	145.160000
440.877777	144.680000
440.971466	144.740000
441.065125	144.280000
441.158813	143.920000
441.252502	143.800000
441.346161	144.380000
441.439850	144.740000
441.533539	144.580000
441.627197	145.140000
441.720886	145.340000
441.814606	145.460000
441.908234	145.720000
442.001953	145.760000
442.095612	145.800000
442.189301	145.860000
442.282959	146.360000
442.376678	145.580000
442.470306	146.460000
442.564026	146.100000
442.657684	146.400000
442.751404	145.900000
442.845032	146.880000
442.938751	146.260000
443.032440	146.640000
443.126099	145.900000
443.219788	146.380000
443.313477	145.920000
443.407166	145.940000
443.500824	145.780000
443.594513	146.220000
443.688202	145.980000
443.781891	145.140000
443.875549	144.980000
443.969238	144.940000
444.062927	145.100000
444.156647	144.760000
444.250275	145.660000
444.343994	145.900000
444.437653	146.200000
444.531372	146.080000
444.625031	145.740000
444.718719	145.280000
444.812378	145.460000
444.906097	145.120000
444.999756	144.660000
445.093445	144.880000
445.187103	144.900000
445.280823	145.060000
445.374512	144.580000
445.468201	145.080000
445.561859	145.280000
445.655548	145.400000
445.749237	144.840000
445.842926	145.380000
445.936615	145.540000
446.030304	145.300000
446.123962	145.580000
446.217651	145.380000
446.311340	145.240000
446.405029	144.700000
446.498749	144.700000
446.592407	144.300000
446.686096	144.740000
446.779755	144.620000
446.873474	145.000000
446.967133	145.240000
447.060852	145.000000
447.154510	144.800000
447.248230	145.080000
447.341858	145.000000
447.435577	144.340000
447.529236	144.480000
447.622955	144.540000
447.716644	144.440000
447.810333	144.740000
447.904022	145.540000
447.997711	145.660000
448.091400	145.980000
448.185059	146.120000
448.278748	146.160000
448.372437	145.900000
448.466125	146.220000
448.559814	145.800000
448.653503	146.120000
448.747192	145.960000
448.840912	146.060000
448.934570	145.700000
449.028290	146.020000
449.121948	145.480000
449.215637	145.160000
449.309296	144.720000
449.403015	145.140000
449.496674	145.140000
449.590393	145.080000
449.684052	144.780000
449.777771	145.680000
449.871429	144.720000
449.965149	144.360000
450.058838	144.920000
450.152527	145.700000
450.246216	145.380000
450.339905	145.880000
450.433594	146.100000
450.527283	146.580000
450.620972	146.180000
450.714661	146.140000
450.808350	146.280000
450.902039	146.520000
450.995728	145.960000
451.089417	145.800000
451.183105	145.540000
451.276794	145.960000
451.370514	145.260000
451.464172	144.580000
451.557892	144.500000
451.651550	144.620000
451.745270	143.980000
451.838928	143.640000
451.932648	143.860000
452.026306	144.440000
452.120026	144.060000
452.213684	144.640000
452.307404	145.440000
452.401062	145.580000
452.494781	145.740000
452.588470	145.860000
452.682159	145.040000
452.775848	145.080000
452.869537	144.600000
452.963226	143.840000
453.056915	143.900000
453.150604	144.520000
453.244293	144.540000
453.337982	145.560000
453.431671	146.220000
453.525360	146.740000
453.619049	146.640000
453.712769	146.420000
453.806427	145.780000
453.900146	145.400000
453.993805	145.160000
454.087555	145.640000
454.181213	145.740000
454.274933	145.700000
454.368591	145.820000
454.462311	145.800000
454.555969	145.120000
454.649689	145.680000
454.743347	145.640000
454.837067	146.120000
454.930756	146.420000
455.024445	146.660000
455.118134	146.360000
455.211853	146.540000
455.305542	145.960000
455.399231	145.820000
455.492920	145.680000
455.586609	145.480000
455.680298	145.600000
455.773987	145.540000
455.867676	145.460000
455.961365	145.720000
456.055084	145.720000
456.148773	145.500000
456.242493	145.780000
456.336151	145.420000
456.429871	145.320000
456.523529	145.820000
456.617249	145.380000
456.710907	145.660000
456.804626	145.880000
456.898315	145.480000
456.992035	144.920000
457.085693	145.200000
457.179413	144.400000
457.273102	145.320000
457.366791	145.700000
457.460480	146.000000
457.554199	146.340000
457.647888	146.360000
457.741577	145.480000
457.835266	145.500000
457.928955	145.520000
458.022644	145.760000
458.116364	146.060000
458.210052	145.980000
458.303741	145.800000
458.397461	145.180000
458.491119	144.460000
458.584839	144.520000
458.678528	144.300000
458.772247	144.020000
458.865906	144.480000
458.959625	145.580000
459.053284	145.300000
459.147003	145.260000
459.240692	145.800000
459.334412	145.720000
459.428070	145.260000
459.521790	145.100000
459.615479	145.420000
459.709198	145.800000
459.802887	145.620000
459.896576	145.360000
459.990265	145.620000
460.083954	145.680000
460.177673	145.240000
460.271362	145.240000
460.365051	145.380000
460.458740	145.400000
460.552429	144.840000
460.646149	144.760000
460.739838	144.580000
460.833527	144.380000
460.927246	144.060000
461.020905	144.220000
461.114655	144.100000
461.208313	144.380000
461.302032	144.460000
461.395691	144.760000
461.489441	145.100000
461.583099	144.920000
461.676819	144.600000
461.770477	144.700000
461.864197	144.480000
461.957916	144.060000
462.051605	143.560000
462.145294	144.660000
462.238983	144.340000
462.332703	145.300000
462.426392	146.080000
462.520081	146.480000
462.613770	145.300000
462.707489	145.720000
462.801178	144.980000
462.894867	144.720000
462.988556	144.940000
463.082275	145.320000
463.175964	144.660000
463.269684	145.100000
463.363342	144.980000
463.457092	144.680000
463.550751	144.880000
463.644470	145.140000
463.738129	144.940000
463.831879	144.820000
463.925537	145.500000
464.019257	145.640000
464.112946	145.860000
464.206665	145.700000
464.300323	145.580000
464.394043	145.100000
464.487762	144.760000
464.581451	144.900000
464.675140	144.780000
464.768829	145.080000
464.862549	145.460000
464.956238	145.960000
465.049927	146.120000
465.143646	146.400000
465.237335	146.160000
465.331024	146.640000
465.424713	146.540000
465.518433	146.440000
465.612152	146.040000
465.705811	146.340000
465.799561	145.680000
465.893219	145.180000
465.986938	144.940000
466.080597	144.780000
466.174347	145.040000
466.268005	145.340000
466.361725	145.500000
466.455414	145.420000
466.549133	145.420000
466.642792	145.420000
466.736542	144.640000
466.830231	144.820000
466.923920	144.840000
467.017609	145.080000
467.111328	144.240000
467.205017	144.920000
467.298706	144.900000
467.392426	145.300000
467.486115	145.300000
467.579803	145.360000
467.673523	145.540000
467.767212	145.520000
467.860901	145.140000
467.954651	145.540000
468.048309	146.260000
468.142029	145.900000
468.235718	145.680000
468.329437	145.520000
468.423096	145.580000
468.516846	145.160000
468.610504	144.900000
468.704224	144.800000
468.797913	145.020000
468.891632	144.960000
468.985291	144.880000
469.079010	144.880000
469.172729	144.420000
469.266418	144.800000
469.360107	144.740000
469.453827	144.640000
469.547516	145.060000
469.641205	145.980000
469.734924	145.920000
469.828613	146.080000
469.922302	146.380000
470.016022	146.080000
470.109711	145.600000
470.203430	144.600000
470.297150	143.700000
470.390808	144.000000
470.484558	144.040000
470.578217	144.320000
470.671936	145.080000
470.765625	146.100000
470.859344	145.460000
470.953003	145.760000
471.046753	145.640000
471.140411	145.080000
471.234131	144.820000
471.327820	145.460000
471.421539	145.580000
471.515228	145.260000
471.608948	145.780000
471.702637	145.120000
471.796326	144.540000
471.890045	144.460000
471.983734	144.680000
472.077423	144.360000
472.171143	144.900000
472.264832	144.920000
472.358521	144.460000
472.452240	144.240000
472.545929	144.940000
472.639648	145.000000
472.733337	145.380000
472.827057	145.780000
472.920746	145.980000
473.014465	145.920000
473.108124	146.060000
473.201874	146.340000
473.295532	146.040000
473.389252	146.540000
473.482941	146.660000
473.576660	146.220000
473.670319	145.700000
473.764069	145.920000
473.857727	145.780000
473.951477	145.940000
474.045166	146.500000
474.138855	146.460000
474.232574	146.560000
474.326263	146.480000
474.419952	146.340000
474.513672	146.120000
474.607361	146.000000
474.701050	145.900000
474.794769	146.100000
474.888458	146.100000
474.982178	146.200000
475.075867	146.720000
475.169586	146.460000
475.263275	146.320000
475.356995	146.380000
475.450653	145.840000
475.544403	145.200000
475.638062	146.200000
475.731812	145.920000
475.825470	145.300000
475.919189	145.660000
476.012878	145.940000
476.106598	144.820000
476.200256	145.060000
476.294006	145.020000
476.387695	145.060000
476.481384	145.060000
476.575104	145.340000
476.668793	144.940000
476.762512	144.840000
476.856201	145.400000
476.949890	145.340000
477.043610	144.880000
477.137299	145.020000
477.230988	145.400000
477.324707	144.780000
477.418396	145.240000
477.512146	145.680000
477.605804	145.760000
477.699524	145.840000
477.793213	145.740000
477.886932	145.560000
477.980591	145.240000
478.074341	145.000000
478.167999	144.500000
478.261749	144.460000
478.355408	144.220000
478.449127	144.760000
478.542816	145.560000
478.636536	146.380000
478.730225	146.460000
478.823944	146.740000
478.917633	146.660000
479.011322	146.760000
479.105042	146.400000
479.198730	146.760000
479.292450	146.580000
479.386139	146.660000
479.479828	146.000000
479.573547	146.240000
479.667267	145.980000
479.760925	145.880000
479.854675	146.220000
479.948334	146.360000
480.042084	145.540000
480.135742	145.760000
480.229462	145.320000
480.323151	144.940000
480.416870	144.560000
480.510529	144.920000
480.604279	144.280000
480.697937	144.900000
480.791656	144.360000
480.885345	144.300000
480.979065	144.260000
481.072754	144.900000
481.166473	145.220000
481.260132	145.360000
481.353882	145.400000
481.447540	145.440000
481.541260	145.500000
481.635010	144.700000
481.728668	144.900000
481.822388	145.260000
481.916077	145.300000
482.009796	145.020000
482.103485	145.800000
482.197205	145.600000
482.290863	145.400000
482.384613	145.420000
482.478271	145.060000
482.571991	144.720000
482.665680	145.000000
482.759399	145.960000
482.853058	146.520000
482.946808	146.900000
483.040466	146.360000
483.134216	146.040000
483.227875	144.940000
483.321594	145.000000
483.415283	144.920000
483.509003	145.320000
483.602661	145.420000
483.696411	146.160000
483.790070	145.880000
483.883789	145.960000
483.977478	146.060000
484.071198	146.120000
484.164917	145.600000
484.258606	145.180000
484.352325	145.440000
484.445984	145.380000
484.539734	145.000000
484.633392	144.620000
484.727142	145.080000
484.820801	144.700000
484.914520	144.920000
485.008209	145.560000
485.101929	146.280000
485.195587	145.820000
485.289337	145.740000
485.382996	145.500000
485.476715	145.420000
485.570404	145.780000
485.664124	145.800000
485.757782	146.420000
485.851532	146.060000
485.945190	145.960000
486.038910	145.520000
486.132599	145.980000
486.226318	145.360000
486.319977	145.520000
486.413727	145.900000
486.507446	145.240000
486.601105	144.540000
486.694855	144.440000
486.788513	144.480000
486.882233	144.260000
486.975922	144.640000
487.069641	144.780000
487.163300	144.860000
487.257050	145.980000
487.350708	145.480000
487.444427	145.200000
487.538116	145.160000
487.631836	145.020000
487.725494	144.340000
487.819214	144.620000
487.912903	144.520000
488.006622	144.920000
488.100281	145.520000
488.194031	145.300000
488.287689	145.740000
488.381409	146.500000
488.475098	146.240000
488.568817	146.160000
488.662476	145.900000
488.756226	145.340000
488.849945	144.620000
488.943604	144.920000
489.037354	144.780000
489.131012	144.920000
489.224731	144.900000
489.318390	145.020000
489.412140	144.940000
489.505798	144.820000
489.599518	144.660000
489.693207	144.900000
489.786926	144.880000
489.880585	144.660000
489.974335	145.220000
490.067993	146.060000
490.161713	146.220000
490.255371	147.040000
490.349121	147.360000
490.442780	146.940000
490.536499	146.240000
490.630188	146.140000
490.723907	145.380000
490.817566	145.320000
490.911285	145.260000
491.004974	145.120000
491.098694	144.680000
491.192413	145.060000
491.286102	144.580000
491.379822	144.880000
491.473480	145.260000
491.567200	145.340000
491.660889	145.000000
491.754608	145.480000
491.848267	145.120000
491.941986	145.060000
492.035675	145.540000
492.129395	145.940000
492.223053	145.420000
492.316772	145.540000
492.410461	145.580000
492.504181	145.380000
492.597839	144.840000
492.691559	145.240000
492.785248	145.580000
492.878967	145.500000
492.972626	145.320000
493.066345	145.600000
493.160034	145.120000
493.253754	144.880000
493.347412	144.320000
493.441132	144.260000
493.534882	144.840000
493.628540	145.440000
493.722260	145.180000
493.815918	145.920000
493.909668	146.660000
494.003326	146.560000
494.097046	146.580000
494.190704	146.320000
494.284454	146.140000
494.378113	145.680000
494.471832	145.560000
494.565491	145.120000
494.659210	145.540000
494.752899	145.720000
494.846619	145.540000
494.940277	145.620000
495.033997	145.700000
495.127686	145.520000
495.221405	145.160000
495.315063	145.600000
495.408783	145.460000
495.502441	145.820000
495.596191	146.040000
495.689850	145.980000
495.783569	145.980000
495.877228	145.800000
495.970947	145.260000
496.064697	145.160000
496.158356	146.240000
496.252075	145.900000
496.345734	145.720000
496.439453	146.560000
496.533142	146.460000
496.626862	145.900000
496.720520	146.140000
496.814240	146.620000
496.907898	146.240000
497.001617	146.540000
497.095306	146.020000
497.189026	145.700000
497.282684	145.240000
497.376404	145.420000
497.470062	145.020000
497.563782	145.300000
497.657471	145.280000
497.751190	145.260000
497.844849	145.100000
497.938568	145.400000
498.032227	145.480000
498.125946	145.700000
498.219635	145.660000
498.313354	145.700000
498.407074	145.420000
498.500732	145.460000
498.594452	145.460000
498.688110	145.580000
498.781830	145.100000
498.875519	145.140000
498.969238	145.020000
499.062897	144.840000
499.156616	145.240000
499.250275	145.820000
499.343994	145.580000
499.437653	145.500000
499.531372	146.040000
499.625061	146.420000
499.718781	146.340000
499.812439	146.820000
499.906158	146.740000
499.999817	146.280000
500.093536	145.660000
500.187195	145.780000
500.280914	145.740000
500.374573	146.220000
500.468323	145.920000
500.561981	146.300000
500.655701	145.540000
500.749420	145.380000
500.843079	145.240000
500.936798	145.600000
501.030457	145.760000
501.124176	146.360000
501.217834	146.100000
501.311554	145.780000
501.405212	145.460000
501.498962	144.540000
501.592621	144.280000
501.686340	144.740000
501.779999	145.100000
501.873718	145.500000
501.967377	145.800000
502.061096	146.260000
502.154755	145.840000
502.248474	145.580000
502.342133	145.580000
502.435852	145.460000
502.529510	145.800000
502.623230	146.440000
502.716888	146.220000
502.810608	146.100000
502.904266	146.800000
502.997986	146.300000
503.091705	145.740000
503.185364	145.920000
503.279083	145.840000
503.372772	145.240000
503.466492	145.060000
503.560150	145.240000
503.653870	145.640000
503.747528	145.680000
503.841248	145.660000
503.934906	145.800000
504.028625	145.720000
504.122284	145.720000
504.216003	146.500000
504.309662	146.320000
504.403381	146.520000
504.497040	146.400000
504.590759	146.060000
504.684418	146.100000
504.778137	146.680000
504.871796	146.800000
504.965515	146.440000
505.059174	146.700000
505.152893	145.760000
505.246521	145.140000
505.340240	144.660000
505.433899	145.340000
505.527618	145.340000
505.621338	145.800000
505.714996	145.880000
505.808716	145.780000
505.902374	146.000000
505.996094	146.220000
506.089752	146.100000
506.183472	146.420000
506.277130	146.660000
506.370850	146.360000
506.464508	146.080000
506.558228	145.900000
506.651886	145.260000
506.745605	145.220000
506.839264	145.400000
506.932983	145.280000
507.026611	145.180000
507.120331	145.960000
507.213989	145.440000
507.307709	145.240000
507.401367	145.700000
507.495087	146.540000
507.588745	145.840000
507.682465	147.200000
507.776123	147.300000
507.869843	146.700000
507.963531	146.160000
508.057190	146.820000
508.150909	145.720000
508.244568	145.820000
508.338287	145.460000
508.431946	145.220000
508.525665	145.000000
508.619324	144.920000
508.713013	145.020000
508.806671	145.720000
508.900391	146.620000
508.994049	146.720000
509.087769	146.840000
509.181427	146.920000
509.275146	146.520000
509.368774	145.620000
509.462494	145.420000
509.556152	145.440000
509.649872	145.480000
509.743530	145.880000
509.837250	146.020000
509.930878	146.020000
510.024597	145.960000
510.118256	145.760000
510.211975	145.580000
510.305695	145.540000
510.399353	145.880000
510.493042	146.420000
510.586700	146.240000
510.680420	146.540000
510.774078	146.520000
510.867798	146.520000
510.961426	145.860000
511.055145	145.680000
511.148804	145.220000
511.242523	145.560000
511.336151	145.660000
511.429871	146.120000
511.523529	146.220000
511.617249	146.000000
511.710876	145.500000
511.804596	145.000000
511.898254	144.840000
511.991974	144.900000
512.085632	144.780000
512.179321	145.140000
512.272949	145.480000
512.366699	145.700000
512.460327	145.860000
512.554077	146.800000
512.647766	146.620000
512.741394	146.660000
512.835144	147.140000
512.928772	146.880000
513.022461	146.880000
513.116150	146.720000
513.209839	146.940000
513.303467	146.020000
513.397217	145.800000
513.490845	145.280000
513.584595	145.180000
513.678223	144.500000
513.771912	144.180000
513.865601	144.580000
513.959290	144.240000
514.052917	144.220000
514.146667	145.020000
514.240295	145.580000
514.333984	145.820000
514.427673	145.720000
514.521362	146.120000
514.614990	145.560000
514.708740	145.820000
514.802368	145.800000
514.896057	146.360000
514.989746	146.940000
515.083435	146.840000
515.177124	147.040000
515.270752	146.740000
515.364502	146.900000
515.458130	146.720000
515.551819	146.580000
515.645508	145.860000
515.739197	145.740000
515.832825	145.460000
515.926575	144.840000
516.020203	145.240000
516.113892	145.940000
516.207520	145.780000
516.301270	145.800000
516.394897	145.960000
516.488586	146.420000
516.582275	146.260000
516.675964	145.980000
516.769592	145.640000
516.863281	146.260000
516.956970	146.320000
517.050659	145.920000
517.144287	146.240000
517.238037	146.800000
517.331665	146.000000
517.425354	145.360000
517.519043	145.500000
517.612732	145.880000
517.706421	145.640000
517.800049	145.780000
517.893738	145.460000
517.987427	145.140000
518.081116	144.680000
518.174744	144.420000
518.268433	144.640000
518.362122	145.580000
518.455811	145.960000
518.549438	146.940000
518.643127	147.920000
518.736816	147.680000
518.830505	146.940000
518.924133	147.080000
519.017822	146.600000
519.111511	145.840000
519.205200	146.460000
519.298828	146.480000
519.392517	146.100000
519.486206	146.320000
519.579895	146.680000
519.673523	145.980000
519.767212	146.080000
519.860901	146.280000
519.954590	145.880000
520.048279	145.340000
520.141907	145.440000
520.235596	146.340000
520.329224	146.720000
520.422974	146.860000
520.516602	147.060000
520.610291	146.820000
520.703918	146.460000
520.797607	146.000000
520.891296	145.720000
520.984985	145.760000
521.078613	146.360000
521.172302	145.560000
521.265930	146.280000
521.359680	146.940000
521.453308	146.800000
521.546997	146.640000
521.640625	146.960000
521.734314	146.380000
521.827942	145.980000
521.921692	146.260000
522.015320	146.120000
522.109009	146.000000
522.202698	145.660000
522.296326	145.520000
522.390015	145.820000
522.483704	146.020000
522.577393	146.000000
522.671021	146.180000
522.764709	146.080000
522.858337	146.120000
522.952026	145.900000
523.045654	146.480000
523.139404	147.200000
523.233032	147.420000
523.326721	147.000000
523.420349	147.140000
523.514038	146.380000
523.607666	146.420000
523.701355	145.860000
523.795044	145.800000
523.888733	145.740000
523.982361	146.300000
524.076050	145.620000
524.169678	146.460000
524.263367	146.340000
524.356995	146.120000
524.450684	145.780000
524.544373	145.480000
524.638062	145.140000
524.731750	145.480000
524.825378	145.360000
524.919067	144.940000
525.012695	145.040000
525.106384	144.840000
525.200012	144.660000
525.293701	144.720000
525.387329	145.400000
525.481018	145.720000
525.574646	146.260000
525.668396	146.420000
525.762024	146.960000
525.855713	147.120000
525.949341	146.680000
526.043030	146.480000
526.136658	145.940000
526.230347	145.680000
526.323975	145.280000
526.417664	145.560000
526.511292	145.680000
526.604980	146.040000
526.698608	145.840000
526.792297	145.900000
526.885925	146.220000
526.979614	146.020000
527.073303	145.980000
527.166931	146.140000
527.260620	146.320000
527.354309	146.600000
527.447998	146.420000
527.541626	146.220000
527.635315	146.260000
527.728943	146.500000
527.822632	146.100000
527.916260	146.360000
528.009949	146.840000
528.103577	146.640000
528.197266	146.180000
528.290894	146.300000
528.384583	146.360000
528.478210	146.260000
528.571899	146.540000
528.665527	147.020000
528.759216	147.000000
528.852844	147.180000
528.946533	147.160000
529.040161	146.920000
529.133850	146.440000
529.227478	146.660000
529.321167	146.940000
529.414856	147.160000
529.508484	147.540000
529.602173	147.440000
529.695801	147.040000
529.789490	146.420000
529.883057	146.120000
529.976746	146.240000
530.070374	146.920000
530.164062	147.300000
530.257690	147.620000
530.351379	147.480000
530.445007	147.320000
530.538696	146.240000
530.632324	146.080000
530.726013	146.220000
530.819641	146.420000
530.913330	146.480000
531.006958	147.040000
531.100647	147.060000
531.194275	146.720000
531.287964	146.620000
531.381592	146.200000
531.475220	146.420000
531.568848	146.220000
531.662537	146.020000
531.756226	146.360000
531.849854	146.620000
531.943542	146.200000
532.037170	145.640000
532.130859	146.320000
532.224487	145.960000
532.318176	145.560000
532.411804	146.060000
532.505432	146.640000
532.599060	145.960000
532.692749	145.760000
532.786377	146.440000
532.880066	145.840000
532.973694	145.440000
533.067383	145.380000
533.161011	145.500000
533.254639	144.900000
533.348267	144.820000
533.441956	145.080000
533.535583	145.220000
533.629272	145.440000
533.722900	145.140000
533.816589	145.660000
533.910156	146.140000
534.003845	145.820000
534.097534	146.140000
534.191162	147.020000
534.284851	146.880000
534.378479	146.540000
534.472107	146.920000
534.565735	146.260000
534.659424	146.420000
534.753052	146.540000
534.846741	145.960000
534.940369	146.300000
535.033997	146.420000
535.127625	146.040000
535.221313	146.600000
535.314941	146.820000
535.408630	145.860000
535.502197	146.460000
535.595886	146.060000
535.689514	145.340000
535.783203	145.980000
535.876831	147.020000
535.970459	146.280000
536.064087	146.420000
536.157776	146.300000
536.251404	146.000000
536.345093	145.400000
536.438721	145.540000
536.532349	145.520000
536.626038	145.580000
536.719666	145.940000
536.813293	145.840000
536.906921	146.020000
537.000610	146.420000
537.094238	146.220000
537.187866	146.020000
537.281494	146.200000
537.375183	146.400000
537.468811	146.560000
537.562439	146.820000
537.656067	146.680000
537.749756	146.740000
537.843384	147.120000
537.937012	146.520000
538.030640	146.140000
538.124329	146.020000
538.217896	146.360000
538.311584	146.000000
538.405212	145.920000
538.498901	146.360000
538.592468	147.120000
538.686157	146.400000
538.779785	145.420000
538.873413	145.340000
538.967102	144.920000
539.060730	143.820000
539.154358	144.580000
539.247986	145.220000
539.341675	145.660000
539.435242	145.680000
539.528931	146.160000
539.622559	145.380000
539.716187	146.080000
539.809814	145.720000
539.903503	145.940000
539.997070	145.560000
540.090759	145.880000
540.184387	145.300000
540.278015	145.840000
540.371643	145.900000
540.465332	146.340000
540.558899	146.320000
540.652588	146.160000
540.746216	146.100000
540.839844	146.700000
540.933472	146.320000
541.027100	146.060000
541.120728	146.540000
541.214417	146.360000
541.308044	146.060000
541.401672	146.080000
541.495300	145.960000
541.588928	145.480000
541.682617	145.400000
541.776184	144.620000
541.869873	144.960000
541.963440	145.400000
542.057129	145.500000
542.150757	145.680000
542.244385	145.940000
542.338013	145.620000
542.431641	145.560000
542.525269	145.700000
542.618958	145.940000
542.712524	146.420000
542.806213	146.380000
542.899780	146.520000
542.993469	146.100000
543.087036	145.760000
543.180725	145.240000
543.274292	145.640000
543.367981	145.860000
543.461548	146.320000
543.555237	146.420000
543.648926	147.040000
543.742493	147.460000
543.836182	147.200000
543.929749	146.860000
544.023437	146.600000
544.117004	146.440000
544.210693	146.160000
544.304260	145.940000
544.397949	146.020000
544.491516	146.480000
544.585205	146.420000
544.678772	145.820000
544.772461	146.400000
544.866028	146.340000
544.959717	146.320000
545.053284	146.160000
545.146973	146.820000
545.240540	146.840000
545.334229	147.560000
545.427795	147.480000
545.521423	147.940000
545.615051	147.620000
545.708679	147.740000
545.802307	147.180000
545.895935	147.620000
545.989624	147.980000
546.083191	147.860000
546.176880	147.680000
546.270447	147.520000
546.364136	147.560000
546.457703	146.960000
546.551331	147.080000
546.644958	147.240000
546.738586	147.700000
546.832214	147.020000
546.925842	146.680000
547.019409	147.000000
547.113098	146.420000
547.206665	145.920000
547.300354	146.100000
547.393921	146.280000
547.487549	146.000000
547.581177	145.960000
547.674805	146.000000
547.768433	145.380000
547.862061	145.400000
547.955627	144.560000
548.049316	145.040000
548.142883	145.380000
548.236572	146.120000
548.330139	146.300000
548.423767	146.940000
548.517456	146.800000
548.611023	146.680000
548.704651	145.940000
548.798279	145.960000
548.891907	146.440000
548.985474	146.140000
549.079163	146.600000
549.172729	146.660000
549.266357	146.040000
549.359985	145.780000
549.453613	145.400000
549.547180	144.900000
549.640869	145.360000
549.734436	145.480000
549.828064	146.020000
549.921631	146.100000
550.015320	145.760000
550.108887	145.960000
550.202515	146.160000
550.296143	145.320000
550.389771	145.660000
550.483337	145.960000
550.576965	145.520000
550.670593	145.820000
550.764221	146.140000
550.857849	145.940000
550.951477	145.480000
551.045105	145.120000
551.138672	144.880000
551.232300	144.380000
551.325928	144.580000
551.419556	144.940000
551.513123	145.580000
551.606750	145.140000
551.700378	145.340000
551.794006	145.540000
551.887573	145.460000
551.981201	145.640000
552.074768	146.060000
552.168457	146.080000
552.262024	146.620000
552.355652	146.640000
552.449219	146.700000
552.542847	146.820000
552.636475	146.840000
552.730103	146.000000
552.823669	146.080000
552.917297	145.640000
553.010864	145.440000
553.104553	145.580000
553.198181	145.360000
553.291748	145.600000
553.385376	145.780000
553.478943	145.960000
553.572571	145.720000
553.666199	145.920000
553.759827	145.800000
553.853394	145.480000
553.947021	145.460000
554.040588	145.980000
554.134216	146.060000
554.227783	146.340000
554.321411	147.060000
554.415039	146.640000
554.508667	146.300000
554.602234	146.640000
554.695862	146.100000
554.789429	145.900000
554.883057	146.420000
554.976624	146.420000
555.070251	146.320000
555.163818	146.340000
555.257507	146.140000
555.351074	145.740000
555.444702	146.600000
555.538330	146.120000
555.631897	146.380000
555.725525	146.320000
555.819092	146.180000
555.912720	145.220000
556.006287	145.960000
556.099915	145.880000
556.193481	145.900000
556.287109	146.420000
556.380676	146.380000
556.474304	146.200000
556.567871	146.320000
556.661499	145.720000
556.755066	145.580000
556.848694	145.740000
556.942261	145.520000
557.035889	145.740000
557.129517	146.080000
557.223145	146.240000
557.316711	146.480000
557.410339	146.640000
557.503906	146.180000
557.597473	146.620000
557.691040	146.520000
557.784668	146.260000
557.878296	146.380000
557.971863	146.740000
558.065491	146.760000
558.159058	146.560000
558.252686	147.320000
558.346252	147.740000
558.439880	147.000000
558.533447	146.780000
558.627075	146.420000
558.720642	145.760000
558.814270	145.120000
558.907837	145.600000
559.001465	145.180000
559.095032	146.260000
559.188660	146.440000
559.282227	145.980000
559.375854	146.620000
559.469360	146.480000
559.562988	146.440000
559.656555	146.480000
559.750183	146.820000
559.843750	146.740000
559.937378	147.140000
560.030945	147.140000
560.124573	0.000000
560.218140	0.000000
560.311707	0.000000
560.405334	0.000000
560.498901	0.000000
560.592529	0.000000
560.686096	0.000000
560.779724	0.000000
560.873291	0.000000
560.966858	0.000000
561.060425	0.000000
561.154053	0.000000
561.247620	0.000000
561.341248	0.000000
561.434814	0.000000
561.528381	0.000000
561.621948	0.000000
561.715576	0.000000
561.809143	0.000000
561.902771	0.000000
561.996277	0.000000
562.089905	0.000000
562.183472	0.000000
562.277100	0.000000
