Model Number: SPM-002-B   
Serial Number: 70087108
Firmware Version: 004.15.4
Exposure Time: 100000.000000us
Data Taken on: 11-12-2020 19:31:58.610
Wavelength	Amplitude
221.570786	0.000000
221.663406	0.000000
221.756027	0.000000
221.848648	0.000000
221.941269	0.000000
222.033905	0.000000
222.126526	0.000000
222.219162	0.000000
222.311798	0.000000
222.404419	0.000000
222.497055	0.000000
222.589676	0.000000
222.682312	0.000000
222.774933	0.000000
222.867569	0.000000
222.960205	0.000000
223.052841	0.000000
223.145462	0.000000
223.238098	0.000000
223.330734	0.000000
223.423386	0.000000
223.516022	0.000000
223.608658	0.000000
223.701309	0.000000
223.793945	0.000000
223.886581	0.000000
223.979218	0.000000
224.071869	0.000000
224.164505	0.000000
224.257156	0.000000
224.349792	0.000000
224.442444	0.000000
224.535095	0.000000
224.627747	0.000000
224.720398	0.000000
224.813034	0.000000
224.905685	0.000000
224.998337	145.040000
225.090988	144.920000
225.183640	145.020000
225.276291	145.080000
225.368942	145.580000
225.461594	146.180000
225.554245	146.320000
225.646912	146.100000
225.739578	146.700000
225.832230	147.180000
225.924896	146.140000
226.017548	146.420000
226.110199	147.140000
226.202866	146.140000
226.295532	145.680000
226.388184	145.740000
226.480850	145.180000
226.573517	144.320000
226.666168	144.980000
226.758835	145.560000
226.851501	146.500000
226.944183	146.740000
227.036850	146.600000
227.129517	146.420000
227.222183	145.940000
227.314850	145.480000
227.407516	145.900000
227.500198	146.920000
227.592865	146.300000
227.685532	146.120000
227.778214	145.620000
227.870880	145.600000
227.963562	145.480000
228.056229	146.080000
228.148926	146.120000
228.241592	147.160000
228.334274	146.880000
228.426956	146.780000
228.519638	146.980000
228.612305	146.600000
228.704987	146.280000
228.797668	146.320000
228.890350	145.940000
228.983032	144.860000
229.075714	145.920000
229.168396	145.360000
229.261108	144.940000
229.353790	144.760000
229.446472	145.740000
229.539169	145.140000
229.631851	144.860000
229.724533	145.220000
229.817230	145.380000
229.909912	145.980000
230.002609	145.900000
230.095306	146.220000
230.187988	146.080000
230.280685	146.260000
230.373383	144.960000
230.466095	145.000000
230.558792	145.540000
230.651474	145.620000
230.744171	145.480000
230.836868	145.660000
230.929581	145.840000
231.022278	145.720000
231.114975	145.780000
231.207672	145.760000
231.300369	146.320000
231.393082	146.300000
231.485779	145.980000
231.578506	145.900000
231.671204	145.980000
231.763916	145.520000
231.856613	145.440000
231.949326	145.760000
232.042023	145.900000
232.134735	145.640000
232.227448	145.760000
232.320160	145.940000
232.412872	146.100000
232.505585	146.720000
232.598297	147.380000
232.691010	147.260000
232.783722	146.880000
232.876450	147.020000
232.969162	146.380000
233.061874	145.740000
233.154587	145.500000
233.247314	145.700000
233.340027	145.020000
233.432739	145.520000
233.525467	145.520000
233.618179	146.200000
233.710907	146.000000
233.803635	146.620000
233.896347	145.860000
233.989090	146.480000
234.081818	146.020000
234.174545	146.340000
234.267258	145.840000
234.359985	146.400000
234.452713	146.020000
234.545441	145.920000
234.638168	145.460000
234.730896	145.800000
234.823639	145.560000
234.916367	145.960000
235.009094	146.000000
235.101822	146.100000
235.194580	145.880000
235.287308	145.820000
235.380051	145.220000
235.472778	145.920000
235.565521	146.440000
235.658249	146.260000
235.750992	146.260000
235.843719	146.280000
235.936462	145.740000
236.029205	145.280000
236.121948	145.020000
236.214691	145.080000
236.307449	145.620000
236.400192	145.580000
236.492935	145.320000
236.585678	145.640000
236.678421	145.700000
236.771164	145.300000
236.863907	145.400000
236.956665	145.480000
237.049408	147.060000
237.142151	146.540000
237.234909	147.360000
237.327652	147.620000
237.420410	147.640000
237.513153	146.360000
237.605927	146.320000
237.698669	145.840000
237.791428	145.100000
237.884186	145.860000
237.976944	145.320000
238.069702	145.940000
238.162445	145.200000
238.255203	145.320000
238.347961	145.320000
238.440720	145.440000
238.533478	145.220000
238.626266	145.260000
238.719025	145.840000
238.811783	145.340000
238.904541	145.240000
238.997314	144.720000
239.090073	144.540000
239.182831	144.560000
239.275604	145.360000
239.368362	145.360000
239.461136	145.840000
239.553909	145.960000
239.646667	145.500000
239.739441	145.100000
239.832214	145.220000
239.925003	145.380000
240.017761	146.080000
240.110535	146.560000
240.203308	145.820000
240.296082	146.000000
240.388855	145.800000
240.481628	145.820000
240.574417	146.020000
240.667191	146.380000
240.759964	146.080000
240.852737	146.080000
240.945526	145.760000
241.038315	145.380000
241.131088	145.400000
241.223877	145.840000
241.316650	145.640000
241.409439	145.460000
241.502228	145.060000
241.595001	145.640000
241.687790	145.480000
241.780579	145.520000
241.873367	146.160000
241.966141	146.600000
242.058929	145.640000
242.151718	145.880000
242.244507	146.300000
242.337311	145.520000
242.430099	146.000000
242.522903	146.300000
242.615692	145.680000
242.708481	145.500000
242.801270	146.040000
242.894073	145.700000
242.986862	145.860000
243.079651	146.420000
243.172455	146.340000
243.265244	146.440000
243.358063	145.720000
243.450867	145.960000
243.543655	145.940000
243.636459	145.800000
243.729263	146.000000
243.822067	146.280000
243.914856	146.320000
244.007660	146.440000
244.100464	146.440000
244.193268	145.660000
244.286072	145.640000
244.378876	145.000000
244.471680	144.460000
244.564499	145.220000
244.657318	146.220000
244.750122	146.620000
244.842926	146.540000
244.935745	147.100000
245.028549	146.440000
245.121368	145.700000
245.214172	145.740000
245.306992	146.400000
245.399796	145.840000
245.492615	145.780000
245.585434	145.660000
245.678253	145.460000
245.771072	145.080000
245.863892	145.640000
245.956711	146.080000
246.049530	146.220000
246.142349	145.860000
246.235168	145.720000
246.327988	146.320000
246.420807	145.740000
246.513626	145.840000
246.606445	145.820000
246.699280	145.980000
246.792099	145.520000
246.884918	145.480000
246.977753	145.040000
247.070587	145.300000
247.163422	145.440000
247.256241	145.300000
247.349075	145.960000
247.441895	146.260000
247.534729	146.400000
247.627563	146.260000
247.720383	146.800000
247.813217	146.320000
247.906052	146.020000
247.998886	146.060000
248.091736	146.000000
248.184570	145.300000
248.277405	145.420000
248.370239	146.660000
248.463074	147.360000
248.555908	147.600000
248.648743	147.280000
248.741592	147.380000
248.834427	146.440000
248.927261	145.080000
249.020111	145.360000
249.112946	146.040000
249.205795	145.720000
249.298630	145.780000
249.391495	146.300000
249.484344	145.720000
249.577179	145.500000
249.670029	145.700000
249.762878	146.240000
249.855728	146.400000
249.948563	146.560000
250.041412	146.120000
250.134262	146.460000
250.227112	146.460000
250.319962	146.360000
250.412827	146.360000
250.505692	146.040000
250.598541	145.980000
250.691391	145.320000
250.784241	145.620000
250.877106	145.740000
250.969955	146.000000
251.062805	146.380000
251.155670	146.740000
251.248520	146.140000
251.341385	146.440000
251.434235	146.540000
251.527100	146.040000
251.619965	145.760000
251.712814	146.460000
251.805695	146.120000
251.898560	146.340000
251.991425	146.680000
252.084290	147.040000
252.177155	146.260000
252.270020	146.200000
252.362885	146.000000
252.455750	145.840000
252.548615	145.580000
252.641479	145.600000
252.734360	145.460000
252.827240	145.320000
252.920105	145.100000
253.012970	144.740000
253.105850	144.660000
253.198715	144.400000
253.291595	144.560000
253.384460	144.520000
253.477341	144.640000
253.570221	145.260000
253.663086	145.420000
253.755966	146.160000
253.848846	146.260000
253.941727	146.600000
254.034592	146.120000
254.127472	145.920000
254.220367	145.520000
254.313248	145.500000
254.406128	145.060000
254.499008	145.320000
254.591904	146.100000
254.684784	146.400000
254.777664	146.440000
254.870544	146.440000
254.963440	146.600000
255.056335	146.520000
255.149216	145.840000
255.242111	146.420000
255.334991	146.800000
255.427887	146.600000
255.520767	146.540000
255.613663	147.260000
255.706558	146.320000
255.799438	145.920000
255.892334	145.580000
255.985229	145.320000
256.078125	144.880000
256.171021	145.240000
256.263916	146.120000
256.356812	146.660000
256.449707	146.860000
256.542603	146.740000
256.635498	147.220000
256.728394	146.760000
256.821289	146.440000
256.914215	146.700000
257.007080	146.880000
257.100006	146.520000
257.192932	146.820000
257.285828	147.180000
257.378723	146.840000
257.471619	146.620000
257.564545	146.100000
257.657440	146.100000
257.750336	146.320000
257.843262	146.180000
257.936157	147.320000
258.029053	148.100000
258.121979	147.920000
258.214874	147.700000
258.307800	147.720000
258.400696	146.560000
258.493622	146.180000
258.586517	145.400000
258.679443	145.560000
258.772339	145.240000
258.865265	145.240000
258.958160	144.840000
259.051086	145.640000
259.144012	145.380000
259.236938	146.020000
259.329834	146.260000
259.422791	146.220000
259.515717	145.680000
259.608612	145.300000
259.701538	145.300000
259.794464	145.040000
259.887390	145.240000
259.980316	145.340000
260.073212	145.280000
260.166138	144.520000
260.259064	145.120000
260.351990	145.300000
260.444916	145.340000
260.537842	146.120000
260.630768	146.680000
260.723694	146.260000
260.816620	146.300000
260.909546	146.300000
261.002472	145.720000
261.095398	145.380000
261.188354	145.380000
261.281281	144.920000
261.374207	145.120000
261.467133	145.720000
261.560089	145.960000
261.653015	145.440000
261.745972	146.220000
261.838867	146.440000
261.931824	146.480000
262.024780	145.940000
262.117706	146.420000
262.210663	146.380000
262.303589	146.360000
262.396515	146.080000
262.489471	147.100000
262.582397	146.800000
262.675354	146.460000
262.768280	146.280000
262.861237	146.360000
262.954163	145.920000
263.047119	146.200000
263.140045	145.900000
263.233002	145.740000
263.325958	145.700000
263.418884	145.400000
263.511841	145.140000
263.604797	145.300000
263.697723	145.300000
263.790680	145.280000
263.883636	145.920000
263.976593	146.000000
264.069550	146.240000
264.162476	146.060000
264.255463	145.880000
264.348419	145.420000
264.441376	145.760000
264.534332	145.040000
264.627289	145.340000
264.720245	145.720000
264.813202	145.500000
264.906158	145.640000
264.999115	146.460000
265.092072	146.140000
265.185028	146.480000
265.277985	146.660000
265.370941	146.340000
265.463898	145.900000
265.556854	146.120000
265.649811	145.000000
265.742798	145.100000
265.835754	145.560000
265.928711	145.880000
266.021667	145.860000
266.114655	146.320000
266.207611	146.540000
266.300568	145.800000
266.393585	145.620000
266.486511	146.060000
266.579498	145.220000
266.672485	144.920000
266.765442	145.120000
266.858429	145.720000
266.951385	145.020000
267.044342	145.540000
267.137329	145.760000
267.230316	146.140000
267.323273	145.440000
267.416260	146.140000
267.509216	146.120000
267.602203	145.980000
267.695160	146.280000
267.788147	146.620000
267.881134	146.160000
267.974091	146.420000
268.067078	146.180000
268.160065	145.500000
268.253052	145.080000
268.346008	145.360000
268.438995	144.960000
268.531982	145.100000
268.624969	145.240000
268.717987	145.620000
268.810944	145.240000
268.903961	145.780000
268.996948	145.720000
269.089905	146.180000
269.182892	146.320000
269.275879	146.920000
269.368866	146.360000
269.461853	146.580000
269.554871	146.280000
269.647858	145.860000
269.740845	146.040000
269.833832	146.340000
269.926819	146.160000
270.019806	146.240000
270.112793	145.780000
270.205811	145.580000
270.298798	145.420000
270.391785	146.000000
270.484772	145.560000
270.577789	146.240000
270.670776	145.520000
270.763763	145.620000
270.856750	145.620000
270.949768	145.340000
271.042786	145.280000
271.135773	145.580000
271.228790	145.740000
271.321808	144.980000
271.414795	144.980000
271.507782	144.540000
271.600800	144.260000
271.693817	144.440000
271.786804	144.860000
271.879822	145.260000
271.972809	145.640000
272.065826	146.260000
272.158844	145.720000
272.251831	146.260000
272.344849	146.420000
272.437866	146.020000
272.530853	145.880000
272.623871	146.460000
272.716888	145.580000
272.809906	145.760000
272.902893	145.720000
272.995911	145.040000
273.088928	145.080000
273.181946	145.320000
273.274963	144.520000
273.367981	144.720000
273.460999	145.060000
273.554047	145.320000
273.647003	145.740000
273.740051	146.300000
273.833069	146.760000
273.926086	147.140000
274.019135	146.660000
274.112152	146.380000
274.205170	146.180000
274.298187	146.320000
274.391205	145.860000
274.484222	145.800000
274.577240	145.820000
274.670258	145.840000
274.763306	145.660000
274.856323	146.260000
274.949341	146.500000
275.042358	146.820000
275.135406	146.660000
275.228424	146.760000
275.321442	146.540000
275.414490	146.100000
275.507507	146.000000
275.600525	146.660000
275.693573	146.300000
275.786591	145.900000
275.879669	146.200000
275.972656	145.540000
276.065735	144.960000
276.158752	145.340000
276.251801	146.020000
276.344818	146.080000
276.437866	146.700000
276.530884	146.440000
276.623932	145.680000
276.716980	145.620000
276.809998	145.560000
276.903046	145.380000
276.996094	146.420000
277.089111	147.060000
277.182159	147.440000
277.275208	146.840000
277.368256	146.640000
277.461304	146.120000
277.554321	145.540000
277.647369	145.080000
277.740417	145.360000
277.833466	145.540000
277.926514	145.340000
278.019562	145.980000
278.112610	145.620000
278.205688	145.940000
278.298706	145.920000
278.391785	145.800000
278.484833	145.320000
278.577881	145.300000
278.670929	145.660000
278.763977	145.880000
278.857025	146.600000
278.950073	146.760000
279.043121	146.740000
279.136169	146.160000
279.229248	145.940000
279.322296	145.580000
279.415344	145.660000
279.508392	145.660000
279.601440	145.800000
279.694519	145.580000
279.787567	145.320000
279.880615	145.040000
279.973694	144.740000
280.066742	144.660000
280.159790	144.840000
280.252869	144.620000
280.345917	144.900000
280.438995	145.100000
280.532074	144.920000
280.625122	145.040000
280.718201	146.080000
280.811279	146.200000
280.904327	146.320000
280.997406	146.800000
281.090454	146.900000
281.183533	146.120000
281.276581	145.960000
281.369659	145.560000
281.462738	145.560000
281.555786	145.520000
281.648865	145.760000
281.741943	145.580000
281.835022	146.260000
281.928070	145.820000
282.021149	145.320000
282.114227	144.820000
282.207306	144.840000
282.300385	144.860000
282.393433	145.260000
282.486511	145.420000
282.579590	146.100000
282.672668	146.480000
282.765747	146.000000
282.858856	145.680000
282.951904	145.820000
283.045013	145.860000
283.138062	145.960000
283.231171	146.540000
283.324249	147.140000
283.417328	147.300000
283.510406	147.240000
283.603485	146.860000
283.696564	146.300000
283.789642	146.020000
283.882751	145.800000
283.975830	146.380000
284.068909	146.180000
284.161987	146.920000
284.255066	146.320000
284.348175	146.480000
284.441254	145.780000
284.534332	146.460000
284.627441	146.160000
284.720520	145.900000
284.813599	145.940000
284.906708	146.040000
284.999786	145.020000
285.092896	144.660000
285.185974	145.980000
285.279053	145.180000
285.372192	145.160000
285.465240	145.980000
285.558380	146.100000
285.651459	145.640000
285.744568	146.960000
285.837677	146.820000
285.930756	146.600000
286.023865	146.760000
286.116943	146.500000
286.210052	146.440000
286.303162	146.160000
286.396240	146.160000
286.489349	145.480000
286.582458	145.740000
286.675568	145.120000
286.768646	145.340000
286.861755	145.440000
286.954865	146.620000
287.047974	146.040000
287.141083	146.220000
287.234161	146.240000
287.327271	146.600000
287.420380	146.440000
287.513519	146.480000
287.606598	146.120000
287.699738	146.100000
287.792816	145.580000
287.885956	145.420000
287.979034	145.220000
288.072174	145.760000
288.165283	145.460000
288.258392	145.760000
288.351501	144.840000
288.444611	145.560000
288.537720	145.600000
288.630859	145.780000
288.723969	146.060000
288.817078	147.100000
288.910187	146.760000
289.003296	146.360000
289.096436	146.040000
289.189545	145.480000
289.282654	144.740000
289.375763	145.140000
289.468903	145.640000
289.562012	146.020000
289.655121	146.220000
289.748260	146.440000
289.841400	146.500000
289.934509	146.140000
290.027649	146.300000
290.120728	145.800000
290.213898	145.800000
290.306976	145.780000
290.400146	145.880000
290.493256	145.500000
290.586395	146.020000
290.679535	146.280000
290.772644	145.760000
290.865784	144.900000
290.958893	145.000000
291.052032	144.660000
291.145172	144.660000
291.238281	144.580000
291.331421	145.160000
291.424561	145.600000
291.517670	145.760000
291.610809	145.600000
291.703949	145.420000
291.797089	145.720000
291.890228	145.300000
291.983337	144.920000
292.076477	145.020000
292.169617	145.660000
292.262756	145.340000
292.355927	145.060000
292.449036	145.220000
292.542206	145.360000
292.635315	145.340000
292.728485	145.720000
292.821625	145.580000
292.914764	146.500000
293.007904	146.320000
293.101044	146.100000
293.194183	145.980000
293.287323	146.240000
293.380463	145.520000
293.473602	145.440000
293.566742	146.020000
293.659882	146.460000
293.753021	146.620000
293.846191	146.700000
293.939331	146.380000
294.032471	145.960000
294.125610	145.300000
294.218781	145.880000
294.311920	146.120000
294.405060	146.260000
294.498230	146.260000
294.591370	146.340000
294.684540	145.520000
294.777679	145.020000
294.870850	145.300000
294.963959	145.240000
295.057159	145.080000
295.150299	145.660000
295.243469	145.680000
295.336609	145.080000
295.429779	145.000000
295.522919	145.460000
295.616089	145.200000
295.709229	145.920000
295.802399	146.220000
295.895569	146.120000
295.988708	145.780000
296.081879	145.900000
296.175018	145.280000
296.268188	145.600000
296.361359	146.020000
296.454529	146.200000
296.547668	145.940000
296.640839	146.360000
296.734009	145.800000
296.827179	145.780000
296.920319	146.080000
297.013519	146.100000
297.106659	145.880000
297.199860	146.260000
297.292999	146.260000
297.386200	145.600000
297.479309	145.480000
297.572510	145.540000
297.665680	145.100000
297.758850	145.040000
297.852020	145.300000
297.945190	145.160000
298.038361	144.760000
298.131531	145.800000
298.224701	145.380000
298.317871	144.880000
298.411072	144.780000
298.504242	144.900000
298.597412	144.440000
298.690582	144.680000
298.783752	145.180000
298.876923	145.640000
298.970093	145.620000
299.063293	145.840000
299.156464	146.400000
299.249634	146.540000
299.342834	146.640000
299.436005	147.160000
299.529205	147.000000
299.622345	146.800000
299.715576	146.140000
299.808716	146.040000
299.901917	145.820000
299.995117	145.800000
300.088287	145.880000
300.181488	146.040000
300.274658	145.720000
300.367828	145.540000
300.461029	145.500000
300.554199	145.520000
300.647400	145.480000
300.740601	146.100000
300.833771	145.880000
300.926971	146.240000
301.020142	145.800000
301.113342	145.760000
301.206512	145.400000
301.299713	145.900000
301.392914	145.800000
301.486084	146.040000
301.579285	146.240000
301.672516	146.740000
301.765686	146.500000
301.858887	146.040000
301.952057	145.820000
302.045288	145.940000
302.138458	145.620000
302.231659	145.180000
302.324860	145.580000
302.418060	145.660000
302.511261	145.640000
302.604462	145.580000
302.697662	145.820000
302.790863	145.420000
302.884064	145.000000
302.977264	144.900000
303.070465	145.080000
303.163666	145.760000
303.256866	146.300000
303.350067	146.480000
303.443268	146.680000
303.536469	146.940000
303.629669	146.160000
303.722870	146.100000
303.816071	146.000000
303.909271	146.100000
304.002472	144.880000
304.095673	144.860000
304.188934	144.100000
304.282104	144.920000
304.375336	144.660000
304.468506	145.060000
304.561768	144.860000
304.654968	145.560000
304.748169	145.140000
304.841370	145.100000
304.934601	145.420000
305.027802	145.820000
305.121002	145.560000
305.214233	145.180000
305.307434	145.220000
305.400665	145.920000
305.493866	145.620000
305.587097	146.000000
305.680298	146.000000
305.773499	146.720000
305.866730	146.040000
305.959930	146.640000
306.053162	146.660000
306.146393	146.660000
306.239594	145.500000
306.332825	145.800000
306.426025	145.880000
306.519287	145.400000
306.612488	145.720000
306.705719	145.960000
306.798920	145.740000
306.892181	145.300000
306.985352	144.940000
307.078613	144.260000
307.171844	144.840000
307.265045	144.380000
307.358276	143.780000
307.451508	144.680000
307.544739	145.320000
307.637970	144.860000
307.731201	145.000000
307.824402	146.020000
307.917633	145.800000
308.010864	146.000000
308.104095	146.280000
308.197327	146.500000
308.290558	146.540000
308.383789	146.080000
308.477020	145.760000
308.570251	145.120000
308.663483	144.680000
308.756714	144.280000
308.849976	144.480000
308.943176	144.820000
309.036438	144.780000
309.129639	144.980000
309.222900	145.040000
309.316101	144.860000
309.409393	144.560000
309.502625	144.680000
309.595856	144.880000
309.689087	144.800000
309.782318	145.200000
309.875580	144.980000
309.968811	144.960000
310.062042	144.620000
310.155273	144.420000
310.248535	144.740000
310.341766	144.680000
310.434998	144.800000
310.528259	144.920000
310.621490	145.560000
310.714722	144.700000
310.807983	145.180000
310.901215	145.340000
310.994476	145.600000
311.087708	144.980000
311.181000	145.420000
311.274200	144.760000
311.367462	144.800000
311.460693	144.440000
311.553986	145.440000
311.647186	145.600000
311.740479	146.600000
311.833710	146.220000
311.926971	146.380000
312.020203	145.320000
312.113464	144.900000
312.206726	144.160000
312.299957	144.400000
312.393219	144.960000
312.486481	145.160000
312.579712	145.100000
312.672974	145.040000
312.766235	145.080000
312.859497	144.480000
312.952759	144.300000
313.045990	144.960000
313.139252	144.800000
313.232513	145.260000
313.325775	145.780000
313.419037	146.000000
313.512299	145.400000
313.605530	145.920000
313.698822	145.860000
313.792053	145.760000
313.885345	145.480000
313.978577	145.600000
314.071869	145.100000
314.165131	144.820000
314.258392	144.840000
314.351654	145.040000
314.444916	144.700000
314.538177	145.460000
314.631439	146.060000
314.724701	145.720000
314.817993	145.700000
314.911255	146.220000
315.004517	145.660000
315.097778	145.320000
315.191040	145.780000
315.284302	146.200000
315.377594	145.820000
315.470856	145.780000
315.564117	145.260000
315.657379	144.600000
315.750671	144.000000
315.843933	144.660000
315.937195	144.360000
316.030518	144.500000
316.123749	144.780000
316.217041	145.580000
316.310303	145.340000
316.403595	145.860000
316.496857	146.180000
316.590149	146.460000
316.683411	145.940000
316.776703	145.620000
316.869965	145.400000
316.963257	145.020000
317.056519	144.280000
317.149811	144.180000
317.243073	144.420000
317.336365	144.500000
317.429626	144.940000
317.522919	145.800000
317.616180	145.900000
317.709473	145.460000
317.802765	145.580000
317.896027	145.380000
317.989319	145.460000
318.082611	145.360000
318.175873	145.600000
318.269165	145.340000
318.362488	145.060000
318.455750	144.700000
318.549042	144.960000
318.642303	145.240000
318.735626	145.140000
318.828888	145.600000
318.922211	145.300000
319.015472	145.920000
319.108765	145.380000
319.202057	145.260000
319.295349	145.220000
319.388641	145.280000
319.481934	144.620000
319.575226	144.560000
319.668518	144.940000
319.761810	144.820000
319.855103	144.860000
319.948395	144.660000
320.041687	144.940000
320.134979	144.960000
320.228271	144.940000
320.321564	145.100000
320.414856	145.340000
320.508148	145.100000
320.601440	144.900000
320.694763	144.440000
320.788025	145.120000
320.881348	145.260000
320.974640	145.280000
321.067963	145.440000
321.161224	145.940000
321.254547	145.080000
321.347839	145.460000
321.441162	145.720000
321.534454	145.820000
321.627747	145.700000
321.721069	146.320000
321.814362	146.120000
321.907654	146.080000
322.000946	145.980000
322.094269	146.400000
322.187561	145.660000
322.280884	145.920000
322.374176	145.780000
322.467468	146.340000
322.560791	146.360000
322.654083	147.000000
322.747406	146.740000
322.840698	147.260000
322.934021	147.220000
323.027344	147.300000
323.120636	146.980000
323.213959	146.560000
323.307251	145.840000
323.400574	145.600000
323.493866	144.860000
323.587219	145.000000
323.680511	145.500000
323.773834	145.760000
323.867157	145.500000
323.960449	145.960000
324.053772	145.620000
324.147095	145.460000
324.240387	145.820000
324.333710	146.280000
324.427032	146.320000
324.520355	146.400000
324.613647	145.860000
324.706970	145.640000
324.800293	145.200000
324.893616	145.300000
324.986938	145.460000
325.080231	145.460000
325.173553	145.760000
325.266876	146.420000
325.360199	146.160000
325.453522	146.160000
325.546875	146.400000
325.640167	146.580000
325.733521	146.600000
325.826813	147.200000
325.920166	146.980000
326.013489	146.660000
326.106812	145.720000
326.200134	145.040000
326.293457	143.880000
326.386780	143.840000
326.480103	143.980000
326.573425	144.140000
326.666748	144.240000
326.760071	144.840000
326.853424	145.000000
326.946747	144.980000
327.040070	145.780000
327.133392	145.600000
327.226715	145.160000
327.320068	144.820000
327.413391	145.400000
327.506714	144.340000
327.600037	144.420000
327.693390	145.080000
327.786713	145.100000
327.880066	144.640000
327.973358	145.420000
328.066742	145.700000
328.160034	145.300000
328.253418	145.840000
328.346710	145.760000
328.440063	145.080000
328.533417	144.580000
328.626740	144.960000
328.720093	144.600000
328.813416	144.780000
328.906769	144.960000
329.000092	145.520000
329.093445	145.340000
329.186768	145.220000
329.280121	145.540000
329.373444	145.740000
329.466797	145.420000
329.560120	145.520000
329.653473	145.840000
329.746796	145.280000
329.840149	145.320000
329.933502	145.380000
330.026825	145.160000
330.120178	144.760000
330.213562	145.000000
330.306854	145.120000
330.400238	145.300000
330.493561	145.100000
330.586945	146.040000
330.680237	146.080000
330.773621	145.860000
330.866974	145.720000
330.960327	145.800000
331.053680	145.200000
331.147003	145.360000
331.240356	145.880000
331.333710	145.840000
331.427063	145.720000
331.520416	145.820000
331.613770	145.440000
331.707123	145.060000
331.800476	145.200000
331.893829	146.260000
331.987152	146.180000
332.080505	146.340000
332.173859	146.340000
332.267212	145.960000
332.360565	145.300000
332.453918	145.220000
332.547333	145.360000
332.640656	145.420000
332.734039	145.840000
332.827362	145.580000
332.920746	145.920000
333.014069	145.880000
333.107452	146.200000
333.200806	146.240000
333.294159	146.400000
333.387543	145.800000
333.480896	145.500000
333.574249	145.300000
333.667603	144.980000
333.760956	145.240000
333.854340	145.420000
333.947693	145.560000
334.041046	145.500000
334.134430	145.860000
334.227783	145.200000
334.321136	145.280000
334.414520	145.060000
334.507874	145.280000
334.601227	144.940000
334.694611	145.220000
334.787964	145.080000
334.881348	145.280000
334.974701	145.180000
335.068085	144.940000
335.161438	145.300000
335.254822	145.060000
335.348175	145.340000
335.441559	144.960000
335.534943	145.820000
335.628296	145.480000
335.721680	145.700000
335.815033	145.660000
335.908417	145.940000
336.001770	145.540000
336.095154	145.500000
336.188538	145.320000
336.281891	144.960000
336.375275	144.520000
336.468658	144.360000
336.562012	144.220000
336.655396	144.680000
336.748779	145.060000
336.842133	145.500000
336.935516	145.960000
337.028900	146.000000
337.122284	145.880000
337.215637	145.800000
337.309021	145.340000
337.402435	144.700000
337.495789	144.500000
337.589203	144.240000
337.682526	144.020000
337.775940	144.480000
337.869324	144.740000
337.962708	144.720000
338.056091	145.440000
338.149475	145.520000
338.242859	145.620000
338.336243	145.320000
338.429626	146.000000
338.523010	145.540000
338.616394	145.380000
338.709778	145.400000
338.803162	145.680000
338.896545	145.500000
338.989929	145.160000
339.083313	145.260000
339.176697	144.760000
339.270081	144.800000
339.363464	145.040000
339.456848	145.620000
339.550232	145.080000
339.643616	145.180000
339.737030	145.000000
339.830383	144.820000
339.923828	145.040000
340.017181	145.540000
340.110596	145.600000
340.203949	145.500000
340.297363	144.980000
340.390778	144.500000
340.484161	144.500000
340.577545	144.600000
340.670959	145.080000
340.764343	145.200000
340.857727	145.440000
340.951111	145.220000
341.044525	145.600000
341.137909	144.840000
341.231293	144.960000
341.324707	144.520000
341.418091	145.400000
341.511505	145.220000
341.604889	145.480000
341.698303	145.480000
341.791687	145.620000
341.885071	144.840000
341.978485	144.480000
342.071899	144.880000
342.165283	145.160000
342.258698	145.500000
342.352081	145.960000
342.445496	146.460000
342.538879	146.320000
342.632324	146.080000
342.725708	145.840000
342.819122	145.460000
342.912506	145.000000
343.005920	145.080000
343.099335	146.000000
343.192719	145.980000
343.286133	146.180000
343.379547	146.800000
343.472931	146.960000
343.566345	145.960000
343.659760	146.300000
343.753143	146.020000
343.846558	145.500000
343.939972	145.280000
344.033386	146.180000
344.126770	145.860000
344.220184	146.100000
344.313599	146.600000
344.407043	146.620000
344.500427	145.760000
344.593872	146.020000
344.687225	145.560000
344.780670	144.840000
344.874054	144.640000
344.967499	145.080000
345.060913	145.040000
345.154327	145.260000
345.247742	145.220000
345.341156	145.080000
345.434570	144.800000
345.527985	144.740000
345.621399	144.740000
345.714813	144.800000
345.808228	145.260000
345.901642	145.040000
345.995056	144.700000
346.088470	145.080000
346.181885	145.260000
346.275299	144.960000
346.368713	144.940000
346.462128	144.500000
346.555573	144.280000
346.648987	144.460000
346.742401	144.280000
346.835815	144.820000
346.929260	145.160000
347.022644	145.320000
347.116119	145.560000
347.209503	146.040000
347.302948	146.700000
347.396362	147.180000
347.489807	147.320000
347.583221	147.660000
347.676636	147.440000
347.770050	146.360000
347.863495	145.560000
347.956909	145.160000
348.050323	144.280000
348.143768	144.320000
348.237183	144.300000
348.330597	145.300000
348.424042	145.820000
348.517456	146.260000
348.610901	146.320000
348.704315	146.340000
348.797760	145.560000
348.891174	144.960000
348.984619	144.560000
349.078033	144.860000
349.171448	145.280000
349.264923	145.560000
349.358337	145.860000
349.451782	146.040000
349.545197	145.360000
349.638641	144.960000
349.732086	144.520000
349.825500	144.720000
349.918945	144.380000
350.012390	145.040000
350.105804	145.560000
350.199249	146.040000
350.292664	146.160000
350.386108	146.340000
350.479553	146.500000
350.572968	146.020000
350.666412	146.120000
350.759857	145.760000
350.853302	146.260000
350.946716	145.740000
351.040161	145.940000
351.133606	145.860000
351.227081	145.880000
351.320465	146.500000
351.413940	146.440000
351.507355	146.540000
351.600830	146.680000
351.694244	146.440000
351.787720	145.860000
351.881104	145.900000
351.974579	145.740000
352.067993	146.460000
352.161469	146.640000
352.254883	145.900000
352.348358	145.760000
352.441803	145.680000
352.535248	145.160000
352.628693	145.540000
352.722137	145.720000
352.815582	146.160000
352.909027	146.320000
353.002472	146.180000
353.095917	145.980000
353.189362	146.520000
353.282806	146.300000
353.376251	146.200000
353.469696	145.380000
353.563141	145.660000
353.656586	145.180000
353.750061	144.740000
353.843475	144.720000
353.936981	145.600000
354.030396	144.940000
354.123871	144.820000
354.217285	145.640000
354.310760	145.580000
354.404175	145.460000
354.497681	145.440000
354.591095	145.620000
354.684570	144.760000
354.777985	144.980000
354.871490	144.660000
354.964935	145.080000
355.058380	145.180000
355.151855	145.240000
355.245300	145.360000
355.338745	145.740000
355.432220	145.680000
355.525665	145.440000
355.619110	146.020000
355.712585	145.680000
355.806030	145.500000
355.899475	145.220000
355.992950	145.800000
356.086426	145.900000
356.179871	145.880000
356.273346	146.140000
356.366791	146.360000
356.460266	146.040000
356.553711	145.500000
356.647186	145.800000
356.740631	145.440000
356.834106	145.140000
356.927551	145.160000
357.021027	145.500000
357.114471	145.480000
357.207947	145.740000
357.301422	146.360000
357.394867	146.640000
357.488342	146.600000
357.581818	146.380000
357.675262	146.480000
357.768738	146.040000
357.862213	145.320000
357.955658	145.260000
358.049133	145.220000
358.142609	145.380000
358.236053	145.180000
358.329529	145.160000
358.423035	145.220000
358.516449	145.020000
358.609955	145.040000
358.703400	145.900000
358.796906	146.480000
358.890350	146.000000
358.983826	146.320000
359.077271	145.560000
359.170776	145.000000
359.264221	144.640000
359.357727	145.120000
359.451172	145.360000
359.544647	145.860000
359.638123	145.820000
359.731598	146.080000
359.825073	146.620000
359.918549	146.500000
360.012024	146.540000
360.105499	145.940000
360.198975	145.800000
360.292450	145.380000
360.385925	145.200000
360.479401	144.620000
360.572876	145.160000
360.666351	145.380000
360.759857	145.340000
360.853302	145.360000
360.946808	145.240000
361.040253	145.340000
361.133759	145.000000
361.227203	145.020000
361.320709	144.600000
361.414154	145.160000
361.507660	145.420000
361.601105	146.040000
361.694641	146.200000
361.788086	146.480000
361.881592	146.960000
361.975067	146.300000
362.068542	146.320000
362.162018	146.180000
362.255524	145.820000
362.348999	145.440000
362.442474	145.960000
362.535950	145.180000
362.629456	145.040000
362.722931	145.380000
362.816406	145.580000
362.909882	145.640000
363.003387	145.720000
363.096863	146.060000
363.190338	146.080000
363.283875	145.780000
363.377319	145.600000
363.470825	146.440000
363.564301	145.620000
363.657806	145.680000
363.751282	145.640000
363.844788	146.160000
363.938232	145.240000
364.031769	146.400000
364.125214	146.380000
364.218750	146.700000
364.312225	145.780000
364.405731	145.980000
364.499207	145.140000
364.592712	145.080000
364.686188	144.840000
364.779694	145.320000
364.873169	145.380000
364.966675	145.520000
365.060150	145.460000
365.153656	145.800000
365.247131	145.900000
365.340637	146.200000
365.434143	146.740000
365.527618	146.900000
365.621155	145.960000
365.714600	145.900000
365.808136	145.740000
365.901611	144.580000
365.995117	144.500000
366.088593	144.960000
366.182129	144.680000
366.275604	144.940000
366.369110	145.440000
366.462585	145.180000
366.556122	145.940000
366.649567	146.060000
366.743103	145.600000
366.836609	145.580000
366.930115	146.020000
367.023590	145.740000
367.117096	145.880000
367.210602	145.800000
367.304108	146.340000
367.397614	146.840000
367.491119	147.060000
367.584595	147.140000
367.678101	147.620000
367.771606	147.180000
367.865112	146.520000
367.958649	145.480000
368.052124	145.140000
368.145660	144.880000
368.239136	145.200000
368.332672	145.420000
368.426147	146.060000
368.519684	145.960000
368.613159	146.340000
368.706696	145.900000
368.800171	146.020000
368.893707	145.740000
368.987183	146.160000
369.080719	146.000000
369.174225	146.080000
369.267731	146.260000
369.361237	146.560000
369.454742	146.360000
369.548248	146.820000
369.641754	146.760000
369.735260	146.120000
369.828766	144.980000
369.922272	145.460000
370.015808	144.720000
370.109314	144.420000
370.202820	144.300000
370.296356	145.860000
370.389832	145.160000
370.483368	144.780000
370.576874	144.840000
370.670410	145.280000
370.763885	144.340000
370.857422	144.540000
370.950928	144.640000
371.044464	145.520000
371.137939	145.300000
371.231476	145.760000
371.324982	146.400000
371.418518	146.560000
371.512024	145.980000
371.605560	145.940000
371.699066	146.060000
371.792572	145.180000
371.886108	145.820000
371.979614	145.760000
372.073120	146.160000
372.166656	145.760000
372.260162	146.240000
372.353668	145.680000
372.447205	145.520000
372.540710	145.260000
372.634277	145.280000
372.727753	145.500000
372.821320	145.280000
372.914795	145.280000
373.008362	145.140000
373.101837	145.140000
373.195404	144.740000
373.288879	145.180000
373.382446	145.900000
373.475922	145.780000
373.569489	146.480000
373.662964	146.700000
373.756531	146.660000
373.850037	146.460000
373.943573	146.460000
374.037109	145.500000
374.130615	145.460000
374.224152	145.540000
374.317657	145.160000
374.411194	146.120000
374.504730	146.180000
374.598236	145.800000
374.691772	145.560000
374.785309	145.780000
374.878815	144.820000
374.972351	145.360000
375.065887	145.480000
375.159454	146.100000
375.252930	145.960000
375.346497	146.580000
375.440002	146.940000
375.533569	147.120000
375.627045	146.380000
375.720612	146.460000
375.814117	146.340000
375.907684	145.960000
376.001160	145.580000
376.094727	145.380000
376.188232	145.920000
376.281799	146.040000
376.375336	145.780000
376.468872	146.600000
376.562408	146.900000
376.655914	146.540000
376.749451	146.460000
376.842987	146.980000
376.936523	146.540000
377.030060	146.560000
377.123596	146.660000
377.217133	146.080000
377.310669	145.540000
377.404205	145.900000
377.497772	146.720000
377.591278	146.400000
377.684845	147.200000
377.778351	147.680000
377.871918	147.060000
377.965424	145.920000
378.058990	145.800000
378.152496	145.420000
378.246063	145.220000
378.339569	145.920000
378.433136	146.160000
378.526642	146.560000
378.620209	146.520000
378.713745	146.140000
378.807312	146.220000
378.900848	146.300000
378.994385	146.360000
379.087921	145.780000
379.181458	146.280000
379.274994	145.560000
379.368530	145.240000
379.462097	145.220000
379.555634	145.760000
379.649170	144.740000
379.742706	144.620000
379.836273	145.100000
379.929810	144.440000
380.023376	144.160000
380.116882	144.620000
380.210449	144.840000
380.303986	144.300000
380.397552	144.520000
380.491058	144.820000
380.584656	144.720000
380.678162	144.840000
380.771729	145.260000
380.865265	145.940000
380.958832	146.080000
381.052368	146.480000
381.145935	146.760000
381.239471	147.040000
381.333008	146.520000
381.426575	146.300000
381.520111	146.540000
381.613647	146.380000
381.707214	145.960000
381.800751	145.700000
381.894318	145.980000
381.987854	145.420000
382.081421	145.420000
382.174988	145.540000
382.268524	145.180000
382.362091	144.920000
382.455627	145.760000
382.549194	145.240000
382.642731	144.700000
382.736298	144.780000
382.829834	144.520000
382.923401	144.560000
383.016937	145.020000
383.110504	145.340000
383.204041	145.780000
383.297607	146.380000
383.391174	145.500000
383.484741	145.840000
383.578278	145.640000
383.671844	145.440000
383.765411	144.380000
383.858948	144.960000
383.952515	144.500000
384.046051	144.880000
384.139618	145.460000
384.233185	146.240000
384.326721	145.880000
384.420288	146.540000
384.513855	146.500000
384.607422	146.400000
384.700989	146.340000
384.794525	145.900000
384.888123	145.460000
384.981659	145.540000
385.075226	145.000000
385.168762	144.720000
385.262360	145.040000
385.355896	144.460000
385.449463	144.120000
385.542999	144.540000
385.636597	145.340000
385.730164	145.740000
385.823730	145.720000
385.917267	145.900000
386.010834	145.560000
386.104401	145.180000
386.197968	145.340000
386.291534	145.900000
386.385101	145.780000
386.478668	146.200000
386.572235	146.160000
386.665802	145.640000
386.759338	145.140000
386.852905	144.940000
386.946472	144.240000
387.040070	144.300000
387.133606	144.400000
387.227203	144.360000
387.320740	144.920000
387.414337	145.060000
387.507874	144.820000
387.601471	144.740000
387.695007	144.660000
387.788605	144.420000
387.882141	144.580000
387.975739	144.720000
388.069275	144.860000
388.162872	145.380000
388.256439	145.180000
388.350037	145.420000
388.443604	145.160000
388.537170	144.760000
388.630737	145.060000
388.724304	145.100000
388.817871	144.700000
388.911438	144.840000
389.005005	145.320000
389.098602	145.440000
389.192169	145.420000
389.285736	146.100000
389.379333	146.160000
389.472870	145.660000
389.566467	145.200000
389.660034	145.400000
389.753632	144.740000
389.847168	145.180000
389.940765	145.120000
390.034332	145.320000
390.127930	145.080000
390.221466	145.140000
390.315063	144.420000
390.408630	144.220000
390.502228	143.340000
390.595795	143.460000
390.689362	144.000000
390.782959	144.560000
390.876526	145.300000
390.970093	146.020000
391.063690	146.640000
391.157257	146.220000
391.250824	146.180000
391.344421	145.800000
391.437988	145.760000
391.531555	145.400000
391.625153	145.440000
391.718750	145.740000
391.812317	145.560000
391.905914	145.320000
391.999481	145.640000
392.093079	145.640000
392.186615	145.560000
392.280243	146.000000
392.373779	146.100000
392.467407	146.400000
392.560944	146.560000
392.654572	146.240000
392.748108	146.000000
392.841736	145.940000
392.935303	145.140000
393.028900	145.120000
393.122467	145.300000
393.216064	145.240000
393.309631	145.020000
393.403229	144.960000
393.496796	144.880000
393.590393	144.220000
393.683990	144.480000
393.777557	145.000000
393.871155	145.280000
393.964722	145.680000
394.058350	145.960000
394.151917	146.020000
394.245514	145.520000
394.339081	145.780000
394.432678	145.840000
394.526245	145.820000
394.619873	145.280000
394.713409	145.820000
394.807037	145.300000
394.900604	145.260000
394.994202	145.460000
395.087769	146.020000
395.181396	145.760000
395.274994	146.480000
395.368561	145.360000
395.462158	145.440000
395.555756	144.840000
395.649353	145.140000
395.742920	144.700000
395.836517	145.880000
395.930115	145.100000
396.023712	145.540000
396.117279	145.680000
396.210876	145.120000
396.304474	145.080000
396.398071	145.920000
396.491669	146.260000
396.585266	145.820000
396.678833	146.380000
396.772461	146.580000
396.866028	146.340000
396.959656	146.680000
397.053223	146.960000
397.146851	146.920000
397.240417	147.220000
397.334015	148.520000
397.427582	148.720000
397.521210	150.120000
397.614807	152.480000
397.708405	154.960000
397.802002	157.780000
397.895599	163.100000
397.989197	168.940000
398.082794	175.860000
398.176392	185.180000
398.269989	195.520000
398.363586	207.540000
398.457184	221.320000
398.550781	237.140000
398.644379	252.360000
398.737976	270.240000
398.831573	288.040000
398.925201	306.260000
399.018768	324.820000
399.112396	344.600000
399.205963	364.760000
399.299591	386.700000
399.393158	409.840000
399.486786	433.480000
399.580353	456.600000
399.673981	475.760000
399.767578	493.380000
399.861206	506.900000
399.954773	514.980000
400.048401	515.240000
400.141998	510.360000
400.235596	498.060000
400.329193	481.700000
400.422791	462.580000
400.516418	444.520000
400.610016	428.660000
400.703613	413.240000
400.797211	396.260000
400.890808	379.820000
400.984436	362.660000
401.078033	343.400000
401.171631	323.820000
401.265259	305.200000
401.358826	286.660000
401.452484	268.300000
401.546051	251.360000
401.639679	234.420000
401.733246	219.480000
401.826904	205.160000
401.920471	192.760000
402.014099	182.240000
402.107697	174.400000
402.201324	167.700000
402.294891	163.060000
402.388550	159.540000
402.482147	156.440000
402.575745	153.680000
402.669373	151.180000
402.762970	149.120000
402.856567	148.000000
402.950195	147.340000
403.043793	146.640000
403.137390	147.280000
403.231018	146.600000
403.324615	146.860000
403.418243	146.060000
403.511841	146.200000
403.605469	145.840000
403.699066	146.500000
403.792694	145.940000
403.886292	146.460000
403.979919	146.440000
404.073517	146.020000
404.167145	146.200000
404.260712	146.340000
404.354370	146.160000
404.447937	146.280000
404.541595	146.300000
404.635162	146.380000
404.728821	146.640000
404.822418	146.260000
404.916046	145.960000
405.009644	146.340000
405.103271	146.260000
405.196899	145.820000
405.290497	146.400000
405.384125	146.840000
405.477722	146.300000
405.571350	145.600000
405.664948	145.620000
405.758575	145.000000
405.852203	144.680000
405.945801	144.800000
406.039429	145.120000
406.133057	145.060000
406.226654	145.340000
406.320312	145.380000
406.413879	145.640000
406.507538	145.740000
406.601135	145.480000
406.694763	145.960000
406.788361	145.720000
406.882019	145.480000
406.975586	145.900000
407.069244	146.740000
407.162872	146.520000
407.256470	146.620000
407.350098	146.680000
407.443726	146.080000
407.537323	145.240000
407.630951	145.360000
407.724579	144.920000
407.818207	145.180000
407.911804	145.300000
408.005432	145.560000
408.099060	145.760000
408.192688	146.500000
408.286285	146.240000
408.379913	145.960000
408.473572	146.340000
408.567169	145.520000
408.660828	145.180000
408.754395	144.940000
408.848053	145.140000
408.941650	145.280000
409.035309	145.320000
409.128906	145.520000
409.222565	145.680000
409.316132	145.680000
409.409790	145.080000
409.503387	145.440000
409.597046	145.620000
409.690674	145.780000
409.784302	145.740000
409.877930	145.820000
409.971558	145.880000
410.065186	145.400000
410.158783	145.400000
410.252411	145.740000
410.346039	146.120000
410.439667	145.760000
410.533295	146.040000
410.626923	146.100000
410.720551	145.740000
410.814209	145.900000
410.907806	146.320000
411.001465	145.820000
411.095062	145.780000
411.188721	145.940000
411.282318	145.500000
411.375977	145.060000
411.469574	145.540000
411.563232	145.180000
411.656830	144.780000
411.750488	144.720000
411.844086	144.880000
411.937744	145.000000
412.031372	145.140000
412.125000	145.380000
412.218628	145.300000
412.312256	146.040000
412.405884	146.460000
412.499512	146.620000
412.593170	146.840000
412.686798	147.440000
412.780426	146.440000
412.874054	145.980000
412.967682	145.940000
413.061310	146.120000
413.154968	145.700000
413.248566	146.220000
413.342224	146.140000
413.435852	146.220000
413.529510	145.900000
413.623108	145.660000
413.716766	145.440000
413.810364	145.940000
413.904022	145.580000
413.997650	145.240000
414.091309	145.700000
414.184906	145.360000
414.278564	144.700000
414.372192	145.220000
414.465851	145.660000
414.559479	145.160000
414.653107	146.480000
414.746735	146.540000
414.840393	146.220000
414.934021	146.360000
415.027649	146.480000
415.121277	145.780000
415.214935	146.260000
415.308563	146.640000
415.402191	146.200000
415.495850	146.080000
415.589478	145.660000
415.683136	145.080000
415.776733	145.140000
415.870422	145.800000
415.964020	145.540000
416.057678	145.960000
416.151306	145.980000
416.244965	145.640000
416.338562	145.540000
416.432251	146.200000
416.525848	146.640000
416.619507	147.160000
416.713165	147.660000
416.806793	147.580000
416.900421	147.840000
416.994080	147.060000
417.087708	146.880000
417.181366	146.200000
417.274994	146.100000
417.368622	145.940000
417.462280	146.600000
417.555908	146.360000
417.649567	146.620000
417.743195	146.520000
417.836853	146.160000
417.930481	146.020000
418.024170	146.120000
418.117767	146.180000
418.211426	146.480000
418.305054	146.920000
418.398712	146.180000
418.492340	146.300000
418.585999	146.580000
418.679626	146.480000
418.773285	146.520000
418.866913	147.120000
418.960571	147.100000
419.054230	146.980000
419.147858	147.020000
419.241516	146.920000
419.335144	146.400000
419.428802	146.380000
419.522461	146.100000
419.616089	145.540000
419.709747	145.320000
419.803375	145.620000
419.897034	145.480000
419.990662	145.260000
420.084320	145.980000
420.177979	146.240000
420.271606	146.460000
420.365295	146.840000
420.458893	147.140000
420.552582	147.340000
420.646210	147.420000
420.739868	147.140000
420.833496	146.740000
420.927155	146.500000
421.020782	146.080000
421.114471	145.220000
421.208069	145.220000
421.301758	145.580000
421.395386	145.640000
421.489044	145.200000
421.582703	145.700000
421.676361	146.460000
421.769989	146.020000
421.863647	146.440000
421.957306	146.580000
422.050934	146.580000
422.144592	145.960000
422.238251	145.540000
422.331909	145.240000
422.425537	145.260000
422.519196	145.460000
422.612854	145.380000
422.706543	145.420000
422.800140	145.600000
422.893829	144.980000
422.987457	144.560000
423.081146	144.560000
423.174744	145.560000
423.268433	145.160000
423.362061	145.360000
423.455750	145.180000
423.549347	145.620000
423.643036	144.640000
423.736664	145.360000
423.830353	145.680000
423.924011	146.120000
424.017639	145.280000
424.111298	145.720000
424.204956	145.300000
424.298615	145.200000
424.392273	145.020000
424.485931	145.200000
424.579559	145.260000
424.673218	145.180000
424.766876	145.500000
424.860535	145.440000
424.954193	145.460000
425.047882	145.680000
425.141510	145.600000
425.235199	145.540000
425.328796	145.260000
425.422485	144.980000
425.516113	144.540000
425.609802	144.660000
425.703430	144.580000
425.797119	144.660000
425.890747	145.040000
425.984436	145.000000
426.078064	144.920000
426.171753	145.040000
426.265411	144.740000
426.359070	145.000000
426.452728	145.020000
426.546356	144.700000
426.640015	144.440000
426.733673	144.740000
426.827332	144.280000
426.920990	145.120000
427.014648	145.140000
427.108307	145.640000
427.201965	146.160000
427.295624	146.380000
427.389282	145.520000
427.482941	145.920000
427.576630	145.300000
427.670258	144.840000
427.763947	144.800000
427.857574	145.100000
427.951263	144.820000
428.044922	144.840000
428.138611	144.940000
428.232239	145.400000
428.325928	145.760000
428.419556	146.360000
428.513245	146.240000
428.606903	146.460000
428.700562	145.720000
428.794220	144.880000
428.887878	143.980000
428.981537	144.260000
429.075195	144.040000
429.168854	144.720000
429.262512	144.860000
429.356201	145.120000
429.449860	144.900000
429.543518	144.700000
429.637177	144.520000
429.730835	144.580000
429.824493	144.720000
429.918182	144.940000
430.011810	144.880000
430.105530	144.280000
430.199158	144.420000
430.292847	144.280000
430.386475	144.280000
430.480164	144.220000
430.573792	144.200000
430.667511	143.960000
430.761139	144.100000
430.854828	144.400000
430.948456	144.580000
431.042145	145.140000
431.135834	145.100000
431.229492	145.360000
431.323151	145.380000
431.416809	145.280000
431.510468	144.980000
431.604156	145.020000
431.697815	144.980000
431.791473	144.500000
431.885132	144.100000
431.978821	144.640000
432.072479	144.900000
432.166138	145.480000
432.259827	145.680000
432.353485	146.080000
432.447174	146.160000
432.540802	145.980000
432.634491	145.640000
432.728149	145.680000
432.821838	146.560000
432.915466	146.000000
433.009186	146.040000
433.102814	145.280000
433.196503	145.120000
433.290131	144.860000
433.383850	145.180000
433.477509	145.260000
433.571167	146.020000
433.664856	146.460000
433.758514	146.580000
433.852173	146.420000
433.945862	146.220000
434.039520	146.120000
434.133179	145.520000
434.226868	145.240000
434.320526	144.820000
434.414185	145.440000
434.507874	144.860000
434.601562	145.260000
434.695221	144.860000
434.788910	145.040000
434.882538	144.860000
434.976257	144.920000
435.069885	145.020000
435.163574	145.580000
435.257233	145.380000
435.350922	145.240000
435.444580	145.140000
435.538269	144.640000
435.631897	144.600000
435.725616	145.460000
435.819275	145.720000
435.912964	146.280000
436.006622	146.580000
436.100311	146.220000
436.193970	145.220000
436.287628	144.960000
436.381317	144.760000
436.474976	144.680000
436.568665	144.340000
436.662323	144.880000
436.756012	144.880000
436.849670	144.560000
436.943390	144.440000
437.037018	144.420000
437.130737	144.400000
437.224365	144.040000
437.318085	144.320000
437.411713	144.620000
437.505432	145.280000
437.599060	145.560000
437.692780	146.440000
437.786407	146.300000
437.880127	146.220000
437.973755	145.700000
438.067474	145.080000
438.161133	144.900000
438.254822	145.640000
438.348480	145.320000
438.442169	146.140000
438.535828	146.840000
438.629517	146.120000
438.723175	145.340000
438.816864	146.000000
438.910553	145.440000
439.004211	144.980000
439.097900	144.880000
439.191559	144.940000
439.285248	144.160000
439.378906	144.380000
439.472626	144.320000
439.566284	144.720000
439.659973	145.080000
439.753632	145.380000
439.847321	145.660000
439.940979	145.680000
440.034698	145.460000
440.128326	144.880000
440.222046	144.540000
440.315674	143.720000
440.409393	143.840000
440.503082	144.060000
440.596741	144.620000
440.690430	145.060000
440.784088	144.900000
440.877777	144.200000
440.971466	144.200000
441.065125	143.640000
441.158813	143.440000
441.252502	144.000000
441.346161	144.540000
441.439850	145.080000
441.533539	145.300000
441.627197	145.800000
441.720886	145.460000
441.814606	145.800000
441.908234	145.320000
442.001953	145.340000
442.095612	145.140000
442.189301	145.660000
442.282959	145.700000
442.376678	145.380000
442.470306	145.900000
442.564026	145.700000
442.657684	145.660000
442.751404	145.640000
442.845032	146.600000
442.938751	145.840000
443.032440	146.080000
443.126099	145.480000
443.219788	145.980000
443.313477	145.680000
443.407166	146.340000
443.500824	146.000000
443.594513	146.680000
443.688202	146.200000
443.781891	145.420000
443.875549	145.000000
443.969238	145.140000
444.062927	145.020000
444.156647	144.820000
444.250275	145.500000
444.343994	145.560000
444.437653	145.560000
444.531372	145.640000
444.625031	145.460000
444.718719	144.940000
444.812378	144.920000
444.906097	145.060000
444.999756	144.460000
445.093445	144.580000
445.187103	144.800000
445.280823	145.120000
445.374512	144.460000
445.468201	144.640000
445.561859	144.480000
445.655548	144.380000
445.749237	143.700000
445.842926	144.080000
445.936615	144.680000
446.030304	144.700000
446.123962	145.000000
446.217651	145.100000
446.311340	145.400000
446.405029	144.440000
446.498749	144.420000
446.592407	144.200000
446.686096	144.440000
446.779755	144.200000
446.873474	144.780000
446.967133	145.160000
447.060852	144.960000
447.154510	144.900000
447.248230	145.180000
447.341858	145.120000
447.435577	144.580000
447.529236	144.460000
447.622955	144.580000
447.716644	144.480000
447.810333	144.920000
447.904022	145.480000
447.997711	145.740000
448.091400	146.060000
448.185059	145.840000
448.278748	145.720000
448.372437	145.440000
448.466125	145.620000
448.559814	145.200000
448.653503	145.760000
448.747192	145.800000
448.840912	146.020000
448.934570	146.040000
449.028290	146.260000
449.121948	145.560000
449.215637	145.080000
449.309296	144.780000
449.403015	144.740000
449.496674	144.700000
449.590393	145.000000
449.684052	145.060000
449.777771	145.940000
449.871429	145.360000
449.965149	145.220000
450.058838	145.400000
450.152527	145.840000
450.246216	145.320000
450.339905	145.740000
450.433594	145.580000
450.527283	145.920000
450.620972	145.260000
450.714661	145.180000
450.808350	145.320000
450.902039	145.620000
450.995728	145.280000
451.089417	145.220000
451.183105	145.320000
451.276794	145.840000
451.370514	145.400000
451.464172	144.820000
451.557892	145.020000
451.651550	144.840000
451.745270	144.080000
451.838928	143.680000
451.932648	144.020000
452.026306	144.600000
452.120026	144.380000
452.213684	144.880000
452.307404	145.460000
452.401062	145.400000
452.494781	145.180000
452.588470	145.380000
452.682159	144.760000
452.775848	144.900000
452.869537	144.940000
452.963226	144.440000
453.056915	144.100000
453.150604	144.300000
453.244293	144.440000
453.337982	145.000000
453.431671	145.860000
453.525360	146.780000
453.619049	146.780000
453.712769	146.780000
453.806427	146.200000
453.900146	145.480000
453.993805	145.040000
454.087555	145.720000
454.181213	145.520000
454.274933	145.500000
454.368591	145.500000
454.462311	145.260000
454.555969	144.680000
454.649689	145.520000
454.743347	145.100000
454.837067	145.800000
454.930756	146.340000
455.024445	146.300000
455.118134	145.700000
455.211853	146.380000
455.305542	145.800000
455.399231	145.580000
455.492920	145.520000
455.586609	145.360000
455.680298	145.420000
455.773987	145.320000
455.867676	145.380000
455.961365	145.760000
456.055084	145.580000
456.148773	145.380000
456.242493	145.580000
456.336151	145.680000
456.429871	145.840000
456.523529	146.500000
456.617249	146.160000
456.710907	146.700000
456.804626	146.300000
456.898315	145.620000
456.992035	145.440000
457.085693	145.420000
457.179413	144.600000
457.273102	145.580000
457.366791	145.700000
457.460480	145.640000
457.554199	146.340000
457.647888	146.320000
457.741577	145.740000
457.835266	146.120000
457.928955	146.340000
458.022644	146.700000
458.116364	147.380000
458.210052	147.060000
458.303741	147.200000
458.397461	146.380000
458.491119	145.200000
458.584839	144.820000
458.678528	144.720000
458.772247	143.960000
458.865906	144.400000
458.959625	145.500000
459.053284	145.540000
459.147003	145.620000
459.240692	146.600000
459.334412	146.920000
459.428070	146.300000
459.521790	146.200000
459.615479	146.200000
459.709198	145.980000
459.802887	145.380000
459.896576	145.340000
459.990265	145.540000
460.083954	145.740000
460.177673	145.120000
460.271362	145.460000
460.365051	145.460000
460.458740	145.040000
460.552429	144.620000
460.646149	144.620000
460.739838	144.200000
460.833527	143.960000
460.927246	143.720000
461.020905	143.580000
461.114655	143.860000
461.208313	144.240000
461.302032	144.160000
461.395691	144.400000
461.489441	144.700000
461.583099	144.560000
461.676819	144.340000
461.770477	145.000000
461.864197	144.780000
461.957916	144.440000
462.051605	144.140000
462.145294	145.260000
462.238983	144.720000
462.332703	145.500000
462.426392	146.360000
462.520081	146.760000
462.613770	145.740000
462.707489	146.280000
462.801178	146.300000
462.894867	145.900000
462.988556	145.940000
463.082275	146.120000
463.175964	145.520000
463.269684	145.640000
463.363342	145.740000
463.457092	145.200000
463.550751	145.600000
463.644470	146.200000
463.738129	145.700000
463.831879	145.820000
463.925537	146.660000
464.019257	146.460000
464.112946	145.920000
464.206665	145.880000
464.300323	145.660000
464.394043	145.220000
464.487762	144.940000
464.581451	145.560000
464.675140	145.660000
464.768829	146.000000
464.862549	146.300000
464.956238	146.680000
465.049927	146.520000
465.143646	146.640000
465.237335	146.260000
465.331024	146.900000
465.424713	146.680000
465.518433	146.640000
465.612152	146.320000
465.705811	146.200000
465.799561	145.080000
465.893219	145.100000
465.986938	144.800000
466.080597	144.940000
466.174347	145.620000
466.268005	146.300000
466.361725	146.100000
466.455414	146.300000
466.549133	146.160000
466.642792	145.860000
466.736542	144.900000
466.830231	144.940000
466.923920	144.700000
467.017609	144.940000
467.111328	144.560000
467.205017	144.880000
467.298706	144.900000
467.392426	145.240000
467.486115	145.420000
467.579803	145.280000
467.673523	145.840000
467.767212	145.820000
467.860901	145.700000
467.954651	145.660000
468.048309	145.880000
468.142029	145.300000
468.235718	145.560000
468.329437	145.300000
468.423096	145.180000
468.516846	145.240000
468.610504	145.440000
468.704224	145.000000
468.797913	145.240000
468.891632	145.120000
468.985291	144.900000
469.079010	145.240000
469.172729	145.080000
469.266418	145.520000
469.360107	145.660000
469.453827	145.660000
469.547516	145.400000
469.641205	146.140000
469.734924	146.220000
469.828613	146.700000
469.922302	147.140000
470.016022	146.940000
470.109711	146.520000
470.203430	145.740000
470.297150	144.580000
470.390808	144.440000
470.484558	144.600000
470.578217	144.980000
470.671936	145.700000
470.765625	146.680000
470.859344	146.460000
470.953003	146.540000
471.046753	146.260000
471.140411	145.340000
471.234131	145.360000
471.327820	145.960000
471.421539	146.080000
471.515228	145.860000
471.608948	146.280000
471.702637	145.420000
471.796326	144.880000
471.890045	145.160000
471.983734	145.260000
472.077423	144.860000
472.171143	145.480000
472.264832	145.520000
472.358521	145.160000
472.452240	144.760000
472.545929	145.440000
472.639648	145.440000
472.733337	146.060000
472.827057	145.960000
472.920746	146.400000
473.014465	146.620000
473.108124	146.860000
473.201874	146.340000
473.295532	146.400000
473.389252	146.620000
473.482941	146.480000
473.576660	145.880000
473.670319	145.960000
473.764069	145.960000
473.857727	145.980000
473.951477	146.160000
474.045166	146.740000
474.138855	146.640000
474.232574	146.540000
474.326263	146.580000
474.419952	146.360000
474.513672	146.160000
474.607361	146.160000
474.701050	146.600000
474.794769	146.940000
474.888458	146.960000
474.982178	147.140000
475.075867	147.060000
475.169586	146.640000
475.263275	146.000000
475.356995	145.900000
475.450653	145.360000
475.544403	145.020000
475.638062	145.980000
475.731812	145.780000
475.825470	145.500000
475.919189	145.820000
476.012878	146.460000
476.106598	145.520000
476.200256	145.980000
476.294006	146.160000
476.387695	146.280000
476.481384	145.660000
476.575104	145.560000
476.668793	145.160000
476.762512	144.680000
476.856201	144.800000
476.949890	145.220000
477.043610	145.100000
477.137299	145.020000
477.230988	145.520000
477.324707	145.400000
477.418396	145.680000
477.512146	146.180000
477.605804	146.220000
477.699524	146.420000
477.793213	146.380000
477.886932	145.860000
477.980591	145.180000
478.074341	145.020000
478.167999	144.480000
478.261749	144.080000
478.355408	144.020000
478.449127	144.700000
478.542816	145.700000
478.636536	146.580000
478.730225	147.000000
478.823944	147.520000
478.917633	147.040000
479.011322	146.700000
479.105042	146.200000
479.198730	146.340000
479.292450	145.840000
479.386139	146.320000
479.479828	146.260000
479.573547	146.520000
479.667267	145.940000
479.760925	146.120000
479.854675	145.960000
479.948334	146.020000
480.042084	145.540000
480.135742	146.140000
480.229462	145.660000
480.323151	145.880000
480.416870	145.180000
480.510529	145.620000
480.604279	145.180000
480.697937	146.180000
480.791656	145.640000
480.885345	145.620000
480.979065	145.300000
481.072754	145.660000
481.166473	145.460000
481.260132	145.480000
481.353882	145.720000
481.447540	145.440000
481.541260	145.540000
481.635010	145.120000
481.728668	145.260000
481.822388	145.320000
481.916077	145.540000
482.009796	145.340000
482.103485	145.700000
482.197205	146.000000
482.290863	146.140000
482.384613	146.040000
482.478271	145.740000
482.571991	145.440000
482.665680	145.160000
482.759399	145.880000
482.853058	146.420000
482.946808	146.440000
483.040466	146.560000
483.134216	146.620000
483.227875	145.720000
483.321594	145.900000
483.415283	145.940000
483.509003	145.880000
483.602661	145.600000
483.696411	146.440000
483.790070	146.080000
483.883789	146.080000
483.977478	146.420000
484.071198	146.660000
484.164917	146.020000
484.258606	145.600000
484.352325	145.960000
484.445984	145.840000
484.539734	145.580000
484.633392	145.020000
484.727142	145.400000
484.820801	145.080000
484.914520	144.840000
485.008209	145.240000
485.101929	145.920000
485.195587	145.640000
485.289337	145.600000
485.382996	145.580000
485.476715	145.520000
485.570404	145.840000
485.664124	145.920000
485.757782	146.340000
485.851532	146.520000
485.945190	146.460000
486.038910	146.280000
486.132599	146.620000
486.226318	145.960000
486.319977	145.780000
486.413727	145.980000
486.507446	145.360000
486.601105	144.840000
486.694855	144.940000
486.788513	145.060000
486.882233	144.900000
486.975922	145.200000
487.069641	145.240000
487.163300	145.100000
487.257050	145.960000
487.350708	145.780000
487.444427	145.720000
487.538116	145.620000
487.631836	145.660000
487.725494	144.880000
487.819214	145.160000
487.912903	145.080000
488.006622	145.640000
488.100281	146.200000
488.194031	146.360000
488.287689	146.680000
488.381409	147.580000
488.475098	147.300000
488.568817	147.200000
488.662476	146.900000
488.756226	146.040000
488.849945	144.740000
488.943604	144.920000
489.037354	145.060000
489.131012	144.860000
489.224731	144.760000
489.318390	144.820000
489.412140	144.800000
489.505798	144.360000
489.599518	144.460000
489.693207	145.020000
489.786926	145.160000
489.880585	145.140000
489.974335	145.320000
490.067993	146.120000
490.161713	146.240000
490.255371	147.040000
490.349121	147.140000
490.442780	147.240000
490.536499	146.240000
490.630188	146.220000
490.723907	145.600000
490.817566	145.500000
490.911285	145.500000
491.004974	145.500000
491.098694	145.140000
491.192413	145.880000
491.286102	145.680000
491.379822	145.820000
491.473480	146.000000
491.567200	146.040000
491.660889	145.080000
491.754608	145.020000
491.848267	144.780000
491.941986	144.560000
492.035675	144.660000
492.129395	145.400000
492.223053	145.300000
492.316772	145.420000
492.410461	145.660000
492.504181	145.660000
492.597839	145.680000
492.691559	145.960000
492.785248	145.960000
492.878967	146.280000
492.972626	146.060000
493.066345	145.700000
493.160034	145.200000
493.253754	145.240000
493.347412	144.720000
493.441132	145.040000
493.534882	145.340000
493.628540	145.880000
493.722260	145.940000
493.815918	146.440000
493.909668	146.740000
494.003326	146.640000
494.097046	146.620000
494.190704	146.480000
494.284454	146.480000
494.378113	146.700000
494.471832	146.300000
494.565491	145.880000
494.659210	145.760000
494.752899	145.160000
494.846619	144.640000
494.940277	144.860000
495.033997	145.120000
495.127686	145.080000
495.221405	145.340000
495.315063	145.480000
495.408783	145.720000
495.502441	145.820000
495.596191	145.920000
495.689850	145.920000
495.783569	146.020000
495.877228	145.880000
495.970947	145.600000
496.064697	145.640000
496.158356	146.480000
496.252075	146.220000
496.345734	146.100000
496.439453	146.880000
496.533142	146.660000
496.626862	146.540000
496.720520	146.400000
496.814240	146.320000
496.907898	145.780000
497.001617	146.120000
497.095306	145.420000
497.189026	145.540000
497.282684	145.720000
497.376404	146.080000
497.470062	145.640000
497.563782	146.080000
497.657471	145.720000
497.751190	145.440000
497.844849	145.080000
497.938568	145.360000
498.032227	145.000000
498.125946	145.480000
498.219635	145.600000
498.313354	145.840000
498.407074	145.620000
498.500732	145.640000
498.594452	145.480000
498.688110	144.960000
498.781830	144.420000
498.875519	144.320000
498.969238	144.340000
499.062897	144.380000
499.156616	145.420000
499.250275	145.760000
499.343994	145.560000
499.437653	145.480000
499.531372	145.460000
499.625061	145.660000
499.718781	145.740000
499.812439	146.540000
499.906158	146.600000
499.999817	146.520000
500.093536	145.700000
500.187195	145.860000
500.280914	145.540000
500.374573	145.700000
500.468323	145.720000
500.561981	146.200000
500.655701	145.820000
500.749420	145.640000
500.843079	145.600000
500.936798	145.820000
501.030457	145.980000
501.124176	146.280000
501.217834	146.400000
501.311554	146.440000
501.405212	146.220000
501.498962	145.500000
501.592621	145.220000
501.686340	145.540000
501.779999	145.480000
501.873718	145.620000
501.967377	146.000000
502.061096	146.400000
502.154755	145.740000
502.248474	145.840000
502.342133	145.860000
502.435852	145.780000
502.529510	146.240000
502.623230	146.900000
502.716888	146.240000
502.810608	146.200000
502.904266	146.560000
502.997986	145.800000
503.091705	145.340000
503.185364	145.720000
503.279083	145.860000
503.372772	145.720000
503.466492	145.380000
503.560150	145.440000
503.653870	145.700000
503.747528	145.580000
503.841248	145.460000
503.934906	145.860000
504.028625	145.580000
504.122284	145.560000
504.216003	146.220000
504.309662	146.160000
504.403381	146.360000
504.497040	146.480000
504.590759	146.160000
504.684418	145.880000
504.778137	146.180000
504.871796	146.380000
504.965515	146.240000
505.059174	146.360000
505.152893	145.620000
505.246521	145.020000
505.340240	144.640000
505.433899	144.980000
505.527618	145.140000
505.621338	145.720000
505.714996	145.700000
505.808716	145.480000
505.902374	145.980000
505.996094	145.920000
506.089752	145.480000
506.183472	145.960000
506.277130	145.980000
506.370850	145.460000
506.464508	145.420000
506.558228	145.640000
506.651886	145.120000
506.745605	145.160000
506.839264	145.340000
506.932983	145.560000
507.026611	145.520000
507.120331	146.020000
507.213989	145.480000
507.307709	145.520000
507.401367	145.720000
507.495087	146.480000
507.588745	146.000000
507.682465	147.040000
507.776123	146.900000
507.869843	146.440000
507.963531	145.960000
508.057190	146.400000
508.150909	145.860000
508.244568	145.880000
508.338287	145.740000
508.431946	145.520000
508.525665	145.100000
508.619324	145.040000
508.713013	145.140000
508.806671	145.920000
508.900391	146.300000
508.994049	146.700000
509.087769	146.700000
509.181427	146.580000
509.275146	145.800000
509.368774	145.060000
509.462494	144.800000
509.556152	144.660000
509.649872	145.000000
509.743530	145.340000
509.837250	145.840000
509.930878	146.000000
510.024597	146.080000
510.118256	145.700000
510.211975	145.620000
510.305695	145.200000
510.399353	145.540000
510.493042	146.140000
510.586700	146.240000
510.680420	146.740000
510.774078	147.080000
510.867798	146.780000
510.961426	146.020000
511.055145	145.900000
511.148804	145.320000
511.242523	145.520000
511.336151	145.740000
511.429871	146.180000
511.523529	146.080000
511.617249	146.000000
511.710876	145.500000
511.804596	144.940000
511.898254	144.980000
511.991974	145.320000
512.085632	145.160000
512.179321	145.460000
512.272949	145.900000
512.366699	146.340000
512.460327	146.160000
512.554077	147.180000
512.647766	147.200000
512.741394	146.960000
512.835144	146.940000
512.928772	146.780000
513.022461	146.320000
513.116150	146.080000
513.209839	146.760000
513.303467	146.000000
513.397217	145.700000
513.490845	145.460000
513.584595	145.020000
513.678223	144.200000
513.771912	144.100000
513.865601	144.640000
513.959290	144.420000
514.052917	144.860000
514.146667	145.840000
514.240295	146.280000
514.333984	146.440000
514.427673	146.440000
514.521362	146.680000
514.614990	145.720000
514.708740	145.720000
514.802368	145.640000
514.896057	145.900000
514.989746	146.500000
515.083435	146.400000
515.177124	146.940000
515.270752	146.980000
515.364502	146.660000
515.458130	146.300000
515.551819	146.360000
515.645508	145.560000
515.739197	145.180000
515.832825	145.380000
515.926575	144.840000
516.020203	145.020000
516.113892	145.820000
516.207520	145.700000
516.301270	145.640000
516.394897	145.900000
516.488586	146.200000
516.582275	145.920000
516.675964	145.580000
516.769592	145.620000
516.863281	146.440000
516.956970	146.700000
517.050659	146.240000
517.144287	146.740000
517.238037	146.740000
517.331665	145.740000
517.425354	145.220000
517.519043	145.520000
517.612732	146.020000
517.706421	146.040000
517.800049	146.020000
517.893738	145.660000
517.987427	145.320000
518.081116	144.960000
518.174744	144.520000
518.268433	144.800000
518.362122	145.600000
518.455811	145.740000
518.549438	146.200000
518.643127	147.560000
518.736816	147.140000
518.830505	146.440000
518.924133	146.500000
519.017822	146.520000
519.111511	145.920000
519.205200	146.720000
519.298828	146.880000
519.392517	146.420000
519.486206	146.340000
519.579895	146.080000
519.673523	145.700000
519.767212	145.620000
519.860901	146.320000
519.954590	146.000000
520.048279	145.840000
520.141907	145.640000
520.235596	146.660000
520.329224	146.500000
520.422974	146.400000
520.516602	146.440000
520.610291	145.960000
520.703918	145.480000
520.797607	145.200000
520.891296	145.300000
520.984985	145.520000
521.078613	146.380000
521.172302	145.680000
521.265930	146.520000
521.359680	146.800000
521.453308	146.560000
521.546997	146.280000
521.640625	146.640000
521.734314	145.960000
521.827942	145.880000
521.921692	145.980000
522.015320	145.980000
522.109009	145.880000
522.202698	145.880000
522.296326	145.660000
522.390015	146.060000
522.483704	146.320000
522.577393	146.280000
522.671021	146.120000
522.764709	145.880000
522.858337	145.880000
522.952026	145.580000
523.045654	146.360000
523.139404	146.800000
523.233032	147.120000
523.326721	146.840000
523.420349	146.940000
523.514038	146.060000
523.607666	146.340000
523.701355	145.880000
523.795044	145.820000
523.888733	145.880000
523.982361	146.380000
524.076050	145.520000
524.169678	146.020000
524.263367	145.740000
524.356995	145.280000
524.450684	144.880000
524.544373	145.040000
524.638062	145.040000
524.731750	145.260000
524.825378	145.440000
524.919067	145.360000
525.012695	145.620000
525.106384	145.160000
525.200012	145.120000
525.293701	144.960000
525.387329	145.480000
525.481018	145.660000
525.574646	146.020000
525.668396	146.160000
525.762024	146.740000
525.855713	146.780000
525.949341	146.020000
526.043030	146.120000
526.136658	145.800000
526.230347	145.520000
526.323975	145.040000
526.417664	145.160000
526.511292	145.200000
526.604980	145.680000
526.698608	145.460000
526.792297	145.500000
526.885925	145.880000
526.979614	146.080000
527.073303	145.700000
527.166931	145.880000
527.260620	146.400000
527.354309	146.860000
527.447998	146.320000
527.541626	146.180000
527.635315	146.320000
527.728943	146.580000
527.822632	146.480000
527.916260	146.740000
528.009949	147.040000
528.103577	146.840000
528.197266	146.040000
528.290894	145.720000
528.384583	145.740000
528.478210	145.640000
528.571899	145.880000
528.665527	146.140000
528.759216	146.340000
528.852844	146.440000
528.946533	146.400000
529.040161	146.240000
529.133850	145.960000
529.227478	145.920000
529.321167	146.320000
529.414856	146.780000
529.508484	147.440000
529.602173	147.320000
529.695801	147.200000
529.789490	146.540000
529.883057	146.240000
529.976746	145.860000
530.070374	146.240000
530.164062	146.120000
530.257690	146.340000
530.351379	146.400000
530.445007	146.200000
530.538696	145.480000
530.632324	145.780000
530.726013	145.640000
530.819641	145.800000
530.913330	145.860000
531.006958	146.380000
531.100647	146.120000
531.194275	146.300000
531.287964	145.720000
531.381592	145.560000
531.475220	145.300000
531.568848	145.360000
531.662537	145.060000
531.756226	145.620000
531.849854	145.640000
531.943542	146.000000
532.037170	145.700000
532.130859	146.260000
532.224487	145.860000
532.318176	145.620000
532.411804	145.860000
532.505432	146.380000
532.599060	145.840000
532.692749	145.740000
532.786377	146.140000
532.880066	145.600000
532.973694	144.680000
533.067383	144.740000
533.161011	144.840000
533.254639	144.500000
533.348267	144.440000
533.441956	145.100000
533.535583	144.820000
533.629272	145.180000
533.722900	145.160000
533.816589	145.200000
533.910156	145.380000
534.003845	145.420000
534.097534	145.440000
534.191162	146.240000
534.284851	146.260000
534.378479	145.960000
534.472107	146.180000
534.565735	145.760000
534.659424	145.360000
534.753052	145.860000
534.846741	145.620000
534.940369	146.120000
535.033997	146.280000
535.127625	146.440000
535.221313	146.600000
535.314941	146.700000
535.408630	146.120000
535.502197	146.200000
535.595886	145.820000
535.689514	145.420000
535.783203	146.080000
535.876831	146.680000
535.970459	146.600000
536.064087	146.300000
536.157776	146.500000
536.251404	146.280000
536.345093	145.840000
536.438721	146.240000
536.532349	146.640000
536.626038	146.320000
536.719666	146.440000
536.813293	146.360000
536.906921	146.120000
537.000610	146.260000
537.094238	146.700000
537.187866	146.520000
537.281494	146.180000
537.375183	146.200000
537.468811	145.840000
537.562439	145.220000
537.656067	145.060000
537.749756	145.620000
537.843384	145.800000
537.937012	146.020000
538.030640	145.820000
538.124329	145.860000
538.217896	146.240000
538.311584	146.340000
538.405212	146.300000
538.498901	146.760000
538.592468	147.340000
538.686157	146.280000
538.779785	145.520000
538.873413	145.540000
538.967102	145.500000
539.060730	144.700000
539.154358	145.220000
539.247986	145.660000
539.341675	145.400000
539.435242	145.100000
539.528931	145.300000
539.622559	144.920000
539.716187	145.540000
539.809814	145.740000
539.903503	145.980000
539.997070	145.960000
540.090759	146.220000
540.184387	145.640000
540.278015	146.240000
540.371643	146.560000
540.465332	146.540000
540.558899	146.280000
540.652588	146.220000
540.746216	145.460000
540.839844	145.640000
540.933472	145.640000
541.027100	145.720000
541.120728	146.040000
541.214417	146.480000
541.308044	146.260000
541.401672	146.200000
541.495300	145.980000
541.588928	145.740000
541.682617	145.460000
541.776184	145.400000
541.869873	145.760000
541.963440	146.420000
542.057129	146.340000
542.150757	146.280000
542.244385	146.260000
542.338013	145.600000
542.431641	145.220000
542.525269	145.120000
542.618958	145.580000
542.712524	145.800000
542.806213	145.640000
542.899780	145.900000
542.993469	145.880000
543.087036	145.320000
543.180725	144.680000
543.274292	145.380000
543.367981	145.680000
543.461548	146.000000
543.555237	146.080000
543.648926	146.880000
543.742493	147.520000
543.836182	147.360000
543.929749	147.160000
544.023437	147.440000
544.117004	147.360000
544.210693	146.900000
544.304260	146.740000
544.397949	146.700000
544.491516	146.760000
544.585205	146.320000
544.678772	145.880000
544.772461	146.260000
544.866028	146.100000
544.959717	146.340000
545.053284	146.120000
545.146973	146.840000
545.240540	146.860000
545.334229	147.620000
545.427795	147.640000
545.521423	148.240000
545.615051	147.860000
545.708679	147.980000
545.802307	147.640000
545.895935	148.020000
545.989624	148.560000
546.083191	148.600000
546.176880	148.140000
546.270447	147.640000
546.364136	147.400000
546.457703	146.720000
546.551331	146.640000
546.644958	147.040000
546.738586	147.380000
546.832214	146.920000
546.925842	146.740000
547.019409	146.760000
547.113098	146.000000
547.206665	145.700000
547.300354	145.800000
547.393921	146.000000
547.487549	146.220000
547.581177	146.180000
547.674805	146.160000
547.768433	145.540000
547.862061	145.280000
547.955627	144.400000
548.049316	144.940000
548.142883	145.240000
548.236572	145.940000
548.330139	146.300000
548.423767	146.680000
548.517456	146.720000
548.611023	146.840000
548.704651	145.840000
548.798279	145.540000
548.891907	145.860000
548.985474	145.580000
549.079163	145.560000
549.172729	145.780000
549.266357	145.480000
549.359985	145.500000
549.453613	144.840000
549.547180	144.740000
549.640869	145.560000
549.734436	145.600000
549.828064	145.600000
549.921631	146.080000
550.015320	145.720000
550.108887	145.860000
550.202515	145.940000
550.296143	145.560000
550.389771	145.740000
550.483337	146.120000
550.576965	145.700000
550.670593	146.240000
550.764221	146.400000
550.857849	146.360000
550.951477	145.580000
551.045105	145.440000
551.138672	145.100000
551.232300	144.820000
551.325928	144.940000
551.419556	145.560000
551.513123	145.320000
551.606750	144.820000
551.700378	145.420000
551.794006	145.280000
551.887573	144.980000
551.981201	145.480000
552.074768	145.680000
552.168457	145.220000
552.262024	146.180000
552.355652	146.360000
552.449219	146.500000
552.542847	146.660000
552.636475	146.320000
552.730103	145.380000
552.823669	145.220000
552.917297	144.480000
553.010864	144.680000
553.104553	145.060000
553.198181	144.740000
553.291748	145.180000
553.385376	145.880000
553.478943	145.640000
553.572571	145.680000
553.666199	145.880000
553.759827	145.440000
553.853394	144.760000
553.947021	144.740000
554.040588	144.820000
554.134216	145.080000
554.227783	145.980000
554.321411	146.820000
554.415039	146.540000
554.508667	146.520000
554.602234	146.720000
554.695862	146.140000
554.789429	146.060000
554.883057	146.340000
554.976624	146.200000
555.070251	145.580000
555.163818	145.380000
555.257507	145.080000
555.351074	145.020000
555.444702	146.060000
555.538330	146.000000
555.631897	146.460000
555.725525	146.420000
555.819092	146.540000
555.912720	145.380000
556.006287	146.320000
556.099915	145.700000
556.193481	146.040000
556.287109	146.140000
556.380676	146.180000
556.474304	145.840000
556.567871	146.260000
556.661499	145.700000
556.755066	145.600000
556.848694	145.400000
556.942261	145.120000
557.035889	145.160000
557.129517	145.440000
557.223145	145.720000
557.316711	145.900000
557.410339	146.080000
557.503906	145.680000
557.597473	146.000000
557.691040	145.820000
557.784668	146.000000
557.878296	146.060000
557.971863	146.540000
558.065491	146.380000
558.159058	145.980000
558.252686	146.520000
558.346252	146.860000
558.439880	146.300000
558.533447	145.800000
558.627075	145.740000
558.720642	145.100000
558.814270	144.660000
558.907837	144.720000
559.001465	144.700000
559.095032	145.600000
559.188660	145.960000
559.282227	145.480000
559.375854	146.000000
559.469360	145.660000
559.562988	145.880000
559.656555	145.740000
559.750183	146.060000
559.843750	146.380000
559.937378	146.840000
560.030945	146.340000
560.124573	0.000000
560.218140	0.000000
560.311707	0.000000
560.405334	0.000000
560.498901	0.000000
560.592529	0.000000
560.686096	0.000000
560.779724	0.000000
560.873291	0.000000
560.966858	0.000000
561.060425	0.000000
561.154053	0.000000
561.247620	0.000000
561.341248	0.000000
561.434814	0.000000
561.528381	0.000000
561.621948	0.000000
561.715576	0.000000
561.809143	0.000000
561.902771	0.000000
561.996277	0.000000
562.089905	0.000000
562.183472	0.000000
562.277100	0.000000
